timestamp,ax,ay,az
1631193108680,-0.451766,0.0068319999999999995,-0.880962
1631193108690,-0.451949,0.007076,-0.879864
1631193108699,-0.452376,0.0070149999999999995,-0.8802909999999999
1631193108709,-0.452498,0.007808,-0.87901
1631193108718,-0.45322999999999997,0.0077469999999999995,-0.878827
1631193108728,-0.452864,0.009089,-0.8809009999999999
1631193108738,-0.451644,0.009637999999999999,-0.884439
1631193108747,-0.44956999999999997,0.008601,-0.8873059999999999
1631193108757,-0.451217,0.008539999999999999,-0.88816
1631193108766,-0.453657,0.010126,-0.8870009999999999
1631193108776,-0.45292499999999997,0.00915,-0.885293
1631193108786,-0.454084,0.0062829999999999995,-0.882182
1631193108795,-0.454816,0.005673,-0.88084
1631193108805,-0.454206,0.006039,-0.881877
1631193108814,-0.453352,0.005429,-0.882914
1631193108824,-0.452254,0.004392,-0.8821209999999999
1631193108834,-0.45200999999999997,0.0057339999999999995,-0.881755
1631193108843,-0.452071,0.007137,-0.883097
1631193108853,-0.45109499999999997,0.009211,-0.885354
1631193108862,-0.44926499999999997,0.008662,-0.888343
1631193108872,-0.44865499999999997,0.008113,-0.88816
1631193108882,-0.448228,0.007259,-0.885537
1631193108891,-0.450058,0.0068319999999999995,-0.883402
1631193108901,-0.45017999999999997,0.006344,-0.882548
1631193108910,-0.450546,0.006954,-0.8830359999999999
1631193108920,-0.450607,0.008479,-0.882792
1631193108930,-0.45048499999999997,0.009882,-0.8842559999999999
1631193108939,-0.449814,0.010735999999999999,-0.886574
1631193108949,-0.449753,0.011833999999999999,-0.887062
1631193108958,-0.44865499999999997,0.012993,-0.886208
1631193108968,-0.449143,0.014274,-0.886574
1631193108978,-0.44926499999999997,0.014091,-0.8870009999999999
1631192845207,-0.44347,0.260409,-0.84729
1631192845217,-0.443714,0.25986,-0.84729
1631192845226,-0.44347,0.259616,-0.847046
1631192845236,-0.44347,0.25925,-0.847839
1631192845245,-0.442799,0.259799,-0.84607
1631192845255,-0.443897,0.26065299999999997,-0.844301
1631192845265,-0.444324,0.262849,-0.845277
1631192845274,-0.444385,0.26535,-0.846863
1631192845284,-0.441945,0.268156,-0.848815
1631192845293,-0.44212799999999997,0.267424,-0.852719
1631192845303,-0.442494,0.267058,-0.85278
1631192845313,-0.441701,0.264557,-0.852658
1631192845322,-0.442067,0.262056,-0.852353
1631192845332,-0.443836,0.259982,-0.8498519999999999
1631192845341,-0.444202,0.259494,-0.844972
1631192845351,-0.444385,0.25973799999999997,-0.843203
1631192845361,-0.44286,0.258274,-0.84241
1631192845370,-0.442189,0.25760299999999997,-0.840641
1631192845380,-0.440725,0.257969,-0.841739
1631192845389,-0.439627,0.25668799999999997,-0.845582
1631192845399,-0.440542,0.257725,-0.8495469999999999
1631192845409,-0.439749,0.256505,-0.8504619999999999
1631192845418,-0.440176,0.255956,-0.850523
1631192845428,-0.440237,0.255407,-0.848388
1631192845437,-0.442311,0.256322,-0.846619
1631192845447,-0.442799,0.25668799999999997,-0.846131
1631192845457,-0.44334799999999996,0.25851799999999997,-0.845155
1631192845466,-0.444385,0.26065299999999997,-0.845643
1631192845476,-0.443226,0.262544,-0.847839
1631192845485,-0.444934,0.263459,-0.848815
1631192845495,-0.444629,0.264496,-0.8492419999999999
1631192845505,-0.445727,0.264801,-0.850584
1631192845514,-0.444995,0.264435,-0.851804
1631192845524,-0.443592,0.262727,-0.8504619999999999
1631192845533,-0.44408,0.261324,-0.846619
1631192845543,-0.444202,0.261019,-0.845765
1631192845553,-0.44347,0.262361,-0.845155
1631192845562,-0.443531,0.26108,-0.843386
1631192845572,-0.443226,0.26095799999999997,-0.845399
1631192845581,-0.441701,0.260836,-0.848205
1631192845591,-0.44121299999999997,0.260226,-0.849486
1631192845601,-0.44182299999999997,0.260104,-0.8501569999999999
1631192845610,-0.442555,0.26065299999999997,-0.849791
1631192845620,-0.442189,0.259921,-0.84912
1631192845629,-0.44212799999999997,0.260592,-0.848205
1631192845639,-0.442799,0.260592,-0.8468019999999999
1631192845649,-0.44304299999999996,0.261812,-0.8474119999999999
1631192845658,-0.44273799999999996,0.260409,-0.847656
1631192845668,-0.442006,0.260897,-0.848388
1631192845677,-0.441701,0.261385,-0.848998
1631192845687,-0.442189,0.26108,-0.850523
1631192845697,-0.441335,0.261141,-0.84912
1631192845706,-0.441701,0.263032,-0.84912
1631192845716,-0.441884,0.263154,-0.84912
1631192845725,-0.44042,0.263581,-0.849913
1631192845735,-0.43968799999999997,0.263276,-0.84912
1631192845745,-0.44090799999999997,0.262422,-0.848876
1631192845754,-0.44121299999999997,0.26187299999999997,-0.847778
1631192845764,-0.439749,0.26156799999999997,-0.847473
1631192845773,-0.440481,0.26095799999999997,-0.847595
1631192845783,-0.43938299999999997,0.260592,-0.847168
1631192845793,-0.43999299999999997,0.261202,-0.8486319999999999
1631192845802,-0.439566,0.261812,-0.847046
1631192845812,-0.44090799999999997,0.261629,-0.847046
1631192845821,-0.440725,0.26065299999999997,-0.84851
1631192845831,-0.43999299999999997,0.260592,-0.8474119999999999
1631192845841,-0.440176,0.260165,-0.847046
1631192845850,-0.440847,0.259189,-0.846741
1631192845860,-0.44182299999999997,0.25882299999999997,-0.84668
1631192845869,-0.440786,0.25851799999999997,-0.846314
1631192845879,-0.442006,0.259067,-0.8477169999999999
1631192845889,-0.44212799999999997,0.25912799999999997,-0.847473
1631192845898,-0.442006,0.25925,-0.847778
1631192845908,-0.442372,0.259555,-0.847473
1631192845917,-0.442494,0.25973799999999997,-0.847839
1631192845927,-0.442555,0.258945,-0.847229
1631192845937,-0.44395799999999996,0.25986,-0.84607
1631192845946,-0.44334799999999996,0.25925,-0.847229
1631192845956,-0.443592,0.259006,-0.846436
1631192845965,-0.443531,0.258152,-0.847656
1631192845975,-0.443897,0.257115,-0.847168
1631192845985,-0.443409,0.25729799999999997,-0.84729
1631192845994,-0.443531,0.257176,-0.847656
1631192846004,-0.444507,0.256871,-0.847778
1631192846013,-0.443897,0.25668799999999997,-0.847961
1631192846023,-0.443775,0.255651,-0.848693
1631192846033,-0.444202,0.255834,-0.8477169999999999
1631192846042,-0.444629,0.255224,-0.847778
1631192846052,-0.445056,0.255468,-0.8477169999999999
1631192846061,-0.444751,0.254797,-0.848266
1631192846071,-0.444629,0.255895,-0.848693
1631192846081,-0.445544,0.254858,-0.8492419999999999
1631192846090,-0.446093,0.255102,-0.84851
1631192846100,-0.446215,0.255102,-0.849364
1631192846109,-0.445605,0.253882,-0.849181
1631192846119,-0.446093,0.253394,-0.850096
1631192846129,-0.446581,0.253211,-0.850035
1631192846138,-0.446276,0.25376,-0.848998
1631192846148,-0.44682499999999997,0.25376,-0.8486319999999999
1631192846157,-0.446276,0.254553,-0.848449
1631192846167,-0.447008,0.25437,-0.848266
1631192846177,-0.447313,0.254187,-0.848388
1631192846186,-0.447191,0.253394,-0.847839
1631192846196,-0.446337,0.252418,-0.848388
1631192846205,-0.446337,0.253272,-0.848449
1631192846215,-0.44652,0.253394,-0.849181
1631192846225,-0.44652,0.253028,-0.849364
1631192846234,-0.44712999999999997,0.252784,-0.847595
1631192846244,-0.44712999999999997,0.252906,-0.847656
1631192846253,-0.447252,0.253394,-0.847656
1631192846263,-0.447374,0.252601,-0.846619
1631192846273,-0.44834999999999997,0.251991,-0.846619
1631192846282,-0.446764,0.25132,-0.84668
1631192846292,-0.445483,0.251137,-0.843996
1631192846301,-0.448106,0.252479,-0.843142
1631192846311,-0.44773999999999997,0.254492,-0.844728
1631192846321,-0.44682499999999997,0.25821299999999997,-0.847168
1631192846330,-0.445849,0.260165,-0.850645
1631192846340,-0.445178,0.260592,-0.85156
1631192846349,-0.44469,0.258396,-0.851499
1631192846359,-0.445361,0.256627,-0.85034
1631192846369,-0.447496,0.255468,-0.848144
1631192846378,-0.448106,0.255956,-0.8471069999999999
1631192846388,-0.447801,0.255285,-0.845155
1631192846397,-0.446703,0.25376,-0.842532
1631192846407,-0.446703,0.252967,-0.839726
1631192846417,-0.446581,0.253272,-0.8389329999999999
1631192846426,-0.44712999999999997,0.252784,-0.842105
1631192846436,-0.447252,0.251808,-0.846375
1631192846445,-0.446337,0.251808,-0.85095
1631192846455,-0.447252,0.25071,-0.851011
1631192846465,-0.448533,0.249002,-0.849974
1631192846474,-0.45048499999999997,0.248575,-0.849364
1631192846484,-0.451339,0.249673,-0.848449
1631192846493,-0.450912,0.251137,-0.848693
1631192846503,-0.449692,0.252662,-0.848144
1631192846513,-0.45017999999999997,0.253394,-0.8479
1631192846522,-0.450302,0.255346,-0.84851
1631192846532,-0.449387,0.256505,-0.849303
1631192846541,-0.447923,0.257542,-0.851011
1631192846551,-0.44712999999999997,0.257542,-0.85095
1631192846561,-0.447862,0.256322,-0.849303
1631192846570,-0.448777,0.254431,-0.846131
1631192846580,-0.448533,0.25498,-0.846558
1631192846589,-0.447191,0.254797,-0.8471069999999999
1631192846599,-0.447008,0.254736,-0.843935
1631192846609,-0.446642,0.25729799999999997,-0.843752
1631192846618,-0.446337,0.257786,-0.845887
1631192846628,-0.446154,0.256566,-0.846314
1631192846637,-0.446276,0.25729799999999997,-0.846314
1631192846647,-0.447374,0.258335,-0.84607
1631192846657,-0.448106,0.257664,-0.843569
1631192846666,-0.448106,0.257847,-0.844789
1631192846676,-0.448106,0.257542,-0.843691
1631192846685,-0.44926499999999997,0.257481,-0.84302
1631192846695,-0.449326,0.25668799999999997,-0.840641
1631192846705,-0.449997,0.257359,-0.842166
1631192846714,-0.450058,0.257115,-0.844057
1631192846724,-0.45078999999999997,0.256322,-0.843996
1631192846733,-0.451888,0.256444,-0.843691
1631192846743,-0.451766,0.256871,-0.84363
1631192846753,-0.452437,0.256017,-0.842776
1631192846762,-0.452681,0.257847,-0.842044
1631192846772,-0.453047,0.257969,-0.841861
1631192846781,-0.45353499999999997,0.258152,-0.842776
1631192846791,-0.454999,0.25760299999999997,-0.84363
1631192846801,-0.453596,0.258396,-0.842898
1631192846810,-0.45444999999999997,0.257847,-0.841678
1631192846820,-0.454816,0.257481,-0.84119
1631192846829,-0.45505999999999996,0.257542,-0.840519
1631192846839,-0.455792,0.257359,-0.840885
1631192846849,-0.456036,0.25742,-0.84058
1631192846858,-0.456402,0.25803,-0.841861
1631192846868,-0.457561,0.25681,-0.84241
1631192846877,-0.457195,0.256322,-0.842349
1631192846887,-0.457073,0.256139,-0.84363
1631192846897,-0.458537,0.255041,-0.842105
1631192846906,-0.457866,0.255407,-0.841495
1631192846916,-0.45884199999999997,0.255346,-0.841251
1631192846925,-0.458232,0.254858,-0.840824
1631192846935,-0.459818,0.253821,-0.841312
1631192846945,-0.459574,0.253089,-0.842044
1631192846954,-0.460611,0.25315,-0.843081
1631192846964,-0.461221,0.252906,-0.844301
1631192846973,-0.460184,0.252357,-0.844179
1631192846983,-0.45945199999999997,0.252723,-0.843386
1631192846993,-0.46036699999999997,0.252784,-0.84302
1631192847002,-0.459696,0.251686,-0.842532
1631192847012,-0.459635,0.252113,-0.840946
1631192847021,-0.460123,0.252174,-0.841983
1631192847031,-0.460123,0.251259,-0.841922
1631192847041,-0.46067199999999997,0.251076,-0.842105
1631192847050,-0.459086,0.251076,-0.842105
1631192847060,-0.45933,0.251076,-0.841983
1631192847069,-0.459818,0.251015,-0.842349
1631192847079,-0.459208,0.250527,-0.841434
1631192847089,-0.45914699999999997,0.24973399999999998,-0.841739
1631192847098,-0.45933,0.250283,-0.841983
1631192847108,-0.459818,0.25071,-0.841312
1631192847117,-0.459208,0.249978,-0.842349
1631192847127,-0.459269,0.250283,-0.840702
1631192847137,-0.459269,0.249551,-0.842654
1631192847146,-0.458964,0.250283,-0.841861
1631192847156,-0.459696,0.24942899999999998,-0.841861
1631192847165,-0.459696,0.249063,-0.842654
1631192847175,-0.45975699999999997,0.247355,-0.842288
1631192847185,-0.460611,0.24705,-0.841617
1631192847194,-0.461038,0.247477,-0.843691
1631192847204,-0.460123,0.24790399999999999,-0.844301
1631192847213,-0.459635,0.247477,-0.843996
1631192847223,-0.45975699999999997,0.248697,-0.842044
1631192847233,-0.460611,0.247477,-0.840824
1631192847242,-0.460916,0.248941,-0.842288
1631192847252,-0.45933,0.247172,-0.843325
1631192847261,-0.46128199999999997,0.247782,-0.843996
1631192847271,-0.459574,0.24766,-0.842471
1631192847281,-0.459818,0.247355,-0.8404579999999999
1631192847290,-0.460916,0.24759899999999999,-0.838872
1631192847300,-0.461648,0.24881899999999998,-0.8389329999999999
1631192847309,-0.461465,0.251137,-0.842837
1631192847319,-0.459574,0.253821,-0.8483269999999999
1631192847329,-0.458293,0.254248,-0.851804
1631192847338,-0.459574,0.252174,-0.850523
1631192847348,-0.460794,0.248758,-0.8477169999999999
1631192847357,-0.46097699999999997,0.24662299999999998,-0.845521
1631192847367,-0.462075,0.244427,-0.841739
1631192847377,-0.461648,0.244244,-0.8398479999999999
1631192847386,-0.45945199999999997,0.243939,-0.839909
1631192847396,-0.458354,0.243207,-0.8392379999999999
1631192847405,-0.458415,0.244244,-0.839909
1631192847415,-0.459696,0.24418299999999998,-0.840214
1631192847425,-0.459269,0.245586,-0.843508
1631192847434,-0.458903,0.24522,-0.844606
1631192847444,-0.457927,0.245464,-0.844362
1631192847453,-0.45811,0.24570799999999998,-0.844362
1631192847463,-0.458171,0.244549,-0.841068
1631192847473,-0.45975699999999997,0.245647,-0.840214
1631192847482,-0.460245,0.246745,-0.839055
1631192847492,-0.459696,0.24790399999999999,-0.840031
1631192847501,-0.459879,0.248941,-0.839909
1631192847511,-0.46055,0.250466,-0.84058
1631192847521,-0.460306,0.25132,-0.843996
1631192847530,-0.46067199999999997,0.251442,-0.844972
1631192847540,-0.460855,0.250893,-0.846863
1631192847549,-0.460916,0.24827,-0.843508
1631192847559,-0.46250199999999997,0.246806,-0.840702
1631192847569,-0.46219699999999997,0.248636,-0.841556
1631192847578,-0.460184,0.24827,-0.841739
1631192847588,-0.46116,0.24973399999999998,-0.841434
1631192847597,-0.46097699999999997,0.250405,-0.844057
1631192847607,-0.459025,0.24881899999999998,-0.845887
1631192847617,-0.45945199999999997,0.248758,-0.845582
1631192847626,-0.460245,0.248453,-0.84363
1631192847636,-0.458415,0.247965,-0.8418
1631192847645,-0.458598,0.246989,-0.841495
1631192847655,-0.460428,0.24662299999999998,-0.841373
1631192847665,-0.45945199999999997,0.245464,-0.841983
1631192847674,-0.459208,0.24662299999999998,-0.843935
1631192847684,-0.460306,0.244854,-0.844301
1631192847693,-0.459635,0.243939,-0.845033
1631192847703,-0.459208,0.245464,-0.84485
1631192847713,-0.459391,0.246196,-0.845094
1631192847722,-0.458537,0.246562,-0.846863
1631192847732,-0.45872,0.246989,-0.847656
1631192847741,-0.459086,0.24644,-0.846314
1631192847751,-0.45872,0.246745,-0.846131
1631192847761,-0.457988,0.246867,-0.846558
1631192847770,-0.457378,0.24631799999999998,-0.844362
1631192847780,-0.458232,0.246806,-0.844179
1631192847789,-0.458354,0.246135,-0.843508
1631192847799,-0.457805,0.245464,-0.84302
1631192847809,-0.457317,0.245769,-0.842532
1631192847818,-0.457561,0.246806,-0.842837
1631192847828,-0.457439,0.245891,-0.842288
1631192847837,-0.45872,0.247416,-0.84302
1631192847847,-0.459208,0.24705,-0.843508
1631192847857,-0.45811,0.246501,-0.843264
1631192847866,-0.45914699999999997,0.245891,-0.84302
1631192847876,-0.459025,0.24540299999999998,-0.842776
1631192847885,-0.458781,0.244427,-0.842166
1631192847895,-0.458049,0.243756,-0.842776
1631192847905,-0.458293,0.24326799999999998,-0.844179
1631192847914,-0.458964,0.24387799999999998,-0.84424
1631192847924,-0.458232,0.242902,-0.844789
1631192847933,-0.45872,0.242109,-0.845704
1631192847943,-0.458659,0.241316,-0.845521
1631192847953,-0.458659,0.24046199999999998,-0.8461919999999999
1631192847962,-0.45811,0.240096,-0.846131
1631192847972,-0.458293,0.24095,-0.845887
1631192847981,-0.457622,0.241194,-0.845704
1631192847991,-0.457195,0.239669,-0.845704
1631192848001,-0.456646,0.238754,-0.845521
1631192848010,-0.456036,0.23863199999999998,-0.84668
1631192848020,-0.456524,0.239059,-0.847351
1631192848029,-0.456524,0.239364,-0.8480219999999999
1631192848039,-0.455243,0.240584,-0.848876
1631192848049,-0.455243,0.240035,-0.847778
1631192848058,-0.45475499999999996,0.240706,-0.847595
1631192848068,-0.455426,0.240096,-0.84729
1631192848077,-0.454511,0.239974,-0.8474119999999999
1631192848087,-0.453413,0.238571,-0.8471069999999999
1631192848097,-0.454389,0.23893699999999998,-0.849059
1631192848106,-0.454206,0.238388,-0.849974
1631192848116,-0.45414499999999997,0.239059,-0.85156
1631192848125,-0.453596,0.240035,-0.852048
1631192848135,-0.45261999999999997,0.24046199999999998,-0.8519869999999999
1631192848145,-0.452254,0.241987,-0.851804
1631192848154,-0.45109499999999997,0.242902,-0.853024
1631192848164,-0.450668,0.241316,-0.853451
1631192848173,-0.449021,0.23973,-0.853146
1631192848183,-0.448167,0.239974,-0.8501569999999999
1631192848193,-0.44804499999999997,0.240096,-0.847046
1631192848202,-0.447618,0.23924199999999998,-0.846863
1631192848212,-0.447862,0.241255,-0.848754
1631192848221,-0.44652,0.243756,-0.8547319999999999
1631192848231,-0.44334799999999996,0.245159,-0.85949
1631192848241,-0.442799,0.244732,-0.861686
1631192848250,-0.443226,0.241926,-0.8602219999999999
1631192848260,-0.444202,0.240096,-0.857416
1631192848269,-0.44408,0.23912,-0.85522
1631192848279,-0.444812,0.236558,-0.8522919999999999
1631192848289,-0.444019,0.23649699999999999,-0.851194
1631192848298,-0.441945,0.235094,-0.849608
1631192848308,-0.440847,0.235094,-0.84973
1631192848317,-0.439749,0.235643,-0.850706
1631192848327,-0.439871,0.236009,-0.852719
1631192848337,-0.438712,0.236314,-0.8538169999999999
1631192848346,-0.43785799999999997,0.236985,-0.8565619999999999
1631192848356,-0.438041,0.237351,-0.855586
1631192848365,-0.439749,0.236436,-0.8547319999999999
1631192848375,-0.4392,0.237168,-0.852841
1631192848385,-0.43907799999999997,0.236375,-0.852719
1631192848394,-0.440725,0.237229,-0.851316
1631192848404,-0.44090799999999997,0.237656,-0.851316
1631192848413,-0.441091,0.238449,-0.8538169999999999
1631192848423,-0.43981,0.238998,-0.853756
1631192848433,-0.441762,0.240523,-0.855098
1631192848442,-0.44103,0.240706,-0.857355
1631192848452,-0.440115,0.241194,-0.8586969999999999
1631192848461,-0.440786,0.23954699999999998,-0.856135
1631192848471,-0.44225,0.238815,-0.85461
1631192848481,-0.441335,0.239608,-0.854305
1631192848490,-0.44060299999999997,0.240401,-0.8553419999999999
1631192848500,-0.438712,0.241621,-0.8553419999999999
1631192848509,-0.438041,0.24143799999999999,-0.857416
1631192848519,-0.43663799999999997,0.241133,-0.860344
1631192848529,-0.43615,0.240645,-0.860161
1631192848538,-0.43554,0.240096,-0.861198
1631192848548,-0.434686,0.240218,-0.86132
1631192848557,-0.432917,0.238144,-0.861381
1631192848567,-0.433161,0.23771699999999998,-0.860466
1631192848577,-0.432124,0.23619199999999999,-0.860344
1631192848586,-0.43011099999999997,0.235277,-0.860344
1631192848596,-0.430172,0.234423,-0.86071
1631192848605,-0.429745,0.232105,-0.861625
1631192848615,-0.42980599999999997,0.232105,-0.862296
1631192848625,-0.427915,0.231983,-0.863516
1631192848634,-0.427244,0.232227,-0.86437
1631192848644,-0.427732,0.23241,-0.864736
1631192848653,-0.426329,0.23338599999999998,-0.864553
1631192848663,-0.425902,0.23338599999999998,-0.865346
1631192848673,-0.42523099999999997,0.233508,-0.866322
1631192848682,-0.424987,0.233325,-0.865346
1631192848692,-0.424499,0.23424,-0.865773
1631192848701,-0.424804,0.234545,-0.865712
1631192848711,-0.424499,0.233203,-0.865651
1631192848721,-0.42370599999999997,0.234362,-0.865041
1631192848730,-0.422425,0.234362,-0.864736
1631192848740,-0.42273,0.233874,-0.865834
1631192848749,-0.422913,0.233142,-0.865956
1631192848759,-0.421388,0.232898,-0.864248
1631192848769,-0.420595,0.232959,-0.8632719999999999
1631192848778,-0.420534,0.231739,-0.8629669999999999
1631192848788,-0.421144,0.23119,-0.863516
1631192848797,-0.421327,0.231373,-0.863089
1631192848807,-0.421144,0.230824,-0.863028
1631192848817,-0.422242,0.23094599999999998,-0.863638
1631192848826,-0.421876,0.231068,-0.864126
1631192848836,-0.422303,0.23094599999999998,-0.864919
1631192848845,-0.422364,0.230824,-0.864248
1631192848855,-0.423035,0.231434,-0.86376
1631192848865,-0.422486,0.230458,-0.864431
1631192848874,-0.422852,0.230519,-0.865041
1631192848884,-0.422852,0.230824,-0.865529
1631192848893,-0.42334,0.230092,-0.866261
1631192848903,-0.422669,0.23064099999999998,-0.865529
1631192848913,-0.424194,0.23094599999999998,-0.866749
1631192848922,-0.423279,0.230824,-0.866566
1631192848932,-0.422608,0.232715,-0.86681
1631192848941,-0.42340099999999997,0.231434,-0.867115
1631192848951,-0.422852,0.230824,-0.866688
1631192848961,-0.423035,0.230092,-0.86864
1631192848970,-0.423279,0.229665,-0.867664
1631192848980,-0.422364,0.228628,-0.868579
1631192848989,-0.422608,0.227347,-0.868091
1631192848999,-0.421327,0.22752999999999998,-0.86681
1631192849009,-0.421571,0.228567,-0.865529
1631192849018,-0.420534,0.228323,-0.8632719999999999
1631192849028,-0.420961,0.229482,-0.86254
1631192849037,-0.420046,0.229787,-0.86254
1631192849047,-0.419741,0.229543,-0.863333
1631192849057,-0.418277,0.22813999999999998,-0.864614
1631192849066,-0.41961899999999996,0.228872,-0.8635769999999999
1631192849076,-0.419558,0.229604,-0.864858
1631192849085,-0.420778,0.230519,-0.86559
1631192849095,-0.42309599999999997,0.22997,-0.866627
1631192849105,-0.422852,0.228994,-0.865956
1631192849114,-0.42212,0.22936,-0.865895
1631192849124,-0.42212,0.230824,-0.865285
1631192849133,-0.423157,0.23302,-0.866688
1631192849143,-0.422913,0.235399,-0.86925
1631192849153,-0.421388,0.23729,-0.872788
1631192849162,-0.422181,0.236009,-0.874435
1631192849172,-0.421754,0.233569,-0.8751059999999999
1631192849181,-0.420412,0.231434,-0.875594
1631192849191,-0.421693,0.230153,-0.873154
1631192849201,-0.423828,0.22972599999999999,-0.8702259999999999
1631192849210,-0.424133,0.228628,-0.86803
1631192849220,-0.422974,0.228689,-0.865651
1631192849229,-0.422547,0.228872,-0.863821
1631192849239,-0.423218,0.23003099999999999,-0.861869
1631192849249,-0.422242,0.229848,-0.859734
1631192849258,-0.420412,0.230885,-0.861991
1631192849268,-0.41992399999999996,0.232105,-0.865163
1631192849277,-0.420534,0.231434,-0.8662
1631192849287,-0.421205,0.231434,-0.86742
1631192849297,-0.422242,0.23119,-0.867481
1631192849306,-0.42395,0.231007,-0.866322
1631192849316,-0.42492599999999997,0.23277599999999998,-0.867176
1631192849325,-0.424987,0.233447,-0.866139
1631192849335,-0.42578,0.233447,-0.8662
1631192849345,-0.42675599999999997,0.235033,-0.86803
1631192849354,-0.426573,0.23607,-0.86864
1631192849364,-0.426939,0.23588699999999999,-0.867298
1631192849373,-0.426878,0.23924199999999998,-0.86681
1631192849383,-0.426878,0.239974,-0.867664
1631192849393,-0.425963,0.240401,-0.866078
1631192849402,-0.42767099999999997,0.239425,-0.86315
1631192849412,-0.428098,0.239791,-0.861808
1631192849421,-0.425719,0.239364,-0.861686
1631192849431,-0.426634,0.24046199999999998,-0.859734
1631192849441,-0.427183,0.241926,-0.859185
1631192849450,-0.426878,0.243146,-0.86132
1631192849460,-0.426329,0.24174299999999999,-0.861198
1631192849469,-0.42645099999999997,0.241011,-0.86071
1631192849479,-0.426634,0.241072,-0.860771
1631192849489,-0.428159,0.24046199999999998,-0.859551
1631192849498,-0.42767099999999997,0.23924199999999998,-0.858636
1631192849508,-0.42858599999999997,0.238449,-0.857904
1631192849517,-0.42919599999999997,0.236741,-0.857111
1631192849527,-0.429623,0.236741,-0.857355
1631192849537,-0.42889099999999997,0.235948,-0.859795
1631192849546,-0.42944,0.23607,-0.861503
1631192849556,-0.42980599999999997,0.235094,-0.862601
1631192849565,-0.429623,0.235216,-0.863211
1631192849575,-0.430233,0.233874,-0.86376
1631192849585,-0.430538,0.232898,-0.864004
1631192849594,-0.431148,0.232044,-0.863089
1631192849604,-0.431087,0.231129,-0.862296
1631192849613,-0.43127,0.230885,-0.8614419999999999
1631192849623,-0.430843,0.229848,-0.8614419999999999
1631192849633,-0.430782,0.23003099999999999,-0.861381
1631192849642,-0.430538,0.229787,-0.86132
1631192849652,-0.429684,0.227896,-0.860405
1631192849661,-0.43005,0.226554,-0.860588
1631192849671,-0.43011099999999997,0.226798,-0.861991
1631192849681,-0.429257,0.22508999999999998,-0.8620519999999999
1631192849690,-0.42828099999999997,0.224297,-0.862784
1631192849700,-0.42919599999999997,0.223626,-0.862723
1631192849709,-0.42889099999999997,0.223992,-0.8626619999999999
1631192849719,-0.430172,0.223687,-0.8614419999999999
1631192849729,-0.429257,0.22265,-0.861381
1631192849738,-0.429684,0.221796,-0.861259
1631192849748,-0.43127,0.219966,-0.862235
1631192849757,-0.431087,0.219783,-0.862418
1631192849767,-0.432368,0.219478,-0.8626619999999999
1631192849777,-0.43249,0.22045399999999998,-0.864675
1631192849786,-0.432917,0.220637,-0.865468
1631192849796,-0.433222,0.22136899999999998,-0.865224
1631192849805,-0.433588,0.223504,-0.866322
1631192849815,-0.433954,0.22386999999999999,-0.866383
1631192849825,-0.434442,0.223199,-0.866139
1631192849834,-0.435174,0.222894,-0.864126
1631192849844,-0.434564,0.22356499999999999,-0.864248
1631192849853,-0.434442,0.223809,-0.865224
1631192849863,-0.433832,0.22265,-0.865041
1631192849873,-0.433222,0.222528,-0.864004
1631192849882,-0.43224599999999996,0.221613,-0.863821
1631192849892,-0.43188,0.22265,-0.8629669999999999
1631192849901,-0.431575,0.222772,-0.862906
1631192849911,-0.432002,0.223748,-0.8629669999999999
1631192849921,-0.43249,0.223016,-0.8629669999999999
1631192849930,-0.433283,0.22228399999999998,-0.863394
1631192849940,-0.433649,0.223138,-0.863211
1631192849949,-0.434869,0.222528,-0.862723
1631192849959,-0.434442,0.220576,-0.8632719999999999
1631192849969,-0.43432,0.22106399999999998,-0.863699
1631192849978,-0.435174,0.220698,-0.864614
1631192849988,-0.435845,0.221552,-0.865468
1631192849997,-0.435662,0.220942,-0.8651019999999999
1631192850007,-0.43676,0.220576,-0.866383
1631192850017,-0.436089,0.218746,-0.8644919999999999
1631192850026,-0.437004,0.218746,-0.8632719999999999
1631192850036,-0.437492,0.218685,-0.863089
1631192850045,-0.43907799999999997,0.217282,-0.862113
1631192850055,-0.43859,0.217831,-0.86254
1631192850065,-0.437675,0.218685,-0.861076
1631192850074,-0.437736,0.220271,-0.859185
1631192850084,-0.439566,0.222223,-0.858514
1631192850093,-0.439139,0.223992,-0.8599169999999999
1631192850103,-0.43938299999999997,0.224663,-0.863028
1631192850113,-0.43846799999999997,0.224602,-0.863638
1631192850122,-0.440359,0.225578,-0.863394
1631192850132,-0.440176,0.223992,-0.863821
1631192850141,-0.43999299999999997,0.221857,-0.862723
1631192850151,-0.442067,0.221125,-0.86132
1631192850161,-0.442494,0.21953899999999998,-0.859734
1631192850170,-0.441762,0.21777,-0.85827
1631192850180,-0.441335,0.216611,-0.857111
1631192850189,-0.443104,0.217526,-0.8556469999999999
1631192850199,-0.442189,0.21801399999999999,-0.855281
1631192850209,-0.442616,0.213195,-0.857416
1631192850218,-0.44164,0.213744,-0.859063
1631192850228,-0.441945,0.212646,-0.8599169999999999
1631192850237,-0.443226,0.211609,-0.860039
1631192850247,-0.4453,0.212646,-0.860771
1631192850257,-0.447496,0.214232,-0.858514
1631192850266,-0.44743499999999997,0.211792,-0.857721
1631192850276,-0.446886,0.215391,-0.85583
1631192850285,-0.450973,0.22386999999999999,-0.856013
1631192850295,-0.454023,0.222162,-0.8562569999999999
1631192850305,-0.448716,0.21289,-0.85705
1631192850314,-0.446703,0.215696,-0.856501
1631192850324,-0.448289,0.220088,-0.8601
1631192850333,-0.449326,0.223504,-0.8601
1631192850343,-0.450241,0.224724,-0.857294
1631192850353,-0.451217,0.224297,-0.856013
1631192850362,-0.449692,0.222894,-0.856684
1631192850372,-0.447618,0.221125,-0.856989
1631192850381,-0.44804499999999997,0.22082,-0.85522
1631192850391,-0.445666,0.222406,-0.857233
1631192850401,-0.44286,0.221552,-0.8623569999999999
1631192850410,-0.446459,0.220942,-0.861076
1631192850420,-0.449326,0.222345,-0.856196
1631192850429,-0.45200999999999997,0.222528,-0.85034
1631192850439,-0.451644,0.22386999999999999,-0.85095
1631192850449,-0.451461,0.228506,-0.853146
1631192850458,-0.451949,0.231495,-0.852231
1631192850468,-0.45231499999999997,0.232593,-0.853146
1631192850477,-0.452071,0.229909,-0.852353
1631192850487,-0.44712999999999997,0.227957,-0.8577819999999999
1631192850497,-0.447801,0.229177,-0.856928
1631192850506,-0.44926499999999997,0.230092,-0.85827
1631192850516,-0.45139999999999997,0.229299,-0.857538
1631192850525,-0.445666,0.225578,-0.858819
1631192850535,-0.44804499999999997,0.225273,-0.85644
1631192850545,-0.44743499999999997,0.223321,-0.856684
1631192850554,-0.447069,0.224968,-0.855403
1631192850564,-0.447069,0.227164,-0.854549
1631192850573,-0.448411,0.229848,-0.8535119999999999
1631192850583,-0.444873,0.240401,-0.853268
1631192850593,-0.441884,0.244305,-0.855098
1631192850602,-0.446398,0.234972,-0.855708
1631192850612,-0.445544,0.23241,-0.854244
1631192850621,-0.446154,0.233874,-0.8522919999999999
1631192850631,-0.447618,0.23485,-0.8498519999999999
1631192850641,-0.444507,0.23546,-0.851865
1631192850650,-0.445666,0.239303,-0.8495469999999999
1631192850660,-0.4453,0.240767,-0.848388
1631192850669,-0.44804499999999997,0.241133,-0.845765
1631192850679,-0.446032,0.23973,-0.8483269999999999
1631192850689,-0.446703,0.23863199999999998,-0.849059
1631192850698,-0.446581,0.238449,-0.84912
1631192850708,-0.447069,0.237839,-0.8492419999999999
1631192850717,-0.448228,0.238266,-0.84973
1631192850727,-0.449631,0.23863199999999998,-0.849669
1631192850737,-0.450424,0.24034,-0.848876
1631192850746,-0.44956999999999997,0.238205,-0.8498519999999999
1631192850756,-0.450241,0.23771699999999998,-0.850706
1631192850765,-0.450058,0.235399,-0.851194
1631192850775,-0.451644,0.235704,-0.850584
1631192850785,-0.451583,0.233508,-0.8513769999999999
1631192850794,-0.451888,0.23338599999999998,-0.852353
1631192850804,-0.45261999999999997,0.233935,-0.851804
1631192850813,-0.452986,0.234911,-0.851926
1631192850823,-0.45200999999999997,0.230519,-0.852231
1631192850833,-0.45109499999999997,0.23119,-0.852231
1631192850842,-0.452742,0.234667,-0.850828
1631192850852,-0.452132,0.235033,-0.851194
1631192850861,-0.452071,0.233874,-0.8507669999999999
1631192850871,-0.45170499999999997,0.232044,-0.849974
1631192850881,-0.452803,0.23241,-0.85034
1631192850890,-0.452071,0.230092,-0.851316
1631192850900,-0.452681,0.23058,-0.852475
1631192850909,-0.452864,0.23033599999999999,-0.852414
1631192850919,-0.452864,0.231068,-0.851926
1631192850929,-0.45353499999999997,0.230092,-0.853085
1631192850938,-0.453352,0.230885,-0.852109
1631192850948,-0.453718,0.23064099999999998,-0.8519869999999999
1631192850957,-0.454084,0.230275,-0.852353
1631192850967,-0.452376,0.229665,-0.8529019999999999
1631192850977,-0.452498,0.229604,-0.8501569999999999
1631192850986,-0.453108,0.231129,-0.848205
1631192850996,-0.45322999999999997,0.23241,-0.847778
1631192851005,-0.452742,0.234545,-0.851133
1631192851015,-0.451766,0.23588699999999999,-0.8553419999999999
1631192851025,-0.452071,0.23729,-0.8571719999999999
1631192851034,-0.452376,0.237351,-0.8577819999999999
1631192851044,-0.451827,0.235155,-0.857904
1631192851053,-0.452742,0.233264,-0.855586
1631192851063,-0.453474,0.23125099999999998,-0.852475
1631192851073,-0.452986,0.23064099999999998,-0.851011
1631192851082,-0.451949,0.231129,-0.849913
1631192851092,-0.450546,0.229787,-0.848083
1631192851101,-0.45048499999999997,0.22997,-0.846314
1631192851111,-0.44987499999999997,0.23033599999999999,-0.845765
1631192851121,-0.449082,0.230824,-0.847046
1631192851130,-0.447862,0.230397,-0.850584
1631192851140,-0.449204,0.231007,-0.853268
1631192851149,-0.450668,0.22936,-0.852475
1631192851159,-0.45048499999999997,0.22972599999999999,-0.851804
1631192851169,-0.450729,0.229482,-0.849669
1631192851178,-0.452132,0.231312,-0.848693
1631192851188,-0.45109499999999997,0.233935,-0.849486
1631192851197,-0.451644,0.235399,-0.849059
1631192851207,-0.453718,0.235826,-0.849608
1631192851217,-0.452681,0.237656,-0.851011
1631192851226,-0.453474,0.238571,-0.8516819999999999
1631192851236,-0.451827,0.2379,-0.853451
1631192851245,-0.452681,0.237595,-0.851133
1631192851255,-0.453352,0.236741,-0.850401
1631192851265,-0.452071,0.237168,-0.851438
1631192851274,-0.451339,0.235338,-0.851255
1631192851284,-0.451217,0.235277,-0.849913
1631192851293,-0.451461,0.23668,-0.8498519999999999
1631192851303,-0.450668,0.237046,-0.852414
1631192851313,-0.449997,0.235826,-0.853451
1631192851322,-0.450729,0.234789,-0.853329
1631192851332,-0.451461,0.235216,-0.852841
1631192851341,-0.450363,0.233264,-0.853146
1631192851351,-0.450668,0.234667,-0.853024
1631192851361,-0.451827,0.233325,-0.85278
1631192851370,-0.451766,0.232593,-0.851438
1631192851380,-0.450546,0.2318,-0.85156
1631192851389,-0.449143,0.2318,-0.85217
1631192851399,-0.45017999999999997,0.231678,-0.853146
1631192851409,-0.45078999999999997,0.23155599999999998,-0.853878
1631192851418,-0.450546,0.23119,-0.854061
1631192851428,-0.450912,0.23094599999999998,-0.853451
1631192851437,-0.45139999999999997,0.23277599999999998,-0.852963
1631192851447,-0.450424,0.233874,-0.854488
1631192851457,-0.450851,0.233813,-0.853573
1631192851466,-0.451339,0.234789,-0.853146
1631192851476,-0.45109499999999997,0.234057,-0.853268
1631192851485,-0.451339,0.233752,-0.852109
1631192851495,-0.45078999999999997,0.233325,-0.8510719999999999
1631192851505,-0.450119,0.234179,-0.85034
1631192851514,-0.44926499999999997,0.232593,-0.850279
1631192851524,-0.44987499999999997,0.23277599999999998,-0.85034
1631192851533,-0.44987499999999997,0.23247099999999998,-0.849608
1631192851543,-0.450912,0.232654,-0.849791
1631192851553,-0.45017999999999997,0.23155599999999998,-0.84912
1631192851562,-0.45017999999999997,0.22997,-0.849791
1631192851572,-0.450363,0.228628,-0.850096
1631192851581,-0.45078999999999997,0.228323,-0.850096
1631192851591,-0.451217,0.22783499999999998,-0.850523
1631192851601,-0.45109499999999997,0.22722499999999998,-0.851255
1631192851610,-0.451156,0.227164,-0.852658
1631192851620,-0.451156,0.227408,-0.851743
1631192851629,-0.45261999999999997,0.227164,-0.851194
1631192851639,-0.453169,0.22691999999999998,-0.851133
1631192851649,-0.452498,0.226981,-0.851621
1631192851658,-0.45292499999999997,0.228323,-0.85278
1631192851668,-0.453169,0.22875,-0.852048
1631192851677,-0.453901,0.228933,-0.852353
1631192851687,-0.45383999999999997,0.229299,-0.852536
1631192851697,-0.454023,0.229299,-0.852109
1631192851706,-0.453901,0.228262,-0.851499
1631192851716,-0.453779,0.22875,-0.8516819999999999
1631192851725,-0.45353499999999997,0.227591,-0.850889
1631192851735,-0.453352,0.22661499999999998,-0.8516819999999999
1631192851745,-0.453474,0.226493,-0.8519869999999999
1631192851754,-0.451949,0.225883,-0.8525969999999999
1631192851764,-0.455243,0.225639,-0.8538169999999999
1631192851773,-0.454267,0.225334,-0.854061
1631192851783,-0.453291,0.22508999999999998,-0.853634
1631192851793,-0.454084,0.224846,-0.853573
1631192851802,-0.454084,0.226188,-0.853878
1631192851812,-0.454389,0.225273,-0.853878
1631192851821,-0.455182,0.22508999999999998,-0.8547319999999999
1631192851831,-0.454206,0.225639,-0.853939
1631192851841,-0.45444999999999997,0.226188,-0.852841
1631192851850,-0.454023,0.227286,-0.85095
1631192851860,-0.454511,0.22942099999999999,-0.850401
1631192851869,-0.453962,0.232898,-0.851133
1631192851879,-0.452132,0.23430099999999998,-0.854976
1631192851889,-0.45139999999999997,0.236253,-0.85705
1631192851898,-0.449326,0.235094,-0.857233
1631192851908,-0.451583,0.23485,-0.857111
1631192851917,-0.45261999999999997,0.231678,-0.856074
1631192851927,-0.45353499999999997,0.228994,-0.853146
1631192851937,-0.454938,0.228506,-0.84851
1631192851946,-0.45170499999999997,0.228262,-0.848083
1631192851956,-0.450546,0.226249,-0.8471069999999999
1631192851965,-0.449753,0.225944,-0.84668
1631192851975,-0.45017999999999997,0.226554,-0.846619
1631192851985,-0.449814,0.227652,-0.848876
1631192851994,-0.449814,0.227347,-0.851926
1631192852004,-0.448838,0.22691999999999998,-0.8541219999999999
1631192852013,-0.449082,0.227408,-0.853329
1631192852023,-0.450302,0.227713,-0.850828
1631192852033,-0.450912,0.22752999999999998,-0.8498519999999999
1631192852042,-0.452193,0.22752999999999998,-0.848388
1631192852052,-0.45200999999999997,0.230214,-0.847961
1631192852061,-0.452376,0.232044,-0.848998
1631192852071,-0.45383999999999997,0.233203,-0.849913
1631192852081,-0.45475499999999996,0.232654,-0.85095
1631192852090,-0.454328,0.233508,-0.853573
1631192852100,-0.454206,0.233813,-0.8529019999999999
1631192852109,-0.453596,0.232532,-0.852719
1631192852119,-0.454694,0.231434,-0.849608
1631192852129,-0.454206,0.231922,-0.850828
1631192852138,-0.453779,0.231312,-0.8513769999999999
1631192852148,-0.453474,0.230519,-0.848693
1631192852157,-0.454084,0.231129,-0.849059
1631192852167,-0.453169,0.230092,-0.8513769999999999
1631192852177,-0.452986,0.229238,-0.853024
1631192852186,-0.453596,0.229543,-0.85278
1631192852196,-0.453291,0.228567,-0.8529019999999999
1631192852205,-0.453718,0.228506,-0.852475
1631192852215,-0.452742,0.22844499999999998,-0.852109
1631192852225,-0.453169,0.228079,-0.851621
1631192852234,-0.454023,0.227713,-0.850828
1631192852244,-0.453413,0.227591,-0.851621
1631192852253,-0.453718,0.227591,-0.852719
1631192852263,-0.452437,0.22722499999999998,-0.852475
1631192852273,-0.453108,0.227774,-0.854183
1631192852282,-0.45322999999999997,0.227469,-0.853756
1631192852292,-0.454084,0.22813999999999998,-0.853634
1631192852301,-0.454267,0.22936,-0.854
1631192852311,-0.45322999999999997,0.22972599999999999,-0.854183
1631192852321,-0.453291,0.23058,-0.8538169999999999
1631192852330,-0.454084,0.23033599999999999,-0.853085
1631192852340,-0.453596,0.229787,-0.852109
1631192852349,-0.453291,0.229604,-0.851194
1631192852359,-0.452498,0.230397,-0.851316
1631192852369,-0.45139999999999997,0.229543,-0.850889
1631192852378,-0.452986,0.229116,-0.849608
1631192852388,-0.452864,0.22844499999999998,-0.849059
1631192852397,-0.452742,0.227042,-0.8507669999999999
1631192852407,-0.452559,0.228018,-0.850828
1631192852417,-0.45353499999999997,0.227774,-0.850706
1631192852426,-0.453291,0.226432,-0.850401
1631192852436,-0.453169,0.22691999999999998,-0.849303
1631192852445,-0.45261999999999997,0.227408,-0.8489369999999999
1631192852455,-0.45444999999999997,0.226676,-0.850584
1631192852465,-0.453779,0.226737,-0.850035
1631192852474,-0.454694,0.227042,-0.850889
1631192852484,-0.454816,0.229116,-0.850096
1631192852493,-0.45566999999999996,0.228018,-0.851804
1631192852503,-0.45658499999999996,0.227896,-0.851316
1631192852513,-0.455914,0.228384,-0.850584
1631192852522,-0.45566999999999996,0.228628,-0.851255
1631192852532,-0.455853,0.228567,-0.8504619999999999
1631192852541,-0.456402,0.228201,-0.850584
1631192852551,-0.456402,0.22691999999999998,-0.850401
1631192852561,-0.45597499999999996,0.228079,-0.851011
1631192852570,-0.455182,0.227164,-0.851255
1631192852580,-0.455731,0.22752999999999998,-0.851499
1631192852589,-0.455304,0.228018,-0.851621
1631192852599,-0.455182,0.226981,-0.850828
1631192852609,-0.45597499999999996,0.226432,-0.851743
1631192852618,-0.45536499999999996,0.22569999999999998,-0.851316
1631192852628,-0.45566999999999996,0.224602,-0.8516819999999999
1631192852637,-0.454999,0.22417499999999999,-0.850584
1631192852647,-0.455548,0.222772,-0.851804
1631192852657,-0.45536499999999996,0.22356499999999999,-0.85217
1631192852666,-0.45505999999999996,0.223382,-0.8532069999999999
1631192852676,-0.455853,0.22386999999999999,-0.853268
1631192852685,-0.45597499999999996,0.22478499999999998,-0.852719
1631192852695,-0.455792,0.226188,-0.8525969999999999
1631192852705,-0.455426,0.226066,-0.8525969999999999
1631192852714,-0.454816,0.225761,-0.852536
1631192852724,-0.455487,0.225822,-0.854
1631192852733,-0.455243,0.22630999999999998,-0.852414
1631192852743,-0.45414499999999997,0.22630999999999998,-0.84912
1631192852753,-0.455792,0.227896,-0.848083
1631192852762,-0.455609,0.23058,-0.849059
1631192852772,-0.45292499999999997,0.232898,-0.852719
1631192852781,-0.45292499999999997,0.23430099999999998,-0.8553419999999999
1631192852791,-0.453352,0.234118,-0.856928
1631192852801,-0.454267,0.23247099999999998,-0.857111
1631192852810,-0.453352,0.229848,-0.8559519999999999
1631192852820,-0.453474,0.226676,-0.852414
1631192852829,-0.455548,0.226554,-0.849059
1631192852839,-0.454877,0.226554,-0.847168
1631192852849,-0.453108,0.226066,-0.846985
1631192852858,-0.452376,0.22600499999999998,-0.8461919999999999
1631192852868,-0.453962,0.226066,-0.845948
1631192852877,-0.452864,0.226798,-0.846436
1631192852887,-0.45109499999999997,0.226981,-0.8498519999999999
1631192852897,-0.452193,0.22661499999999998,-0.8525969999999999
1631192852906,-0.452559,0.226432,-0.85217
1631192852916,-0.452986,0.226432,-0.85095
1631192852925,-0.452986,0.226737,-0.84973
1631192852935,-0.454206,0.227591,-0.847534
1631192852945,-0.455609,0.228506,-0.846619
1631192852954,-0.455487,0.23003099999999999,-0.8471069999999999
1631192852964,-0.45566999999999996,0.231617,-0.8489369999999999
1631192852973,-0.455487,0.23241,-0.850523
1631192852983,-0.456402,0.232959,-0.852841
1631192852993,-0.456951,0.23308099999999998,-0.8550369999999999
1631192853002,-0.456768,0.23186099999999998,-0.855159
1631192853012,-0.45688999999999996,0.22972599999999999,-0.8510719999999999
1631192853021,-0.457012,0.22936,-0.849181
1631192853031,-0.455121,0.229055,-0.850523
1631192853041,-0.454877,0.227774,-0.848998
1631192853050,-0.456219,0.228079,-0.848266
1631192853060,-0.45536499999999996,0.229055,-0.8501569999999999
1631192853069,-0.453962,0.227164,-0.851804
1631192853079,-0.454816,0.228689,-0.852475
1631192853089,-0.45505999999999996,0.227896,-0.85156
1631192853098,-0.45627999999999996,0.228262,-0.851499
1631192853108,-0.455121,0.227652,-0.851499
1631192853117,-0.454572,0.227469,-0.851804
1631192853127,-0.454694,0.22691999999999998,-0.850401
1631192853137,-0.455731,0.226066,-0.850889
1631192853146,-0.456036,0.225822,-0.851438
1631192853156,-0.454938,0.226798,-0.8522919999999999
1631192853165,-0.455731,0.22661499999999998,-0.85278
1631192853175,-0.45566999999999996,0.22630999999999998,-0.8525969999999999
1631192853185,-0.45505999999999996,0.227408,-0.853329
1631192853194,-0.455182,0.227286,-0.853756
1631192853204,-0.454816,0.22875,-0.853268
1631192853213,-0.455426,0.22844499999999998,-0.853329
1631192853223,-0.453962,0.228384,-0.8522919999999999
1631192853233,-0.454023,0.228018,-0.851743
1631192853242,-0.454084,0.227896,-0.851194
1631192853252,-0.454206,0.227652,-0.850401
1631192853261,-0.454511,0.227164,-0.849791
1631192853271,-0.453779,0.227286,-0.849791
1631192853281,-0.453047,0.22569999999999998,-0.849974
1631192853290,-0.454084,0.226554,-0.849608
1631192853300,-0.454084,0.226554,-0.849486
1631192853309,-0.45414499999999997,0.225517,-0.848876
1631192853319,-0.454084,0.225334,-0.848998
1631192853329,-0.453596,0.22569999999999998,-0.851194
1631192853338,-0.454328,0.22630999999999998,-0.850706
1631192853348,-0.45505999999999996,0.22569999999999998,-0.850035
1631192853357,-0.455792,0.225273,-0.849791
1631192853367,-0.455426,0.22447999999999999,-0.850096
1631192853377,-0.455426,0.225334,-0.850828
1631192853386,-0.455914,0.22569999999999998,-0.850889
1631192853396,-0.455853,0.226188,-0.851316
1631192853405,-0.456524,0.225822,-0.8513769999999999
1631192853415,-0.457134,0.225273,-0.852048
1631192853425,-0.456707,0.225334,-0.85156
1631192853434,-0.456402,0.22508999999999998,-0.852231
1631192853444,-0.457378,0.224846,-0.851438
1631192853453,-0.456829,0.223809,-0.851743
1631192853463,-0.457073,0.224602,-0.851316
1631192853473,-0.456402,0.224114,-0.851926
1631192853482,-0.456219,0.223809,-0.8510719999999999
1631192853492,-0.457256,0.223443,-0.851438
1631192853501,-0.457256,0.222406,-0.852048
1631192853511,-0.456524,0.221552,-0.852353
1631192853521,-0.456158,0.22197899999999998,-0.852109
1631192853530,-0.45627999999999996,0.22167399999999998,-0.8519869999999999
1631192853540,-0.457378,0.22228399999999998,-0.8522919999999999
1631192853549,-0.457256,0.223016,-0.8529019999999999
1631192853559,-0.456402,0.223809,-0.8532069999999999
1631192853569,-0.456768,0.223687,-0.852231
1631192853578,-0.457317,0.223992,-0.85217
1631192853588,-0.458171,0.22386999999999999,-0.852048
1631192853597,-0.457622,0.222772,-0.851438
1631192853607,-0.45597499999999996,0.223321,-0.851621
1631192853617,-0.456707,0.22326,-0.851438
1631192853626,-0.457134,0.223626,-0.8525969999999999
1631192853636,-0.456097,0.22478499999999998,-0.852719
1631192853645,-0.455548,0.225456,-0.8513769999999999
1631192853655,-0.455792,0.224602,-0.850523
1631192853665,-0.456707,0.224907,-0.849791
1631192853674,-0.456036,0.225151,-0.8498519999999999
1631192853684,-0.456036,0.223992,-0.850218
1631192853693,-0.456036,0.223504,-0.850706
1631192853703,-0.455304,0.223504,-0.8492419999999999
1631192853713,-0.456036,0.224968,-0.846924
1631192853722,-0.457439,0.226432,-0.847656
1631192853732,-0.457683,0.229665,-0.85034
1631192853741,-0.455426,0.231373,-0.854
1631192853751,-0.454877,0.231312,-0.8565619999999999
1631192853761,-0.455243,0.231678,-0.856074
1631192853770,-0.455426,0.229482,-0.85705
1631192853780,-0.455548,0.227103,-0.854793
1631192853789,-0.457073,0.224968,-0.850584
1631192853799,-0.457927,0.224968,-0.8477169999999999
1631192853809,-0.455182,0.22447999999999999,-0.846009
1631192853818,-0.454938,0.224602,-0.844606
1631192853828,-0.454328,0.224114,-0.84485
1631192853837,-0.454511,0.223748,-0.84607
1631192853847,-0.454267,0.222711,-0.848998
1631192853857,-0.454999,0.222406,-0.8522919999999999
1631192853866,-0.453474,0.221796,-0.854244
1631192853876,-0.455243,0.220942,-0.8544269999999999
1631192853885,-0.454328,0.220393,-0.8529019999999999
1631192853895,-0.455121,0.220576,-0.850035
1631192853905,-0.456463,0.222162,-0.848449
1631192853914,-0.45658499999999996,0.22326,-0.848815
1631192853924,-0.457744,0.22569999999999998,-0.850035
1631192853933,-0.457988,0.226981,-0.8510719999999999
1631192853943,-0.457439,0.22875,-0.852658
1631192853953,-0.457683,0.228506,-0.854488
1631192853962,-0.458598,0.228384,-0.8538169999999999
1631192853972,-0.457744,0.227164,-0.855464
1631192853981,-0.457622,0.225456,-0.851865
1631192853991,-0.458232,0.225029,-0.849974
1631192854001,-0.456158,0.225761,-0.850279
1631192854010,-0.455548,0.225273,-0.8483269999999999
1631192854020,-0.45658499999999996,0.225639,-0.847168
1631192854029,-0.456036,0.225212,-0.849913
1631192854039,-0.454572,0.225822,-0.851316
1631192854049,-0.455731,0.225578,-0.8525969999999999
1631192854058,-0.455243,0.226066,-0.852414
1631192854068,-0.456768,0.22600499999999998,-0.85095
1631192854077,-0.456036,0.226188,-0.851194
1631192854087,-0.456097,0.226249,-0.851011
1631192854097,-0.456463,0.225212,-0.850035
1631192854106,-0.456524,0.22539499999999998,-0.850035
1631192854116,-0.455792,0.225822,-0.851499
1631192854125,-0.456524,0.225944,-0.85278
1631192854135,-0.455243,0.22630999999999998,-0.85278
1631192854145,-0.45536499999999996,0.226981,-0.8532069999999999
1631192854154,-0.455548,0.226981,-0.852414
1631192854164,-0.455609,0.226859,-0.853024
1631192854173,-0.455426,0.227347,-0.852109
1631192854183,-0.45444999999999997,0.227774,-0.852048
1631192854193,-0.454267,0.227896,-0.8513769999999999
1631192854202,-0.454877,0.22661499999999998,-0.85156
1631192854212,-0.454328,0.226798,-0.852109
1631192854221,-0.454328,0.226493,-0.850523
1631192854231,-0.454511,0.226127,-0.849913
1631192854241,-0.453779,0.225883,-0.849303
1631192854250,-0.45353499999999997,0.225761,-0.85034
1631192854260,-0.454206,0.225456,-0.84973
1631192854269,-0.454938,0.225456,-0.85095
1631192854279,-0.45475499999999996,0.224846,-0.850096
1631192854289,-0.454572,0.224968,-0.849974
1631192854298,-0.45475499999999996,0.224907,-0.850218
1631192854308,-0.45536499999999996,0.224602,-0.850645
1631192854317,-0.45536499999999996,0.223931,-0.8507669999999999
1631192854327,-0.455853,0.224358,-0.849974
1631192854337,-0.455426,0.224907,-0.850828
1631192854346,-0.457134,0.22508999999999998,-0.85095
1631192854356,-0.456768,0.22508999999999998,-0.851194
1631192854365,-0.457256,0.224968,-0.851438
1631192854375,-0.457866,0.224724,-0.851011
1631192854385,-0.457439,0.225517,-0.850889
1631192854394,-0.456829,0.225883,-0.8513769999999999
1631192854404,-0.458293,0.225578,-0.852109
1631192854413,-0.457378,0.224541,-0.851255
1631192854423,-0.457561,0.224053,-0.851194
1631192854433,-0.458171,0.224358,-0.85095
1631192854442,-0.457866,0.223321,-0.850828
1631192854452,-0.457744,0.222711,-0.8510719999999999
1631192854461,-0.4575,0.22326,-0.850523
1631192854471,-0.457195,0.22326,-0.851316
1631192854481,-0.457744,0.222833,-0.851194
1631192854490,-0.457378,0.222223,-0.8516819999999999
1631192854500,-0.457561,0.22197899999999998,-0.851865
1631192854509,-0.457927,0.221796,-0.8519869999999999
1631192854519,-0.457927,0.22106399999999998,-0.85156
1631192854529,-0.457378,0.222345,-0.852048
1631192854538,-0.457134,0.222772,-0.851804
1631192854548,-0.457012,0.22265,-0.852048
1631192854557,-0.456402,0.223138,-0.8529019999999999
1631192854567,-0.456341,0.22356499999999999,-0.85217
1631192854577,-0.45688999999999996,0.223382,-0.851499
1631192854586,-0.456219,0.225273,-0.8516819999999999
1631192854596,-0.455792,0.225151,-0.850828
1631192854605,-0.455426,0.225456,-0.850584
1631192854615,-0.455487,0.226127,-0.85034
1631192854625,-0.455609,0.225212,-0.8492419999999999
1631192854634,-0.455304,0.224602,-0.849486
1631192854644,-0.456402,0.224114,-0.849791
1631192854653,-0.456097,0.22386999999999999,-0.850218
1631192854663,-0.456524,0.22356499999999999,-0.850523
1631192854673,-0.456829,0.222711,-0.85156
1631192854682,-0.456402,0.223443,-0.851499
1631192854692,-0.456158,0.223809,-0.8507669999999999
1631192854701,-0.457012,0.223504,-0.849913
1631192854711,-0.457012,0.224541,-0.849913
1631192854721,-0.45658499999999996,0.225334,-0.8501569999999999
1631192854730,-0.456829,0.223748,-0.8510719999999999
1631192854740,-0.457073,0.223809,-0.8513769999999999
1631192854749,-0.456768,0.224236,-0.849364
1631192854759,-0.457073,0.225639,-0.847778
1631192854769,-0.459574,0.22752999999999998,-0.848876
1631192854778,-0.458354,0.23033599999999999,-0.851194
1631192854788,-0.45597499999999996,0.232288,-0.854854
1631192854797,-0.456402,0.2318,-0.8565619999999999
1631192854807,-0.457317,0.230763,-0.856806
1631192854817,-0.457073,0.228201,-0.856623
1631192854826,-0.457744,0.22508999999999998,-0.85339
1631192854836,-0.458171,0.223931,-0.849364
1631192854845,-0.45884199999999997,0.223016,-0.847229
1631192854855,-0.456707,0.22265,-0.845643
1631192854865,-0.455487,0.22204,-0.845887
1631192854874,-0.454694,0.221613,-0.846253
1631192854884,-0.45444999999999997,0.22167399999999998,-0.847656
1631192854893,-0.454694,0.22106399999999998,-0.850096
1631192854903,-0.45505999999999996,0.220942,-0.852963
1631192854913,-0.454389,0.220576,-0.853634
1631192854922,-0.454694,0.220576,-0.852719
1631192854932,-0.45597499999999996,0.221186,-0.85217
1631192854941,-0.456524,0.222772,-0.849608
1631192854951,-0.456219,0.224602,-0.847534
1631192854961,-0.457683,0.225883,-0.8479
1631192854970,-0.457988,0.228506,-0.850096
1631192854980,-0.457927,0.229482,-0.85095
1631192854989,-0.458964,0.229482,-0.85278
1631192854999,-0.459086,0.228933,-0.853085
1631192855009,-0.459208,0.22936,-0.854
1631192855018,-0.458781,0.228628,-0.854183
1631192855028,-0.458903,0.227286,-0.850645
1631192855037,-0.458598,0.224968,-0.848388
1631192855047,-0.457988,0.22600499999999998,-0.8483269999999999
1631192855057,-0.456463,0.225151,-0.848815
1631192855066,-0.457073,0.225151,-0.846924
1631192855076,-0.456463,0.225456,-0.84912
1631192855085,-0.455731,0.225456,-0.851133
1631192855095,-0.456158,0.225517,-0.8516819999999999
1631192855105,-0.456341,0.22661499999999998,-0.852048
1631192855114,-0.45566999999999996,0.226798,-0.85095
1631192855124,-0.456524,0.227408,-0.850279
1631192855133,-0.45627999999999996,0.226798,-0.850279
1631192855143,-0.456463,0.227042,-0.849669
1631192855153,-0.456402,0.22630999999999998,-0.850706
1631192855162,-0.45627999999999996,0.226249,-0.85095
1631192855172,-0.454938,0.226493,-0.85156
1631192855181,-0.45597499999999996,0.226798,-0.8529019999999999
1631192855191,-0.45627999999999996,0.226859,-0.853268
1631192855201,-0.45536499999999996,0.22630999999999998,-0.85278
1631192855210,-0.454816,0.227103,-0.853024
1631192855220,-0.454633,0.226676,-0.8532069999999999
1631192855229,-0.454328,0.226859,-0.8529019999999999
1631192855239,-0.453474,0.226249,-0.8522919999999999
1631192855249,-0.454816,0.226371,-0.8510719999999999
1631192855258,-0.45444999999999997,0.225761,-0.850706
1631192855268,-0.454023,0.226188,-0.850523
1631192855277,-0.453657,0.226249,-0.850218
1631192855287,-0.453596,0.22600499999999998,-0.850523
1631192855297,-0.455182,0.226676,-0.8501569999999999
1631192855306,-0.455548,0.225761,-0.850218
1631192855316,-0.454633,0.226249,-0.850645
1631192855325,-0.453962,0.225822,-0.850035
1631192855335,-0.455304,0.225334,-0.84973
1631192855345,-0.456219,0.225212,-0.850828
1631192855354,-0.456097,0.225212,-0.850218
1631192855364,-0.45688999999999996,0.225517,-0.849669
1631192855373,-0.457317,0.225151,-0.849364
1631192855383,-0.457622,0.225273,-0.8501569999999999
1631192855393,-0.458415,0.225334,-0.850523
1631192855402,-0.457744,0.22539499999999998,-0.8510719999999999
1631192855412,-0.458537,0.225944,-0.849486
1631192855421,-0.458781,0.226066,-0.850218
1631192855431,-0.458354,0.22539499999999998,-0.849791
1631192855441,-0.457622,0.225944,-0.8501569999999999
1631192855450,-0.458537,0.226188,-0.850279
1631192855460,-0.458354,0.225822,-0.850401
1631192855469,-0.458293,0.22508999999999998,-0.8507669999999999
1631192855479,-0.458598,0.224663,-0.849974
1631192855489,-0.45884199999999997,0.224663,-0.850706
1631192855498,-0.458659,0.22356499999999999,-0.85034
1631192855508,-0.458232,0.223199,-0.851255
1631192855517,-0.458293,0.222711,-0.851011
1631192855527,-0.458232,0.22204,-0.8519869999999999
1631192855537,-0.457683,0.221918,-0.851499
1631192855546,-0.458171,0.221796,-0.85156
1631192855556,-0.458232,0.221247,-0.852048
1631192855565,-0.458171,0.22045399999999998,-0.852048
1631192855575,-0.457622,0.221552,-0.85217
1631192855585,-0.4575,0.222101,-0.852048
1631192855594,-0.457256,0.222406,-0.8522919999999999
1631192855604,-0.4575,0.222345,-0.851255
1631192855613,-0.458354,0.224114,-0.851865
1631192855623,-0.457378,0.225212,-0.851316
1631192855633,-0.456341,0.22539499999999998,-0.851316
1631192855642,-0.457317,0.223992,-0.850706
1631192855652,-0.456341,0.22478499999999998,-0.850706
1631192855661,-0.456402,0.224907,-0.850279
1631192855671,-0.457134,0.226676,-0.85034
1631192855681,-0.457378,0.225944,-0.849364
1631192855690,-0.457622,0.225273,-0.848754
1631192855700,-0.457622,0.224358,-0.8492419999999999
1631192855709,-0.456524,0.224602,-0.85034
1631192855719,-0.4575,0.22508999999999998,-0.850523
1631192855729,-0.458049,0.22417499999999999,-0.85156
1631192855738,-0.4575,0.223992,-0.851621
1631192855748,-0.4575,0.225334,-0.849486
1631192855757,-0.457317,0.225334,-0.84912
1631192855767,-0.457378,0.225944,-0.850401
1631192855777,-0.457744,0.225334,-0.850218
1631192855786,-0.458659,0.225151,-0.850584
1631192855796,-0.457805,0.225639,-0.8486319999999999
1631192855805,-0.457805,0.225761,-0.847229
1631192855815,-0.458964,0.227286,-0.846924
1631192855825,-0.459391,0.229055,-0.84851
1631192855834,-0.45688999999999996,0.231068,-0.853146
1631192855844,-0.45597499999999996,0.23155599999999998,-0.85705
1631192855853,-0.456768,0.23119,-0.856745
1631192855863,-0.457866,0.229299,-0.8559519999999999
1631192855873,-0.457134,0.226127,-0.8541219999999999
1631192855882,-0.459513,0.223809,-0.850645
1631192855892,-0.45872,0.22326,-0.847168
1631192855901,-0.457988,0.223992,-0.845521
1631192855911,-0.457317,0.22265,-0.845948
1631192855921,-0.45597499999999996,0.22228399999999998,-0.845277
1631192855930,-0.455731,0.222345,-0.846741
1631192855940,-0.45505999999999996,0.22228399999999998,-0.849181
1631192855949,-0.454938,0.222101,-0.852048
1631192855959,-0.456463,0.22167399999999998,-0.853451
1631192855969,-0.455853,0.221552,-0.852963
1631192855978,-0.456341,0.221552,-0.852109
1631192855988,-0.457195,0.221735,-0.850218
1631192855997,-0.4575,0.224236,-0.8479
1631192856007,-0.458964,0.22630999999999998,-0.847046
1631192856017,-0.45994,0.227774,-0.847961
1631192856026,-0.460123,0.22972599999999999,-0.849913
1631192856036,-0.460123,0.229848,-0.851133
1631192856045,-0.46055,0.230092,-0.852109
1631192856055,-0.460611,0.230824,-0.853146
1631192856065,-0.46006199999999997,0.230092,-0.853268
1631192856074,-0.45933,0.228323,-0.8519869999999999
1631192856084,-0.458964,0.225273,-0.8489369999999999
1631192856093,-0.458232,0.225883,-0.8471069999999999
1631192856103,-0.4575,0.225883,-0.8483269999999999
1631192856113,-0.457622,0.224846,-0.84851
1631192856122,-0.45688999999999996,0.226127,-0.8479
1631192856132,-0.4575,0.225944,-0.850889
1631192856141,-0.455609,0.226676,-0.8516819999999999
1631192856151,-0.455548,0.226066,-0.853756
1631192856161,-0.455426,0.226188,-0.8522919999999999
1631192856170,-0.455426,0.22661499999999998,-0.8507669999999999
1631192856180,-0.455182,0.227896,-0.8507669999999999
1631192856189,-0.455731,0.226859,-0.850096
1631192856199,-0.454389,0.226066,-0.850645
1631192856209,-0.454572,0.226188,-0.8510719999999999
1631192856218,-0.45383999999999997,0.224907,-0.852231
1631192856228,-0.453657,0.224968,-0.853329
1631192856237,-0.454023,0.22478499999999998,-0.854244
1631192856247,-0.45444999999999997,0.224236,-0.853878
1631192856257,-0.45383999999999997,0.22447999999999999,-0.853146
1631192856266,-0.453474,0.225578,-0.853329
1631192856276,-0.452376,0.224541,-0.854183
1631192856285,-0.45231499999999997,0.224724,-0.85278
1631192856295,-0.452681,0.224907,-0.853024
1631192856305,-0.452742,0.224968,-0.852048
1631192856314,-0.452132,0.224846,-0.85217
1631192856324,-0.453108,0.224602,-0.851316
1631192856333,-0.452437,0.223748,-0.851438
1631192856343,-0.453596,0.225639,-0.851438
1631192856353,-0.452132,0.225517,-0.8507669999999999
1631192856362,-0.453108,0.225151,-0.851621
1631192856372,-0.45414499999999997,0.225029,-0.851316
1631192856381,-0.455304,0.224541,-0.850889
1631192856391,-0.454328,0.223931,-0.851011
1631192856401,-0.455182,0.222772,-0.851194
1631192856410,-0.45597499999999996,0.223321,-0.850828
1631192856420,-0.455853,0.223748,-0.85156
1631192856429,-0.456158,0.224053,-0.851621
1631192856439,-0.457134,0.22386999999999999,-0.8513769999999999
1631192856449,-0.457561,0.224602,-0.8510719999999999
1631192856458,-0.457683,0.223382,-0.850889
1631192856468,-0.457561,0.22326,-0.8498519999999999
1631192856477,-0.458049,0.22417499999999999,-0.850218
1631192856487,-0.458354,0.22478499999999998,-0.850706
1631192856497,-0.457317,0.224663,-0.851194
1631192856506,-0.458659,0.224541,-0.85095
1631192856516,-0.459025,0.225029,-0.8501569999999999
1631192856525,-0.458781,0.224541,-0.850218
1631192856535,-0.457683,0.224114,-0.850218
1631192856545,-0.4575,0.223199,-0.8501569999999999
1631192856554,-0.458354,0.222528,-0.850828
1631192856564,-0.457866,0.22167399999999998,-0.85156
1631192856573,-0.457012,0.22136899999999998,-0.851743
1631192856583,-0.45872,0.221552,-0.852353
1631192856593,-0.45811,0.22045399999999998,-0.852109
1631192856602,-0.457744,0.22014899999999998,-0.8529019999999999
1631192856612,-0.458598,0.220637,-0.8519869999999999
1631192856621,-0.457988,0.221003,-0.852475
1631192856631,-0.457866,0.22075899999999998,-0.851438
1631192856641,-0.457866,0.22082,-0.851621
1631192856650,-0.458232,0.221552,-0.851926
1631192856660,-0.458232,0.221857,-0.851865
1631192856669,-0.457439,0.223016,-0.8507669999999999
1631192856679,-0.457256,0.223931,-0.8516819999999999
1631192856689,-0.456646,0.223626,-0.852353
1631192856698,-0.457256,0.22478499999999998,-0.851743
1631192856708,-0.457073,0.224236,-0.8507669999999999
1631192856717,-0.457012,0.223626,-0.850096
1631192856727,-0.457073,0.223504,-0.849913
1631192856737,-0.456402,0.223931,-0.84912
1631192856746,-0.456402,0.223748,-0.850401
1631192856756,-0.456646,0.223321,-0.851194
1631192856765,-0.456219,0.222955,-0.851316
1631192856775,-0.456097,0.224541,-0.851743
1631192856785,-0.457439,0.224358,-0.850035
1631192856794,-0.457134,0.224663,-0.849303
1631192856804,-0.456646,0.224602,-0.850096
1631192856813,-0.456341,0.223748,-0.850584
1631192856823,-0.457805,0.223809,-0.850706
1631192856833,-0.4575,0.224968,-0.850645
1631192856842,-0.457012,0.22630999999999998,-0.848876
1631192856852,-0.457988,0.227774,-0.847656
1631192856861,-0.457988,0.230153,-0.847656
1631192856871,-0.456402,0.231068,-0.851011
1631192856881,-0.455426,0.230824,-0.8556469999999999
1631192856890,-0.457012,0.231129,-0.855891
1631192856900,-0.456036,0.229299,-0.85522
1631192856909,-0.456768,0.227408,-0.854488
1631192856919,-0.457988,0.225273,-0.8492419999999999
1631192856929,-0.458598,0.223077,-0.844728
1631192856938,-0.457561,0.221308,-0.842044
1631192856948,-0.454877,0.2196,-0.841556
1631192856957,-0.454206,0.21716,-0.841312
1631192856967,-0.451766,0.217343,-0.841922
1631192856977,-0.451156,0.214537,-0.843874
1631192856986,-0.449326,0.213134,-0.84363
1631192856996,-0.44895999999999997,0.215574,-0.845155
1631192857005,-0.449997,0.21490299999999998,-0.845704
1631192857015,-0.449997,0.21892899999999998,-0.843386
1631192857025,-0.450607,0.223016,-0.8404579999999999
1631192857034,-0.451034,0.229848,-0.837164
1631192857044,-0.451583,0.23558199999999999,-0.835822
1631192857053,-0.452498,0.238815,-0.835029
1631192857063,-0.451766,0.241377,-0.8340529999999999
1631192857073,-0.451583,0.23985199999999998,-0.835456
1631192857082,-0.45109499999999997,0.233203,-0.838994
1631192857092,-0.451888,0.227042,-0.84363
1631192857101,-0.455121,0.221918,-0.8498519999999999
1631192857111,-0.455548,0.215025,-0.854183
1631192857121,-0.458476,0.2074,-0.85583
1631192857130,-0.46238,0.198372,-0.857416
1631192857140,-0.462136,0.187514,-0.863028
1631192857149,-0.46177,0.172142,-0.866932
1631192857159,-0.46177,0.154879,-0.874435
1631192857169,-0.45945199999999997,0.143228,-0.880108
1631192857178,-0.460184,0.131516,-0.8836459999999999
1631192857188,-0.46097699999999997,0.11870599999999999,-0.888587
1631192857197,-0.45884199999999997,0.107543,-0.893467
1631192857207,-0.458232,0.098088,-0.895541
1631192857217,-0.458415,0.090402,-0.897554
1631192857226,-0.459086,0.08588799999999999,-0.896639
1631192857236,-0.456768,0.07991,-0.894809
1631192857245,-0.456646,0.075884,-0.892674
1631192857255,-0.457195,0.071858,-0.892125
1631192857265,-0.455182,0.068503,-0.891759
1631192857274,-0.454267,0.064355,-0.892491
1631192857284,-0.452254,0.061975999999999996,-0.894138
1631192857293,-0.45109499999999997,0.063074,-0.894199
1631192857303,-0.450973,0.063196,-0.893345
1631192857313,-0.44926499999999997,0.064111,-0.892003
1631192857322,-0.449692,0.063135,-0.890478
1631192857332,-0.44956999999999997,0.061183,-0.890844
1631192857341,-0.446703,0.059414,-0.891332
1631192857351,-0.445544,0.060268,-0.8885259999999999
1631192857361,-0.445483,0.058804,-0.886574
1631192857370,-0.445666,0.058743,-0.88389
1631192857380,-0.442677,0.058011,-0.880962
1631192857389,-0.44286,0.057401,-0.87962
1631192857399,-0.442372,0.055205,-0.878583
1631192857409,-0.443226,0.055388,-0.8769359999999999
1631192857418,-0.44212799999999997,0.055205,-0.876204
1631192857428,-0.443226,0.054229,-0.8760209999999999
1631192857437,-0.44273799999999996,0.052337999999999996,-0.875533
1631192857447,-0.44347,0.050752,-0.874984
1631192857457,-0.444324,0.049715,-0.875472
1631192857466,-0.445056,0.049104999999999996,-0.874923
1631192857476,-0.44408,0.048678,-0.87596
1631192857485,-0.443897,0.049532,-0.877607
1631192857495,-0.445605,0.048983,-0.879437
1631192857505,-0.446764,0.049593,-0.88023
1631192857514,-0.447496,0.051362,-0.88206
1631192857524,-0.446886,0.052826,-0.883158
1631192857533,-0.448106,0.053924,-0.884439
1631192857543,-0.449326,0.056913,-0.8857809999999999
1631192857553,-0.449997,0.058438,-0.886757
1631192857562,-0.450546,0.061,-0.8866959999999999
1631192857572,-0.451156,0.064294,-0.8866959999999999
1631192857581,-0.450973,0.066307,-0.886452
1631192857591,-0.451888,0.067588,-0.8876109999999999
1631192857601,-0.452498,0.06831999999999999,-0.887672
1631192857610,-0.452437,0.070699,-0.886879
1631192857620,-0.453047,0.072468,-0.887062
1631192857629,-0.452986,0.074359,-0.887123
1631192857639,-0.452986,0.076372,-0.8870009999999999
1631192857649,-0.451644,0.078812,-0.885964
1631192857658,-0.452437,0.081923,-0.88633
1631192857668,-0.452681,0.084302,-0.885842
1631192857677,-0.45353499999999997,0.086315,-0.885598
1631192857687,-0.45322999999999997,0.08784,-0.885964
1631192857697,-0.452498,0.090707,-0.8860859999999999
1631192857706,-0.452986,0.094001,-0.885415
1631192857716,-0.451888,0.097051,-0.885354
1631192857725,-0.451949,0.10004,-0.8839509999999999
1631192857735,-0.450851,0.103578,-0.882914
1631192857745,-0.450424,0.10577399999999999,-0.882975
1631192857754,-0.449936,0.10614,-0.8815109999999999
1631192857764,-0.449509,0.105835,-0.881023
1631192857773,-0.448838,0.107787,-0.880962
1631192857783,-0.448228,0.10790899999999999,-0.88145
1631192857793,-0.447618,0.108824,-0.881084
1631192857802,-0.44743499999999997,0.109373,-0.880657
1631192857812,-0.447191,0.109861,-0.87901
1631192857821,-0.447313,0.108275,-0.87901
1631192857831,-0.445178,0.108092,-0.879315
1631192857841,-0.44652,0.10467599999999999,-0.878644
1631192857850,-0.445727,0.102297,-0.879315
1631192857860,-0.44426299999999996,0.10126,-0.87901
1631192857869,-0.443226,0.099796,-0.877363
1631192857879,-0.444385,0.099857,-0.8763259999999999
1631192857889,-0.443531,0.099613,-0.877363
1631192857898,-0.441701,0.099796,-0.8805959999999999
1631192857908,-0.439749,0.09790499999999999,-0.882853
1631192857917,-0.440847,0.097112,-0.885598
1631192857927,-0.43999299999999997,0.09394,-0.885415
1631192857937,-0.440786,0.08967,-0.885049
1631192857946,-0.44212799999999997,0.084912,-0.8821209999999999
1631192857956,-0.44225,0.080764,-0.880474
1631192857965,-0.44151799999999997,0.078568,-0.879132
1631192857975,-0.441945,0.079056,-0.876387
1631192857985,-0.43981,0.077043,-0.873703
1631192857994,-0.439566,0.075213,-0.8751059999999999
1631192858004,-0.43907799999999997,0.072651,-0.877973
1631192858013,-0.438529,0.069235,-0.882365
1631192858023,-0.438834,0.066307,-0.885842
1631192858033,-0.439871,0.06417199999999999,-0.88694
1631192858042,-0.44042,0.061975999999999996,-0.886574
1631192858052,-0.440847,0.060573,-0.885598
1631192858061,-0.441396,0.059475,-0.885903
1631192858071,-0.443409,0.060756,-0.883524
1631192858081,-0.444446,0.060756,-0.884073
1631192858090,-0.444995,0.060573,-0.884439
1631192858100,-0.446642,0.061426999999999995,-0.885903
1631192858109,-0.44682499999999997,0.06405,-0.886818
1631192858119,-0.44743499999999997,0.06478199999999999,-0.88755
1631192858129,-0.447374,0.067466,-0.888038
1631192858138,-0.447862,0.067527,-0.887672
1631192858148,-0.447496,0.067466,-0.885293
1631192858157,-0.44773999999999997,0.067832,-0.883707
1631192858167,-0.447923,0.069174,-0.884622
1631192858177,-0.448106,0.070272,-0.882487
1631192858186,-0.44773999999999997,0.072285,-0.88145
1631192858196,-0.446947,0.073383,-0.883524
1631192858205,-0.447862,0.074603,-0.885598
1631192858215,-0.44834999999999997,0.075518,-0.886452
1631192858225,-0.449936,0.076311,-0.8870009999999999
1631192858234,-0.450119,0.078995,-0.886208
1631192858244,-0.449326,0.0793,-0.8854759999999999
1631192858253,-0.450058,0.08174,-0.884744
1631192858263,-0.449326,0.082106,-0.883585
1631192858273,-0.449448,0.08418,-0.882609
1631192858282,-0.450058,0.08558299999999999,-0.883219
1631192858292,-0.45017999999999997,0.086559,-0.8845
1631192858301,-0.450058,0.08784,-0.884134
1631192858311,-0.44926499999999997,0.090219,-0.883524
1631192858321,-0.448716,0.09235399999999999,-0.883463
1631192858330,-0.449509,0.09455,-0.883097
1631192858340,-0.44895999999999997,0.096075,-0.8842559999999999
1631192858349,-0.449204,0.097661,-0.883829
1631192858359,-0.448899,0.100467,-0.882548
1631192858369,-0.447801,0.100467,-0.882792
1631192858378,-0.447862,0.101626,-0.8818159999999999
1631192858388,-0.44773999999999997,0.102541,-0.880352
1631192858397,-0.448594,0.102724,-0.881389
1631192858407,-0.44773999999999997,0.102175,-0.880352
1631192858417,-0.446703,0.10345599999999999,-0.880718
1631192858426,-0.446642,0.102114,-0.88084
1631192858436,-0.446032,0.102175,-0.880413
1631192858445,-0.446947,0.101382,-0.87962
1631192858455,-0.447374,0.101321,-0.878888
1631192858465,-0.44652,0.101321,-0.879559
1631192858474,-0.446764,0.100467,-0.879925
1631192858484,-0.446337,0.100162,-0.879864
1631192858493,-0.44652,0.100284,-0.879498
1631192858503,-0.446276,0.099979,-0.879254
1631192858513,-0.446398,0.09943,-0.87962
1631192858522,-0.446093,0.099613,-0.8799859999999999
1631192858532,-0.446459,0.09820999999999999,-0.87962
1631192858541,-0.446154,0.099064,-0.879803
1631192858551,-0.445361,0.098698,-0.879254
1631192858561,-0.445788,0.098576,-0.8796809999999999
1631192858570,-0.444751,0.097539,-0.878949
1631192858580,-0.444446,0.097112,-0.879254
1631192858589,-0.444873,0.097234,-0.8793759999999999
1631192858599,-0.444812,0.098027,-0.8787659999999999
1631192858609,-0.44456799999999996,0.098027,-0.879132
1631192858618,-0.44456799999999996,0.097722,-0.878522
1631192858628,-0.44408,0.09820999999999999,-0.879925
1631192858637,-0.44426299999999996,0.096929,-0.8799859999999999
1631192858647,-0.444751,0.096075,-0.880108
1631192858657,-0.444995,0.095221,-0.879559
1631192858666,-0.44469,0.09467199999999999,-0.880169
1631192858676,-0.444446,0.093879,-0.8793759999999999
1631192858685,-0.444934,0.093513,-0.879559
1631192858695,-0.444629,0.093452,-0.881145
1631192858705,-0.444812,0.093208,-0.881145
1631192858714,-0.443836,0.094489,-0.881938
1631192858724,-0.444934,0.094184,-0.881267
1631192858733,-0.445788,0.094428,-0.882304
1631192858743,-0.445483,0.094184,-0.881572
1631192858753,-0.44591,0.094489,-0.882182
1631192858762,-0.445056,0.09394,-0.881694
1631192858772,-0.445422,0.094123,-0.882548
1631192858781,-0.445605,0.094916,-0.882548
1631192858791,-0.44469,0.096502,-0.882609
1631192858801,-0.445971,0.096014,-0.884317
1631192858810,-0.445727,0.097051,-0.8839509999999999
1631192858820,-0.4453,0.097722,-0.8812059999999999
1631192858829,-0.445056,0.098698,-0.881755
1631192858839,-0.44652,0.09881999999999999,-0.88267
1631192858849,-0.444873,0.100284,-0.88267
1631192858858,-0.446032,0.100589,-0.882304
1631192858868,-0.446215,0.10083299999999999,-0.882975
1631192858877,-0.445788,0.101992,-0.881999
1631192858887,-0.445483,0.103029,-0.881023
1631192858897,-0.446581,0.104188,-0.880657
1631192858906,-0.445788,0.10614,-0.880413
1631192858916,-0.44456799999999996,0.109495,-0.883524
1631192858925,-0.442677,0.11041,-0.886635
1631192858935,-0.443287,0.113338,-0.886574
1631192858945,-0.444324,0.112911,-0.885049
1631192858954,-0.445544,0.110288,-0.883402
1631192858964,-0.447191,0.108458,-0.880779
1631192858973,-0.448472,0.108031,-0.876875
1631192858983,-0.449143,0.108214,-0.875777
1631192858993,-0.448289,0.10797,-0.8769359999999999
1631192859002,-0.448289,0.107543,-0.875655
1631192859012,-0.447008,0.107787,-0.87474
1631192859021,-0.447679,0.106811,-0.876265
1631192859031,-0.448106,0.10607899999999999,-0.87718
1631192859041,-0.448289,0.106628,-0.879864
1631192859050,-0.44834999999999997,0.107482,-0.88084
1631192859060,-0.448411,0.108214,-0.879803
1631192859069,-0.449387,0.108031,-0.878705
1631192859079,-0.450424,0.110349,-0.876814
1631192859089,-0.45048499999999997,0.11223999999999999,-0.8741909999999999
1631192859098,-0.450058,0.113948,-0.872483
1631192859108,-0.45139999999999997,0.114253,-0.872849
1631192859117,-0.451217,0.117364,-0.87352
1631192859127,-0.451217,0.117547,-0.8751059999999999
1631192859137,-0.452437,0.11840099999999999,-0.876692
1631192859146,-0.452193,0.117242,-0.877363
1631192859156,-0.451339,0.116937,-0.877302
1631192859165,-0.451949,0.11486299999999999,-0.874435
1631192859175,-0.453352,0.11406999999999999,-0.871934
1631192859185,-0.45261999999999997,0.113948,-0.871202
1631192859194,-0.451644,0.113643,-0.870775
1631192859204,-0.451278,0.113948,-0.871324
1631192859213,-0.452681,0.11345999999999999,-0.8748009999999999
1631192859223,-0.45353499999999997,0.112301,-0.876387
1631192859233,-0.452864,0.112911,-0.8790709999999999
1631192859242,-0.455182,0.113033,-0.87779
1631192859252,-0.456158,0.112423,-0.87535
1631192859261,-0.456463,0.11193499999999999,-0.875045
1631192859271,-0.455304,0.112179,-0.8748009999999999
1631192859281,-0.45688999999999996,0.111996,-0.87352
1631192859290,-0.456768,0.112423,-0.8723
1631192859300,-0.457195,0.112118,-0.873825
1631192859309,-0.456646,0.111447,-0.875594
1631192859319,-0.457317,0.112423,-0.875899
1631192859329,-0.456951,0.112423,-0.876814
1631192859338,-0.456707,0.113338,-0.87535
1631192859348,-0.456524,0.114131,-0.87535
1631192859357,-0.457134,0.114558,-0.875594
1631192859367,-0.45658499999999996,0.11516799999999999,-0.8757159999999999
1631192859377,-0.456524,0.11516799999999999,-0.876509
1631192859386,-0.457012,0.114924,-0.87718
1631192859396,-0.457439,0.114924,-0.87779
1631192859405,-0.45688999999999996,0.114436,-0.876997
1631192859415,-0.456646,0.112972,-0.87596
1631192859425,-0.456524,0.11284999999999999,-0.874862
1631192859434,-0.456768,0.113582,-0.875167
1631192859444,-0.456829,0.113582,-0.876265
1631192859453,-0.457195,0.113582,-0.875777
1631192859463,-0.456707,0.11345999999999999,-0.8763259999999999
1631192859473,-0.455914,0.114375,-0.877119
1631192859482,-0.45627999999999996,0.11486299999999999,-0.8772409999999999
1631192859492,-0.45597499999999996,0.115595,-0.875838
1631192859501,-0.45475499999999996,0.11651,-0.874435
1631192859511,-0.45505999999999996,0.1159,-0.873093
1631192859521,-0.454633,0.116205,-0.871934
1631192859530,-0.453413,0.114619,-0.870958
1631192859540,-0.453474,0.11516799999999999,-0.871385
1631192859549,-0.452742,0.115046,-0.872422
1631192859559,-0.452437,0.11486299999999999,-0.872239
1631192859569,-0.452559,0.115229,-0.8732759999999999
1631192859578,-0.45383999999999997,0.114985,-0.8729709999999999
1631192859588,-0.45322999999999997,0.11529,-0.875167
1631192859597,-0.453474,0.115351,-0.875167
1631192859607,-0.453108,0.11577799999999999,-0.875533
1631192859617,-0.453413,0.11577799999999999,-0.874679
1631192859626,-0.453352,0.116632,-0.875167
1631192859636,-0.453718,0.117669,-0.875533
1631192859645,-0.454084,0.11895,-0.876448
1631192859655,-0.453718,0.11931599999999999,-0.87657
1631192859665,-0.454084,0.119072,-0.8757159999999999
1631192859674,-0.452864,0.119072,-0.87596
1631192859684,-0.452681,0.119743,-0.875472
1631192859693,-0.452193,0.12023099999999999,-0.875472
1631192859703,-0.45200999999999997,0.12023099999999999,-0.8744959999999999
1631192859713,-0.45231499999999997,0.12017,-0.874374
1631192859722,-0.452498,0.11992599999999999,-0.873154
1631192859732,-0.451644,0.118584,-0.87291
1631192859741,-0.451827,0.118157,-0.872605
1631192859751,-0.452498,0.117425,-0.873032
1631192859761,-0.451827,0.117181,-0.873764
1631192859770,-0.452681,0.11712,-0.8748009999999999
1631192859780,-0.452193,0.11870599999999999,-0.874923
1631192859789,-0.452803,0.118584,-0.8744959999999999
1631192859799,-0.453413,0.118218,-0.874313
1631192859809,-0.455121,0.11870599999999999,-0.876387
1631192859818,-0.453779,0.119377,-0.877302
1631192859828,-0.453962,0.11895,-0.875594
1631192859837,-0.45475499999999996,0.118645,-0.8748009999999999
1631192859847,-0.454328,0.119987,-0.87352
1631192859857,-0.453291,0.121817,-0.871324
1631192859866,-0.455792,0.12315899999999999,-0.8711409999999999
1631192859876,-0.455121,0.126636,-0.873459
1631192859885,-0.453169,0.129381,-0.878217
1631192859895,-0.451461,0.12834399999999999,-0.882975
1631192859905,-0.453779,0.128832,-0.881694
1631192859914,-0.453474,0.126209,-0.8796809999999999
1631192859924,-0.454084,0.122976,-0.876082
1631192859933,-0.45597499999999996,0.121756,-0.8708359999999999
1631192859943,-0.45566999999999996,0.121573,-0.868213
1631192859953,-0.454389,0.121268,-0.868823
1631192859962,-0.45292499999999997,0.119865,-0.868335
1631192859972,-0.45353499999999997,0.121085,-0.868518
1631192859981,-0.45353499999999997,0.120048,-0.86986
1631192859991,-0.45475499999999996,0.120536,-0.871263
1631192860001,-0.45444999999999997,0.119865,-0.874862
1631192860010,-0.453962,0.11956,-0.876509
1631192860020,-0.454084,0.120658,-0.875472
1631192860029,-0.454511,0.12193899999999999,-0.874862
1631192860039,-0.454816,0.12254899999999999,-0.873398
1631192860049,-0.454389,0.12425699999999999,-0.8702259999999999
1631192860058,-0.455609,0.125477,-0.870348
1631192860068,-0.455914,0.127612,-0.869494
1631192860077,-0.456951,0.127917,-0.8708359999999999
1631192860087,-0.457378,0.129747,-0.872422
1631192860097,-0.456646,0.13078399999999998,-0.873215
1631192860106,-0.456524,0.132431,-0.874984
1631192860116,-0.457439,0.132126,-0.874374
1631192860125,-0.455731,0.130906,-0.871202
1631192860135,-0.457683,0.129625,-0.869372
1631192860145,-0.456463,0.131211,-0.8699209999999999
1631192860154,-0.456646,0.13017399999999998,-0.869189
1631192860164,-0.454999,0.131089,-0.869128
1631192860173,-0.454633,0.132248,-0.8723609999999999
1631192860183,-0.454877,0.131455,-0.873032
1631192860193,-0.455304,0.131028,-0.873398
1631192860202,-0.455731,0.131516,-0.8726659999999999
1631192860212,-0.455487,0.130845,-0.8714459999999999
1631192860221,-0.45475499999999996,0.131333,-0.871324
1631192860231,-0.454694,0.132004,-0.8714459999999999
1631192860241,-0.455304,0.132065,-0.871934
1631192860250,-0.454999,0.13237,-0.872178
1631192860260,-0.45536499999999996,0.131638,-0.872544
1631192860269,-0.454267,0.132187,-0.8732759999999999
1631192860279,-0.455121,0.132614,-0.87413
1631192860289,-0.454633,0.133468,-0.8732759999999999
1631192860298,-0.45536499999999996,0.133956,-0.873337
1631192860308,-0.454633,0.134627,-0.873398
1631192860317,-0.455121,0.135298,-0.873215
1631192860327,-0.454267,0.135603,-0.873215
1631192860337,-0.453718,0.136152,-0.8723
1631192860346,-0.454328,0.135847,-0.872178
1631192860356,-0.45414499999999997,0.135603,-0.871568
1631192860365,-0.454084,0.136884,-0.871324
1631192860375,-0.45383999999999997,0.136762,-0.869738
1631192860385,-0.453352,0.13694499999999998,-0.870104
1631192860394,-0.453779,0.137677,-0.868945
1631192860404,-0.453779,0.138104,-0.868762
1631192860413,-0.45414499999999997,0.137372,-0.868152
1631192860423,-0.454816,0.137677,-0.868213
1631192860433,-0.454816,0.13725,-0.869189
1631192860442,-0.456158,0.13786,-0.86864
1631192860452,-0.456402,0.137555,-0.868213
1631192860461,-0.454389,0.136152,-0.869616
1631192860471,-0.456219,0.136762,-0.868762
1631192860481,-0.45566999999999996,0.137494,-0.868396
1631192860490,-0.456219,0.137494,-0.868518
1631192860500,-0.454816,0.137677,-0.868091
1631192860509,-0.456097,0.137555,-0.86864
1631192860519,-0.45536499999999996,0.137006,-0.867542
1631192860529,-0.455487,0.136823,-0.867237
1631192860538,-0.454816,0.135786,-0.867847
1631192860548,-0.454938,0.135542,-0.86925
1631192860557,-0.454999,0.135359,-0.868518
1631192860567,-0.456097,0.135847,-0.868884
1631192860577,-0.45505999999999996,0.137677,-0.8708359999999999
1631192860586,-0.455304,0.137921,-0.8705309999999999
1631192860596,-0.456036,0.138226,-0.869433
1631192860605,-0.456707,0.139385,-0.868762
1631192860615,-0.456646,0.137067,-0.869006
1631192860625,-0.457134,0.136518,-0.868396
1631192860634,-0.457927,0.136152,-0.870104
1631192860644,-0.4575,0.13633499999999998,-0.869799
1631192860653,-0.45884199999999997,0.136701,-0.8702259999999999
1631192860663,-0.459818,0.136762,-0.870287
1631192860673,-0.459879,0.13663999999999998,-0.869799
1631192860682,-0.461404,0.137067,-0.868335
1631192860692,-0.46158699999999997,0.137677,-0.868823
1631192860701,-0.462929,0.13969,-0.869433
1631192860711,-0.463478,0.139934,-0.870592
1631192860721,-0.464698,0.139568,-0.870714
1631192860730,-0.46555199999999997,0.139812,-0.869677
1631192860740,-0.466284,0.141032,-0.86681
1631192860749,-0.467443,0.140422,-0.864004
1631192860759,-0.46848,0.141764,-0.862784
1631192860769,-0.469273,0.143716,-0.863394
1631192860778,-0.46707699999999996,0.144875,-0.866261
1631192860788,-0.465125,0.1464,-0.869677
1631192860797,-0.464393,0.14884,-0.870714
1631192860807,-0.46543,0.148474,-0.869128
1631192860817,-0.466345,0.147315,-0.86742
1631192860826,-0.46726,0.145302,-0.864919
1631192860836,-0.46909,0.145058,-0.862296
1631192860845,-0.467748,0.143777,-0.8599169999999999
1631192860855,-0.465918,0.144692,-0.859368
1631192860865,-0.465796,0.144753,-0.859246
1631192860874,-0.464454,0.146156,-0.859185
1631192860884,-0.463905,0.14652199999999999,-0.8608319999999999
1631192860893,-0.46585699999999997,0.146949,-0.8632719999999999
1631192860903,-0.465064,0.1464,-0.863333
1631192860913,-0.465064,0.147315,-0.863699
1631192860922,-0.464393,0.147986,-0.862906
1631192860932,-0.465674,0.147071,-0.862296
1631192860941,-0.46665,0.14823,-0.861076
1631192860951,-0.46604,0.149877,-0.861259
1631192860961,-0.466345,0.151768,-0.861198
1631192860970,-0.46738199999999996,0.152317,-0.860405
1631192860980,-0.467138,0.15311,-0.861625
1631192860989,-0.466284,0.15372,-0.862601
1631192860999,-0.467443,0.153842,-0.86376
1631192861009,-0.46768699999999996,0.15433,-0.864065
1631192861018,-0.46848,0.154452,-0.8632719999999999
1631192861028,-0.468114,0.153049,-0.860161
1631192861037,-0.46860199999999996,0.154147,-0.859856
1631192861047,-0.466223,0.155001,-0.861686
1631192861057,-0.46616199999999997,0.154696,-0.861015
1631192861066,-0.466528,0.156648,-0.861991
1631192861076,-0.466345,0.157502,-0.86376
1631192861085,-0.465369,0.157563,-0.863821
1631192861095,-0.46494199999999997,0.15799,-0.864431
1631192861105,-0.465918,0.158112,-0.863943
1631192861114,-0.466284,0.15823399999999999,-0.862601
1631192861124,-0.46543,0.158478,-0.8614419999999999
1631192861133,-0.46543,0.15823399999999999,-0.862235
1631192861143,-0.46494199999999997,0.157868,-0.860954
1631192861153,-0.465613,0.156221,-0.860344
1631192861162,-0.465491,0.155977,-0.860466
1631192861172,-0.466528,0.156465,-0.86132
1631192861181,-0.46616199999999997,0.157258,-0.861869
1631192861191,-0.466589,0.158661,-0.8620519999999999
1631192861201,-0.466894,0.159393,-0.862723
1631192861210,-0.466345,0.159637,-0.862906
1631192861220,-0.466711,0.160308,-0.86376
1631192861229,-0.46726,0.159942,-0.861991
1631192861239,-0.466528,0.159637,-0.8614419999999999
1631192861249,-0.46726,0.160186,-0.8617469999999999
1631192861258,-0.466894,0.16104,-0.8614419999999999
1631192861268,-0.466223,0.161528,-0.860161
1631192861277,-0.46677199999999996,0.162016,-0.8601
1631192861287,-0.46707699999999996,0.162199,-0.860039
1631192861297,-0.467138,0.16165,-0.860405
1631192861306,-0.46726,0.161894,-0.859673
1631192861316,-0.467504,0.161406,-0.858941
1631192861325,-0.467504,0.160308,-0.858209
1631192861335,-0.468663,0.15921,-0.857904
1631192861345,-0.466955,0.159271,-0.8583919999999999
1631192861354,-0.467321,0.158722,-0.858758
1631192861364,-0.468175,0.158417,-0.858331
1631192861373,-0.46921199999999996,0.15884399999999999,-0.857721
1631192861383,-0.468785,0.158966,-0.858148
1631192861393,-0.468968,0.157868,-0.858209
1631192861402,-0.469517,0.157441,-0.858758
1631192861412,-0.46848,0.15792899999999999,-0.859856
1631192861421,-0.469273,0.157075,-0.858819
1631192861431,-0.469639,0.157807,-0.859063
1631192861441,-0.470981,0.156038,-0.8593069999999999
1631192861450,-0.470493,0.156282,-0.8605269999999999
1631192861460,-0.470249,0.157868,-0.860161
1631192861469,-0.470432,0.15884399999999999,-0.8601
1631192861479,-0.469944,0.15799,-0.859734
1631192861489,-0.470737,0.157685,-0.858148
1631192861498,-0.471225,0.15823399999999999,-0.858453
1631192861508,-0.470005,0.15799,-0.8590019999999999
1631192861517,-0.470493,0.156099,-0.8596119999999999
1631192861527,-0.4697,0.156892,-0.860588
1631192861537,-0.469517,0.155855,-0.861076
1631192861546,-0.469578,0.155245,-0.861808
1631192861556,-0.47031,0.154757,-0.860771
1631192861565,-0.469822,0.153354,-0.8605269999999999
1631192861575,-0.469944,0.153415,-0.860466
1631192861585,-0.46921199999999996,0.152256,-0.86132
1631192861594,-0.468785,0.151219,-0.8617469999999999
1631192861604,-0.46860199999999996,0.152195,-0.8617469999999999
1631192861613,-0.468724,0.151585,-0.86193
1631192861623,-0.46909,0.152012,-0.86193
1631192861633,-0.469578,0.152134,-0.861198
1631192861642,-0.468846,0.152439,-0.862235
1631192861652,-0.468663,0.150792,-0.862784
1631192861661,-0.470371,0.150365,-0.8629669999999999
1631192861671,-0.469639,0.15006,-0.862479
1631192861681,-0.469273,0.151158,-0.860405
1631192861690,-0.4697,0.15189,-0.85949
1631192861700,-0.47031,0.155306,-0.8593069999999999
1631192861709,-0.469944,0.156404,-0.861015
1631192861719,-0.46768699999999996,0.157319,-0.864736
1631192861729,-0.467443,0.158661,-0.8662
1631192861738,-0.46921199999999996,0.157807,-0.866749
1631192861748,-0.46829699999999996,0.155794,-0.867359
1631192861757,-0.468053,0.154757,-0.863455
1631192861767,-0.469578,0.15359799999999998,-0.860649
1631192861777,-0.469456,0.154269,-0.856684
1631192861786,-0.46848,0.153659,-0.854793
1631192861796,-0.46738199999999996,0.1525,-0.8529019999999999
1631192861805,-0.466589,0.153049,-0.854976
1631192861815,-0.46665,0.152805,-0.856013
1631192861825,-0.466223,0.15207299999999999,-0.858453
1631192861834,-0.466284,0.15207299999999999,-0.861991
1631192861844,-0.46646699999999996,0.15128,-0.863211
1631192861853,-0.467565,0.151646,-0.86254
1631192861863,-0.46848,0.151463,-0.8596119999999999
1631192861873,-0.46860199999999996,0.151585,-0.857904
1631192861882,-0.470188,0.15298799999999999,-0.856989
1631192861892,-0.470249,0.154147,-0.857111
1631192861901,-0.470676,0.155611,-0.85888
1631192861911,-0.470371,0.157746,-0.859734
1631192861921,-0.47177399999999997,0.158478,-0.8608319999999999
1631192861930,-0.471591,0.15914899999999998,-0.8617469999999999
1631192861940,-0.47146899999999997,0.15982,-0.861381
1631192861949,-0.471957,0.159576,-0.86254
1631192861959,-0.471408,0.158661,-0.862418
1631192861969,-0.469883,0.157136,-0.859856
1631192861978,-0.470981,0.15433,-0.857294
1631192861988,-0.470615,0.155977,-0.858331
1631192861997,-0.469029,0.156038,-0.857355
1631192862007,-0.469761,0.15677,-0.856074
1631192862017,-0.470432,0.158051,-0.859185
1631192862026,-0.468846,0.157319,-0.860954
1631192862036,-0.469273,0.156892,-0.861259
1631192862045,-0.4697,0.157075,-0.8614419999999999
1631192862055,-0.469578,0.156526,-0.8611369999999999
1631192862065,-0.470432,0.156648,-0.861198
1631192862074,-0.470676,0.156709,-0.860405
1631192862084,-0.470676,0.156526,-0.860283
1631192862093,-0.470432,0.15738,-0.861198
1631192862103,-0.4697,0.156709,-0.860344
1631192862113,-0.470554,0.156526,-0.861015
1631192862122,-0.4697,0.156648,-0.861686
1631192862132,-0.470005,0.15738,-0.8611369999999999
1631192862141,-0.46921199999999996,0.157197,-0.861503
1631192862151,-0.468358,0.158783,-0.86193
1631192862161,-0.468846,0.158966,-0.860954
1631192862170,-0.46909,0.15853899999999999,-0.861259
1631192862180,-0.468846,0.159393,-0.860161
1631192862189,-0.467931,0.16006399999999998,-0.859551
1631192862199,-0.468236,0.15975899999999998,-0.85949
1631192862209,-0.46738199999999996,0.159027,-0.8593069999999999
1631192862218,-0.466711,0.159515,-0.859429
1631192862228,-0.467321,0.158722,-0.858758
1631192862237,-0.466894,0.15914899999999998,-0.858575
1631192862247,-0.467016,0.1586,-0.8580869999999999
1631192862257,-0.46707699999999996,0.158356,-0.859368
1631192862266,-0.467016,0.157258,-0.859246
1631192862276,-0.467931,0.157319,-0.859246
1631192862285,-0.467626,0.156587,-0.85949
1631192862295,-0.46726,0.155306,-0.8593069999999999
1631192862305,-0.46768699999999996,0.155428,-0.858941
1631192862314,-0.46909,0.155916,-0.8596119999999999
1631192862324,-0.468419,0.154757,-0.859246
1631192862333,-0.469334,0.154696,-0.85949
1631192862343,-0.46860199999999996,0.155794,-0.8583919999999999
1631192862353,-0.469029,0.155611,-0.858026
1631192862362,-0.468785,0.155367,-0.859368
1631192862372,-0.4697,0.155306,-0.859124
1631192862381,-0.4697,0.155794,-0.8599169999999999
1631192862391,-0.469944,0.15512299999999998,-0.860344
1631192862401,-0.469944,0.154696,-0.8601
1631192862410,-0.46890699999999996,0.154696,-0.861076
1631192862420,-0.469456,0.153964,-0.861869
1631192862429,-0.469883,0.15433,-0.861198
1631192862439,-0.46890699999999996,0.153049,-0.8605269999999999
1631192862449,-0.470737,0.15311,-0.860588
1631192862458,-0.470127,0.152744,-0.861686
1631192862468,-0.47085899999999997,0.15311,-0.86071
1631192862477,-0.469639,0.153537,-0.8614419999999999
1631192862487,-0.469822,0.152134,-0.8617469999999999
1631192862497,-0.470737,0.152866,-0.8617469999999999
1631192862506,-0.47031,0.152744,-0.861381
1631192862516,-0.470005,0.151829,-0.860283
1631192862525,-0.469822,0.15237799999999999,-0.8614419999999999
1631192862535,-0.470127,0.15329299999999998,-0.8611369999999999
1631192862545,-0.470798,0.154574,-0.8608319999999999
1631192862554,-0.470493,0.154757,-0.860649
1631192862564,-0.470371,0.15481799999999998,-0.860588
1631192862573,-0.470615,0.155672,-0.859978
1631192862583,-0.4697,0.155916,-0.859734
1631192862593,-0.468846,0.15555,-0.860161
1631192862602,-0.470493,0.155184,-0.8601
1631192862612,-0.469578,0.155672,-0.8599169999999999
1631192862621,-0.46890699999999996,0.156038,-0.859551
1631192862631,-0.469944,0.15555,-0.85827
1631192862641,-0.470066,0.155489,-0.859246
1631192862650,-0.470615,0.155855,-0.859551
1631192862660,-0.470066,0.156099,-0.860039
1631192862669,-0.469151,0.156465,-0.8590019999999999
1631192862679,-0.46909,0.156831,-0.858514
1631192862689,-0.4697,0.157136,-0.859185
1631192862698,-0.469822,0.157014,-0.858209
1631192862708,-0.469639,0.157502,-0.858148
1631192862717,-0.46921199999999996,0.156709,-0.858514
1631192862727,-0.469822,0.156221,-0.858575
1631192862737,-0.469395,0.156648,-0.858941
1631192862746,-0.4697,0.157746,-0.860771
1631192862756,-0.470432,0.157563,-0.859673
1631192862765,-0.470188,0.157685,-0.857599
1631192862775,-0.471286,0.156831,-0.858331
1631192862785,-0.470493,0.156526,-0.859368
1631192862794,-0.470554,0.156282,-0.85949
1631192862804,-0.472445,0.155062,-0.860466
1631192862813,-0.470981,0.15433,-0.859734
1631192862823,-0.47177399999999997,0.155489,-0.857721
1631192862833,-0.47146899999999997,0.156953,-0.856806
1631192862842,-0.472201,0.159393,-0.858758
1631192862852,-0.470127,0.161406,-0.861015
1631192862861,-0.46799199999999996,0.16097899999999998,-0.864736
1631192862871,-0.467931,0.161833,-0.865224
1631192862881,-0.470066,0.161162,-0.866078
1631192862890,-0.469761,0.159027,-0.865834
1631192862900,-0.470798,0.156526,-0.861564
1631192862909,-0.470371,0.156709,-0.857416
1631192862919,-0.470554,0.15677,-0.854366
1631192862929,-0.468541,0.156526,-0.8532069999999999
1631192862938,-0.46799199999999996,0.154757,-0.853756
1631192862948,-0.468114,0.155672,-0.853756
1631192862957,-0.468175,0.154452,-0.85644
1631192862967,-0.467138,0.153476,-0.85888
1631192862977,-0.468541,0.1525,-0.860954
1631192862986,-0.467199,0.152134,-0.862235
1631192862996,-0.468358,0.151524,-0.861869
1631192863005,-0.468846,0.150975,-0.860039
1631192863015,-0.469517,0.152622,-0.859124
1631192863025,-0.471042,0.15420799999999998,-0.8580869999999999
1631192863034,-0.471408,0.155733,-0.858209
1631192863044,-0.47146899999999997,0.158173,-0.859673
1631192863053,-0.471652,0.15982,-0.860649
1631192863063,-0.473543,0.160735,-0.8608319999999999
1631192863073,-0.472201,0.161467,-0.8611369999999999
1631192863082,-0.471713,0.16104,-0.861808
1631192863092,-0.471347,0.160308,-0.861259
1631192863101,-0.47092,0.159393,-0.861381
1631192863111,-0.470798,0.157441,-0.858758
1631192863121,-0.470676,0.155672,-0.857111
1631192863130,-0.469517,0.156648,-0.8571719999999999
1631192863140,-0.46909,0.155672,-0.856623
1631192863149,-0.469578,0.155977,-0.855159
1631192863159,-0.469151,0.15738,-0.858636
1631192863169,-0.468358,0.157258,-0.86071
1631192863178,-0.469578,0.157685,-0.8620519999999999
1631192863188,-0.469761,0.157685,-0.861625
1631192863197,-0.470066,0.15792899999999999,-0.860405
1631192863207,-0.471286,0.158112,-0.861198
1631192863217,-0.470127,0.157502,-0.860039
1631192863226,-0.4697,0.155916,-0.861015
1631192863236,-0.470127,0.157136,-0.859978
1631192863245,-0.469944,0.156465,-0.860466
1631192863255,-0.468785,0.157502,-0.86132
1631192863265,-0.469883,0.157319,-0.861686
1631192863274,-0.470188,0.15677,-0.8611369999999999
1631192863284,-0.469517,0.156404,-0.86193
1631192863293,-0.469456,0.157075,-0.86132
1631192863303,-0.469273,0.157136,-0.861808
1631192863313,-0.46860199999999996,0.157563,-0.860405
1631192863322,-0.46848,0.157563,-0.8602219999999999
1631192863332,-0.46848,0.157868,-0.859368
1631192863341,-0.467504,0.1586,-0.8602219999999999
1631192863351,-0.467321,0.157197,-0.860161
1631192863361,-0.468236,0.15677,-0.8586969999999999
1631192863370,-0.467565,0.156526,-0.858758
1631192863380,-0.468114,0.156465,-0.858453
1631192863389,-0.468236,0.155733,-0.85888
1631192863399,-0.46829699999999996,0.155794,-0.859368
1631192863409,-0.46909,0.156221,-0.859429
1631192863418,-0.468419,0.155428,-0.859673
1631192863428,-0.46921199999999996,0.155001,-0.859551
1631192863437,-0.469639,0.155428,-0.859856
1631192863447,-0.469944,0.15555,-0.859551
1631192863457,-0.469761,0.155672,-0.858636
1631192863466,-0.470493,0.15481799999999998,-0.8590019999999999
1631192863476,-0.470127,0.155184,-0.8593069999999999
1631192863485,-0.470554,0.15555,-0.859246
1631192863495,-0.470676,0.155916,-0.859185
1631192863505,-0.469883,0.155001,-0.858758
1631192863514,-0.470676,0.154574,-0.8586969999999999
1631192863524,-0.470615,0.154391,-0.859734
1631192863533,-0.47116399999999997,0.153537,-0.8602219999999999
1631192863543,-0.471103,0.15372,-0.860039
1631192863553,-0.47092,0.153842,-0.86071
1631192863562,-0.471591,0.153537,-0.860344
1631192863572,-0.471713,0.153476,-0.860649
1631192863581,-0.470188,0.153415,-0.860954
1631192863591,-0.470554,0.15372,-0.8605269999999999
1631192863601,-0.471591,0.154391,-0.8602219999999999
1631192863610,-0.471347,0.154147,-0.860466
1631192863620,-0.470493,0.152744,-0.8599169999999999
1631192863629,-0.470737,0.153964,-0.860161
1631192863639,-0.470554,0.153842,-0.860405
1631192863649,-0.470371,0.153232,-0.859795
1631192863658,-0.470127,0.152439,-0.860283
1631192863668,-0.47153,0.15268299999999999,-0.86071
1631192863677,-0.472506,0.15494,-0.860344
1631192863687,-0.471408,0.153659,-0.860405
1631192863697,-0.470066,0.154147,-0.859185
1631192863706,-0.470554,0.153781,-0.8611369999999999
1631192863716,-0.471835,0.154574,-0.8601
1631192863725,-0.47092,0.154574,-0.861259
1631192863735,-0.47116399999999997,0.155245,-0.860161
1631192863745,-0.47031,0.156465,-0.858941
1631192863754,-0.471713,0.15512299999999998,-0.858819
1631192863764,-0.47116399999999997,0.155001,-0.8586969999999999
1631192863773,-0.47116399999999997,0.156038,-0.858514
1631192863783,-0.471286,0.156282,-0.8583919999999999
1631192863793,-0.471591,0.156587,-0.858209
1631192863802,-0.470676,0.156465,-0.858941
1631192863812,-0.470493,0.157319,-0.859063
1631192863821,-0.471103,0.157502,-0.858453
1631192863831,-0.47085899999999997,0.157075,-0.859124
1631192863841,-0.470493,0.156831,-0.858026
1631192863850,-0.470554,0.157075,-0.8583919999999999
1631192863860,-0.471042,0.156831,-0.85827
1631192863869,-0.470005,0.156648,-0.859368
1631192863879,-0.470554,0.15738,-0.8599169999999999
1631192863889,-0.470981,0.15884399999999999,-0.857721
1631192863898,-0.471591,0.15884399999999999,-0.8571719999999999
1631192863908,-0.47214,0.158966,-0.8583919999999999
1631192863917,-0.471347,0.158966,-0.85766
1631192863927,-0.471652,0.15853899999999999,-0.85827
1631192863937,-0.47214,0.157746,-0.8577819999999999
1631192863946,-0.47238399999999997,0.157563,-0.8568669999999999
1631192863956,-0.471591,0.158051,-0.856623
1631192863965,-0.472567,0.15975899999999998,-0.856623
1631192863975,-0.472628,0.162138,-0.858453
1631192863985,-0.470188,0.163175,-0.861625
1631192863994,-0.469395,0.163968,-0.8651019999999999
1631192864004,-0.469517,0.16348,-0.864919
1631192864013,-0.470798,0.162138,-0.8644919999999999
1631192864023,-0.471103,0.159515,-0.862723
1631192864033,-0.472323,0.15792899999999999,-0.8583919999999999
1631192864042,-0.472445,0.157746,-0.85583
1631192864052,-0.47092,0.157563,-0.855464
1631192864061,-0.469822,0.157197,-0.8538169999999999
1631192864071,-0.46848,0.157502,-0.853451
1631192864081,-0.468785,0.157746,-0.8535119999999999
1631192864090,-0.468358,0.157441,-0.857721
1631192864100,-0.46787,0.156404,-0.860405
1631192864109,-0.46738199999999996,0.155489,-0.862479
1631192864119,-0.468724,0.154879,-0.8623569999999999
1631192864129,-0.468175,0.15512299999999998,-0.860893
1631192864138,-0.4697,0.155306,-0.858453
1631192864148,-0.470005,0.158051,-0.856074
1631192864157,-0.471713,0.159393,-0.856684
1631192864167,-0.471591,0.160918,-0.8565619999999999
1631192864177,-0.471591,0.16226,-0.85766
1631192864186,-0.471835,0.163724,-0.860466
1631192864196,-0.472445,0.163724,-0.8608319999999999
1631192864205,-0.471896,0.162992,-0.861503
1631192864215,-0.47146899999999997,0.162931,-0.861991
1631192864225,-0.471408,0.161711,-0.8623569999999999
1631192864234,-0.471103,0.159515,-0.859429
1631192864244,-0.471286,0.15975899999999998,-0.856501
1631192864253,-0.470432,0.161223,-0.856379
1631192864263,-0.469517,0.159942,-0.856135
1631192864273,-0.469029,0.160613,-0.8544269999999999
1631192864282,-0.469944,0.161894,-0.856501
1631192864292,-0.468968,0.162138,-0.859185
1631192864301,-0.469151,0.161345,-0.860405
1631192864311,-0.469761,0.162809,-0.860161
1631192864321,-0.468663,0.163175,-0.859978
1631192864330,-0.470432,0.162626,-0.860161
1631192864340,-0.46909,0.162748,-0.8590019999999999
1631192864349,-0.469761,0.161955,-0.858514
1631192864359,-0.469883,0.161894,-0.859246
1631192864369,-0.470249,0.161833,-0.859734
1631192864378,-0.469273,0.16067399999999998,-0.8601
1631192864388,-0.468785,0.161589,-0.8596119999999999
1631192864397,-0.468053,0.16226,-0.8601
1631192864407,-0.467748,0.162931,-0.859063
1631192864417,-0.468236,0.162077,-0.859246
1631192864426,-0.468053,0.162992,-0.859673
1631192864436,-0.46829699999999996,0.163053,-0.860405
1631192864445,-0.468968,0.163846,-0.8605269999999999
1631192864455,-0.468236,0.164456,-0.859124
1631192864465,-0.467138,0.165737,-0.859551
1631192864474,-0.46738199999999996,0.166408,-0.857538
1631192864484,-0.46646699999999996,0.16530999999999998,-0.856989
1631192864493,-0.466345,0.164151,-0.8562569999999999
1631192864503,-0.467443,0.163663,-0.856379
1631192864513,-0.467931,0.162626,-0.856928
1631192864522,-0.468175,0.16128399999999998,-0.8577819999999999
1631192864532,-0.468114,0.161833,-0.85888
1631192864541,-0.46860199999999996,0.162809,-0.858758
1631192864551,-0.46860199999999996,0.16287,-0.8590019999999999
1631192864561,-0.46909,0.162809,-0.85888
1631192864570,-0.46921199999999996,0.162016,-0.858575
1631192864580,-0.469822,0.161894,-0.8565619999999999
1631192864589,-0.47092,0.162382,-0.856928
1631192864599,-0.470371,0.162199,-0.855098
1631192864609,-0.47207899999999997,0.162321,-0.8556469999999999
1631192864618,-0.47092,0.162809,-0.855464
1631192864628,-0.471042,0.161406,-0.85705
1631192864637,-0.471225,0.160796,-0.857416
1631192864647,-0.47238399999999997,0.160796,-0.857233
1631192864657,-0.473482,0.160186,-0.857355
1631192864666,-0.473665,0.160003,-0.85766
1631192864676,-0.474397,0.160125,-0.8574769999999999
1631192864685,-0.473726,0.160186,-0.857294
1631192864695,-0.47451899999999997,0.16006399999999998,-0.856501
1631192864705,-0.474763,0.15945399999999998,-0.856806
1631192864714,-0.475556,0.15975899999999998,-0.857721
1631192864724,-0.475251,0.159332,-0.85766
1631192864733,-0.476776,0.160857,-0.8586969999999999
1631192864743,-0.475983,0.16104,-0.858575
1631192864753,-0.477203,0.160491,-0.8574769999999999
1631192864762,-0.47702,0.160003,-0.857538
1631192864772,-0.476166,0.158966,-0.857416
1631192864781,-0.476898,0.15884399999999999,-0.856806
1631192864791,-0.476166,0.158661,-0.856684
1631192864801,-0.47641,0.157502,-0.8559519999999999
1631192864810,-0.47641,0.157441,-0.856745
1631192864820,-0.476288,0.157868,-0.85644
1631192864829,-0.477142,0.15792899999999999,-0.85522
1631192864839,-0.47665399999999997,0.157502,-0.8559519999999999
1631192864849,-0.477203,0.158478,-0.857294
1631192864858,-0.476898,0.157319,-0.856928
1631192864868,-0.47702,0.156404,-0.856684
1631192864877,-0.477142,0.157075,-0.856928
1631192864887,-0.476898,0.156526,-0.856806
1631192864897,-0.477142,0.156282,-0.856318
1631192864906,-0.477386,0.157624,-0.85705
1631192864916,-0.47702,0.157807,-0.8568669999999999
1631192864925,-0.476166,0.160491,-0.862418
1631192864935,-0.475922,0.155794,-0.856013
1631192864945,-0.475922,0.156465,-0.855098
1631192864954,-0.47695899999999997,0.155855,-0.856379
1631192864964,-0.47604399999999997,0.155062,-0.855769
1631192864973,-0.47482399999999997,0.155184,-0.856318
1631192864983,-0.47634899999999997,0.155672,-0.856379
1631192864993,-0.47482399999999997,0.15799,-0.855281
1631192865002,-0.474336,0.159637,-0.8541219999999999
1631192865012,-0.47421399999999997,0.160247,-0.851926
1631192865021,-0.475922,0.162138,-0.8516819999999999
1631192865031,-0.476471,0.16408999999999999,-0.8538169999999999
1631192865041,-0.47329899999999997,0.164639,-0.858758
1631192865050,-0.472506,0.165676,-0.862235
1631192865060,-0.474336,0.166774,-0.8620519999999999
1631192865069,-0.475922,0.163907,-0.8611369999999999
1631192865079,-0.474885,0.160125,-0.860771
1631192865089,-0.475983,0.157441,-0.8565619999999999
1631192865098,-0.476837,0.157136,-0.8541219999999999
1631192865108,-0.47634899999999997,0.15481799999999998,-0.853146
1631192865117,-0.47451899999999997,0.153842,-0.852475
1631192865127,-0.474153,0.15451299999999998,-0.851499
1631192865137,-0.47512899999999997,0.155001,-0.8541219999999999
1631192865146,-0.47458,0.155794,-0.856196
1631192865156,-0.47482399999999997,0.157197,-0.85827
1631192865165,-0.474336,0.157685,-0.8593069999999999
1631192865175,-0.475495,0.1586,-0.858758
1631192865185,-0.475495,0.158722,-0.856013
1631192865194,-0.476532,0.160186,-0.853878
1631192865204,-0.477203,0.162504,-0.852719
1631192865213,-0.477386,0.163358,-0.852536
1631192865223,-0.478118,0.16408999999999999,-0.854488
1631192865233,-0.47787399999999997,0.166469,-0.853756
1631192865242,-0.478667,0.167506,-0.854
1631192865252,-0.47848399999999996,0.168116,-0.8544269999999999
1631192865261,-0.478606,0.168726,-0.854854
1631192865271,-0.478972,0.169458,-0.8553419999999999
1631192865281,-0.47885,0.16775,-0.8544269999999999
1631192865290,-0.478667,0.166469,-0.851316
1631192865300,-0.479826,0.166652,-0.8501569999999999
1631192865309,-0.480192,0.16836,-0.850584
1631192865319,-0.480253,0.168299,-0.85034
1631192865329,-0.479948,0.169641,-0.851316
1631192865338,-0.478301,0.17177599999999998,-0.8522919999999999
1631192865348,-0.477691,0.17147099999999998,-0.853695
1631192865357,-0.479948,0.171593,-0.852536
1631192865367,-0.480558,0.173057,-0.851621
1631192865377,-0.480558,0.17269099999999998,-0.851316
1631192865386,-0.481351,0.17324,-0.851926
1631192865396,-0.48061899999999996,0.173667,-0.8507669999999999
1631192865405,-0.480375,0.173423,-0.850096
1631192865415,-0.48122899999999996,0.173911,-0.84973
1631192865425,-0.480985,0.173667,-0.850889
1631192865434,-0.480558,0.174338,-0.851194
1631192865444,-0.48092399999999996,0.174521,-0.851438
1631192865453,-0.481412,0.174582,-0.8513769999999999
1631192865463,-0.481351,0.17610699999999999,-0.851743
1631192865473,-0.481778,0.1769,-0.852414
1631192865482,-0.482083,0.17885199999999998,-0.850584
1631192865492,-0.48092399999999996,0.179279,-0.851194
1631192865501,-0.481107,0.180194,-0.8507669999999999
1631192865511,-0.480802,0.180316,-0.850218
1631192865521,-0.481168,0.180621,-0.849364
1631192865530,-0.481351,0.181292,-0.847595
1631192865540,-0.481473,0.181719,-0.846924
1631192865549,-0.480802,0.182146,-0.846558
1631192865559,-0.481961,0.183244,-0.847351
1631192865569,-0.482388,0.182085,-0.8474119999999999
1631192865578,-0.482083,0.183671,-0.848083
1631192865588,-0.482144,0.18409799999999998,-0.847168
1631192865597,-0.481778,0.184281,-0.8480219999999999
1631192865607,-0.481839,0.183244,-0.847046
1631192865617,-0.482144,0.18379299999999998,-0.8471069999999999
1631192865626,-0.482205,0.184647,-0.846436
1631192865636,-0.48122899999999996,0.18562299999999998,-0.845765
1631192865645,-0.482022,0.186294,-0.845582
1631192865655,-0.481168,0.186599,-0.84546
1631192865665,-0.481595,0.187026,-0.845887
1631192865674,-0.482083,0.18727,-0.846619
1631192865684,-0.482388,0.188002,-0.8486319999999999
1631192865693,-0.483303,0.18727,-0.847168
1631192865703,-0.482266,0.187331,-0.846436
1631192865713,-0.482815,0.188856,-0.846009
1631192865722,-0.482754,0.188917,-0.845704
1631192865732,-0.482754,0.190625,-0.84668
1631192865741,-0.483608,0.191418,-0.844118
1631192865751,-0.483669,0.193126,-0.843081
1631192865761,-0.48373,0.193858,-0.842654
1631192865770,-0.483547,0.195383,-0.84302
1631192865780,-0.48251,0.196969,-0.843264
1631192865789,-0.48287599999999997,0.198738,-0.843874
1631192865799,-0.482144,0.20069,-0.843874
1631192865809,-0.482144,0.200812,-0.84302
1631192865818,-0.481839,0.202093,-0.842471
1631192865828,-0.482754,0.203069,-0.842898
1631192865837,-0.483303,0.20227599999999998,-0.842654
1631192865847,-0.48287599999999997,0.20374,-0.842654
1631192865857,-0.483364,0.204655,-0.842227
1631192865866,-0.482693,0.20435,-0.842471
1631192865876,-0.483852,0.205448,-0.842105
1631192865885,-0.483364,0.20630199999999999,-0.842105
1631192865895,-0.48348599999999997,0.20679,-0.842837
1631192865905,-0.484157,0.207461,-0.841068
1631192865914,-0.48440099999999997,0.208986,-0.840824
1631192865924,-0.48409599999999997,0.20843699999999998,-0.840824
1631192865933,-0.48495,0.209596,-0.8404579999999999
1631192865943,-0.485072,0.210999,-0.8407629999999999
1631192865953,-0.484889,0.21106,-0.838689
1631192865962,-0.484889,0.21106,-0.8355779999999999
1631192865972,-0.48617,0.212707,-0.835029
1631192865981,-0.487085,0.215391,-0.8361879999999999
1631192865991,-0.485804,0.218746,-0.839726
1631192866001,-0.48287599999999997,0.221857,-0.84302
1631192866010,-0.48556,0.223748,-0.841922
1631192866020,-0.48623099999999997,0.225212,-0.8418
1631192866029,-0.487512,0.223626,-0.840031
1631192866039,-0.486475,0.223321,-0.840397
1631192866049,-0.487634,0.224297,-0.837957
1631192866058,-0.48806099999999997,0.225517,-0.836859
1631192866068,-0.486414,0.225334,-0.834785
1631192866077,-0.484584,0.22600499999999998,-0.83082
1631192866087,-0.483608,0.227774,-0.8276479999999999
1631192866097,-0.485255,0.23094599999999998,-0.8270379999999999
1631192866106,-0.48495,0.23430099999999998,-0.830027
1631192866116,-0.484279,0.23649699999999999,-0.831186
1631192866125,-0.48434,0.238754,-0.8316129999999999
1631192866135,-0.485499,0.241255,-0.8313079999999999
1631192866145,-0.485377,0.241499,-0.828502
1631192866154,-0.48495,0.244122,-0.826062
1631192866164,-0.485072,0.244915,-0.824842
1631192866173,-0.484889,0.247538,-0.823744
1631192866183,-0.485438,0.249246,-0.822097
1631192866193,-0.487085,0.250832,-0.82228
1631192866202,-0.486109,0.25315,-0.823561
1631192866212,-0.48739,0.255895,-0.823622
1631192866221,-0.48806099999999997,0.258274,-0.822646
1631192866231,-0.487878,0.260836,-0.82289
1631192866241,-0.488122,0.261629,-0.820328
1631192866250,-0.487817,0.262849,-0.818681
1631192866260,-0.487939,0.266631,-0.819779
1631192866269,-0.487329,0.268522,-0.818559
1631192866279,-0.487939,0.271511,-0.816302
1631192866289,-0.487634,0.273707,-0.817522
1631192866298,-0.487024,0.2745,-0.817461
1631192866308,-0.487268,0.277001,-0.8174
1631192866317,-0.487512,0.27877,-0.816302
1631192866327,-0.487512,0.28102699999999997,-0.814838
1631192866337,-0.485682,0.28194199999999997,-0.8142889999999999
1631192866346,-0.48714599999999997,0.283528,-0.813557
1631192866356,-0.486963,0.286456,-0.812642
1631192866365,-0.486902,0.287127,-0.811605
1631192866375,-0.48739,0.288347,-0.8109339999999999
1631192866385,-0.487634,0.288591,-0.811178
1631192866394,-0.487512,0.290726,-0.811178
1631192866404,-0.487024,0.292861,-0.8103239999999999
1631192866413,-0.485194,0.29402,-0.8097139999999999
1631192866423,-0.486292,0.297558,-0.809348
1631192866433,-0.485682,0.299144,-0.806481
1631192866442,-0.486414,0.302926,-0.804346
1631192866452,-0.48714599999999997,0.304329,-0.803492
1631192866461,-0.48745099999999997,0.304573,-0.802943
1631192866471,-0.48775599999999997,0.306952,-0.800747
1631192866481,-0.488,0.308172,-0.801357
1631192866490,-0.487878,0.309453,-0.8002589999999999
1631192866500,-0.489525,0.311893,-0.799527
1631192866509,-0.490074,0.312808,-0.798185
1631192866519,-0.49141599999999996,0.314943,-0.799466
1631192866529,-0.491538,0.316529,-0.800137
1631192866538,-0.492392,0.317749,-0.798917
1631192866548,-0.493856,0.318725,-0.797453
1631192866557,-0.495015,0.319762,-0.796477
1631192866567,-0.495137,0.31890799999999997,-0.795623
1631192866577,-0.496357,0.319396,-0.795074
1631192866586,-0.495625,0.320921,-0.795135
1631192866596,-0.495747,0.322385,-0.794159
1631192866605,-0.496296,0.324215,-0.792634
1631192866615,-0.498126,0.325374,-0.791048
1631192866625,-0.49855299999999997,0.32696,-0.7902549999999999
1631192866634,-0.499041,0.329583,-0.790621
1631192866644,-0.500688,0.32939999999999997,-0.789828
1631192866653,-0.499285,0.329949,-0.789889
1631192866663,-0.500993,0.32939999999999997,-0.790438
1631192866673,-0.50203,0.32939999999999997,-0.790621
1631192866682,-0.502091,0.328973,-0.791048
1631192866692,-0.503433,0.328607,-0.7917799999999999
1631192866701,-0.50386,0.328546,-0.790926
1631192866711,-0.505995,0.325862,-0.790804
1631192866721,-0.505629,0.324642,-0.792024
1631192866730,-0.505751,0.324947,-0.792024
1631192866740,-0.505507,0.324825,-0.790987
1631192866749,-0.505934,0.325557,-0.790926
1631192866759,-0.50569,0.327082,-0.790011
1631192866769,-0.504836,0.328668,-0.7899499999999999
1631192866778,-0.505202,0.330132,-0.788791
1631192866788,-0.504958,0.331108,-0.7862899999999999
1631192866797,-0.504226,0.33183999999999997,-0.784826
1631192866807,-0.505019,0.331962,-0.783789
1631192866817,-0.504714,0.33122999999999997,-0.782813
1631192866826,-0.504836,0.330559,-0.7829349999999999
1631192866836,-0.505263,0.329888,-0.783118
1631192866845,-0.504592,0.330986,-0.7835449999999999
1631192866855,-0.505446,0.329644,-0.782691
1631192866865,-0.506849,0.330132,-0.783362
1631192866874,-0.506666,0.329156,-0.784582
1631192866884,-0.507398,0.327631,-0.784216
1631192866893,-0.507947,0.326655,-0.784826
1631192866903,-0.50752,0.32635,-0.785253
1631192866913,-0.506849,0.325801,-0.7832399999999999
1631192866922,-0.508191,0.323727,-0.782081
1631192866932,-0.508557,0.32452,-0.783484
1631192866941,-0.508984,0.325496,-0.784277
1631192866951,-0.508618,0.325862,-0.787693
1631192866961,-0.509289,0.32757,-0.788913
1631192866970,-0.509533,0.326594,-0.7911699999999999
1631192866980,-0.509045,0.326899,-0.792939
1631192866989,-0.50935,0.326594,-0.793244
1631192866999,-0.50996,0.324154,-0.790499
1631192867009,-0.51118,0.323666,-0.788791
1631192867018,-0.509838,0.32134799999999997,-0.788547
1631192867028,-0.509045,0.318786,-0.7875099999999999
1631192867037,-0.509777,0.31781,-0.784948
1631192867047,-0.50935,0.317566,-0.785314
1631192867057,-0.507642,0.31829799999999997,-0.787693
1631192867066,-0.508313,0.320006,-0.789889
1631192867076,-0.509167,0.320555,-0.791719
1631192867085,-0.509289,0.31860299999999997,-0.791536
1631192867095,-0.509289,0.31842,-0.790133
1631192867105,-0.510814,0.317871,-0.788608
1631192867114,-0.510936,0.318359,-0.7875099999999999
1631192867124,-0.511302,0.318542,-0.786656
1631192867133,-0.511302,0.318481,-0.787022
1631192867143,-0.511363,0.318969,-0.787632
1631192867153,-0.510814,0.320006,-0.788547
1631192867162,-0.511424,0.321104,-0.788242
1631192867172,-0.511485,0.32147,-0.788364
1631192867181,-0.511912,0.321104,-0.787449
1631192867191,-0.511729,0.321287,-0.788608
1631192867201,-0.510692,0.320982,-0.788608
1631192867210,-0.510692,0.32086,-0.785436
1631192867220,-0.510631,0.319396,-0.784582
1631192867229,-0.509777,0.320372,-0.785009
1631192867239,-0.510509,0.31903,-0.783606
1631192867249,-0.509838,0.32012799999999997,-0.7829349999999999
1631192867258,-0.509838,0.320311,-0.784643
1631192867268,-0.509533,0.319335,-0.784887
1631192867277,-0.510631,0.32043299999999997,-0.787937
1631192867287,-0.510997,0.319945,-0.788059
1631192867297,-0.510753,0.318481,-0.788486
1631192867306,-0.511119,0.316956,-0.788364
1631192867316,-0.5124609999999999,0.316102,-0.787083
1631192867325,-0.5124609999999999,0.314211,-0.7878149999999999
1631192867335,-0.512949,0.312747,-0.7878149999999999
1631192867345,-0.5130709999999999,0.311161,-0.787266
1631192867354,-0.513254,0.310978,-0.788974
1631192867364,-0.514108,0.3111,-0.789523
1631192867373,-0.5139859999999999,0.309758,-0.789279
1631192867383,-0.5136809999999999,0.310124,-0.789523
1631192867393,-0.513315,0.308782,-0.789401
1631192867402,-0.512888,0.309209,-0.788974
1631192867412,-0.512827,0.309514,-0.790377
1631192867421,-0.513437,0.309453,-0.7896449999999999
1631192867431,-0.513193,0.309819,-0.7902549999999999
1631192867441,-0.513193,0.30994099999999997,-0.789706
1631192867450,-0.512949,0.308355,-0.7887299999999999
1631192867460,-0.513498,0.307562,-0.788486
1631192867469,-0.51423,0.306952,-0.788608
1631192867479,-0.5133759999999999,0.305854,-0.789279
1631192867489,-0.513498,0.304817,-0.790072
1631192867498,-0.515145,0.305,-0.789401
1631192867508,-0.5145959999999999,0.304695,-0.790072
1631192867517,-0.515389,0.30384099999999997,-0.791292
1631192867527,-0.515267,0.304329,-0.790377
1631192867537,-0.516792,0.303719,-0.7905599999999999
1631192867546,-0.515755,0.303231,-0.789584
1631192867556,-0.515938,0.30256,-0.790682
1631192867565,-0.5170359999999999,0.301828,-0.790133
1631192867575,-0.5161209999999999,0.300852,-0.789767
1631192867585,-0.516365,0.300059,-0.7911699999999999
1631192867594,-0.516487,0.301279,-0.791658
1631192867604,-0.515938,0.300669,-0.792512
1631192867613,-0.5179509999999999,0.300852,-0.791841
1631192867623,-0.518378,0.302072,-0.790987
1631192867633,-0.518622,0.302682,-0.789828
1631192867642,-0.518317,0.302194,-0.788913
1631192867652,-0.518683,0.303475,-0.789096
1631192867661,-0.519232,0.304085,-0.788181
1631192867671,-0.5185,0.303048,-0.789706
1631192867681,-0.518988,0.303658,-0.7902549999999999
1631192867690,-0.518805,0.30378,-0.7905599999999999
1631192867700,-0.518378,0.30317,-0.7911699999999999
1631192867709,-0.518744,0.302316,-0.789828
1631192867719,-0.5188659999999999,0.302499,-0.789523
1631192867729,-0.518988,0.301584,-0.789096
1631192867738,-0.519354,0.30195,-0.788974
1631192867748,-0.5197809999999999,0.302072,-0.788242
1631192867757,-0.5203909999999999,0.301584,-0.788181
1631192867767,-0.5203909999999999,0.301462,-0.7884249999999999
1631192867777,-0.520818,0.300974,-0.789584
1631192867786,-0.521184,0.300547,-0.788852
1631192867796,-0.520818,0.298839,-0.7887299999999999
1631192867805,-0.5213059999999999,0.29853399999999997,-0.788608
1631192867815,-0.522343,0.299388,-0.7878149999999999
1631192867825,-0.521733,0.2989,-0.788364
1631192867834,-0.5228309999999999,0.299632,-0.789462
1631192867844,-0.522404,0.299998,-0.788608
1631192867853,-0.521794,0.299876,-0.786839
1631192867863,-0.521245,0.301279,-0.787144
1631192867873,-0.521672,0.302499,-0.785924
1631192867882,-0.522465,0.301279,-0.785802
1631192867892,-0.522648,0.301035,-0.786717
1631192867901,-0.522648,0.300425,-0.784582
1631192867911,-0.522099,0.300242,-0.783118
1631192867921,-0.52277,0.301279,-0.7835449999999999
1631192867930,-0.523075,0.302621,-0.785497
1631192867940,-0.5240509999999999,0.303353,-0.7868999999999999
1631192867949,-0.522892,0.30506099999999997,-0.7878149999999999
1631192867959,-0.523624,0.30658599999999997,-0.788059
1631192867969,-0.524539,0.30628099999999997,-0.789767
1631192867978,-0.523319,0.30561,-0.790743
1631192867988,-0.523868,0.305488,-0.7911699999999999
1631192867997,-0.524539,0.30445099999999997,-0.788913
1631192868007,-0.525759,0.30414599999999997,-0.786534
1631192868017,-0.5240509999999999,0.302377,-0.785009
1631192868026,-0.522282,0.301096,-0.7826299999999999
1631192868036,-0.5225259999999999,0.300547,-0.779641
1631192868045,-0.522953,0.300974,-0.7820199999999999
1631192868055,-0.521672,0.301218,-0.7844599999999999
1631192868065,-0.5216109999999999,0.300791,-0.786778
1631192868074,-0.52277,0.300669,-0.7872049999999999
1631192868084,-0.523014,0.300425,-0.786778
1631192868093,-0.523258,0.299937,-0.785802
1631192868103,-0.524112,0.298778,-0.784094
1631192868113,-0.524783,0.299998,-0.782874
1631192868122,-0.524661,0.30195,-0.783484
1631192868132,-0.524417,0.303658,-0.785009
1631192868141,-0.524478,0.30506099999999997,-0.785741
1631192868151,-0.524478,0.305244,-0.786168
1631192868161,-0.524234,0.305854,-0.786107
1631192868170,-0.524234,0.306098,-0.786168
1631192868180,-0.523929,0.305854,-0.786717
1631192868189,-0.5237459999999999,0.305793,-0.788059
1631192868199,-0.522465,0.30439,-0.785802
1631192868209,-0.5228309999999999,0.302804,-0.783301
1631192868218,-0.5225259999999999,0.303414,-0.783972
1631192868228,-0.522404,0.302804,-0.782752
1631192868237,-0.52277,0.302865,-0.780922
1631192868247,-0.523258,0.303414,-0.784216
1631192868257,-0.521489,0.304268,-0.785863
1631192868266,-0.522953,0.304207,-0.785924
1631192868276,-0.523014,0.30439,-0.786534
1631192868285,-0.5228309999999999,0.30439,-0.787144
1631192868295,-0.524173,0.304817,-0.7868999999999999
1631192868305,-0.524356,0.303048,-0.7856799999999999
1631192868314,-0.523014,0.303109,-0.783423
1631192868324,-0.523502,0.302377,-0.782569
1631192868333,-0.524905,0.303414,-0.783362
1631192868343,-0.522648,0.302438,-0.7853749999999999
1631192868353,-0.522953,0.302316,-0.784521
1631192868362,-0.522709,0.302987,-0.785863
1631192868372,-0.522465,0.303902,-0.7847649999999999
1631192868381,-0.523563,0.30506099999999997,-0.7856799999999999
1631192868391,-0.5234409999999999,0.305244,-0.7850699999999999
1631192868401,-0.5228309999999999,0.30567099999999997,-0.786412
1631192868410,-0.523197,0.307074,-0.785436
1631192868420,-0.522892,0.307318,-0.785192
1631192868429,-0.523014,0.30744,-0.784704
1631192868439,-0.5225259999999999,0.30689099999999997,-0.783484
1631192868449,-0.522648,0.307074,-0.782569
1631192868458,-0.523868,0.307318,-0.7829349999999999
1631192868468,-0.523807,0.306647,-0.782203
1631192868477,-0.523319,0.306525,-0.781288
1631192868487,-0.5246,0.305122,-0.781959
1631192868497,-0.524661,0.304939,-0.782996
1631192868506,-0.525271,0.30561,-0.782386
1631192868516,-0.525454,0.304268,-0.7829349999999999
1631192868525,-0.525332,0.303902,-0.7826299999999999
1631192868535,-0.52582,0.303902,-0.781837
1631192868545,-0.525698,0.304207,-0.782569
1631192868554,-0.526857,0.303902,-0.782874
1631192868564,-0.526979,0.30414599999999997,-0.784094
1631192868573,-0.527345,0.304695,-0.782874
1631192868583,-0.526186,0.305,-0.783179
1631192868593,-0.527162,0.305915,-0.782691
1631192868602,-0.528138,0.305305,-0.782447
1631192868612,-0.527711,0.305915,-0.782264
1631192868621,-0.528077,0.305549,-0.7817149999999999
1631192868631,-0.527894,0.306464,-0.781593
1631192868641,-0.528138,0.306342,-0.781776
1631192868650,-0.527528,0.306403,-0.781532
1631192868660,-0.528382,0.30597599999999997,-0.781044
1631192868669,-0.528382,0.305732,-0.780739
1631192868679,-0.528626,0.30506099999999997,-0.7807999999999999
1631192868689,-0.52948,0.306098,-0.782386
1631192868698,-0.527833,0.305549,-0.782386
1631192868708,-0.528992,0.304573,-0.782447
1631192868717,-0.528748,0.30378,-0.782508
1631192868727,-0.529053,0.303292,-0.782569
1631192868737,-0.52887,0.303048,-0.7826299999999999
1631192868746,-0.529114,0.304024,-0.7817149999999999
1631192868756,-0.528687,0.30414599999999997,-0.781837
1631192868765,-0.528809,0.30439,-0.781898
1631192868775,-0.529907,0.304512,-0.781837
1631192868785,-0.529846,0.304634,-0.780922
1631192868794,-0.529663,0.304573,-0.781166
1631192868804,-0.528748,0.305122,-0.781776
1631192868813,-0.528138,0.305732,-0.781471
1631192868823,-0.52826,0.305183,-0.780373
1631192868833,-0.528382,0.305244,-0.7795799999999999
1631192868842,-0.528138,0.30445099999999997,-0.779214
1631192868852,-0.52887,0.304085,-0.7798849999999999
1631192868861,-0.527711,0.304207,-0.780434
1631192868871,-0.529907,0.302926,-0.780617
1631192868881,-0.529785,0.30378,-0.781227
1631192868890,-0.530517,0.304329,-0.781898
1631192868900,-0.530273,0.305488,-0.780983
1631192868909,-0.529968,0.305,-0.780312
1631192868919,-0.530639,0.305,-0.779458
1631192868929,-0.529907,0.306708,-0.7814099999999999
1631192868938,-0.529846,0.305915,-0.780617
1631192868948,-0.53131,0.305915,-0.780312
1631192868957,-0.529846,0.305793,-0.7795799999999999
1631192868967,-0.529236,0.305549,-0.777933
1631192868977,-0.529968,0.305732,-0.775371
1631192868986,-0.532042,0.306708,-0.774334
1631192868996,-0.530639,0.309209,-0.778421
1631192869005,-0.529419,0.310978,-0.783423
1631192869015,-0.529602,0.313052,-0.785192
