timestamp,ax,ay,az
1631192845270,-0.2265625,0.03350830078125,0.9744873046875
1631192845270,-0.2271728515625,0.03363037109375,0.97314453125
1631192845270,-0.22491455078125,0.03924560546875,0.97259521484375
1631192845316,-0.22784423828125,0.034912109375,0.97027587890625
1631192845316,-0.22723388671875,0.03192138671875,0.967529296875
1631192845316,-0.2216796875,0.03448486328125,0.97027587890625
1631192845363,-0.2244873046875,0.0361328125,0.97052001953125
1631192845363,-0.22564697265625,0.03594970703125,0.9671630859375
1631192845363,-0.2254638671875,0.037109375,0.9688720703125
1631192845441,-0.2283935546875,0.0340576171875,0.96630859375
1631192845441,-0.22711181640625,0.03216552734375,0.96539306640625
1631192845441,-0.22479248046875,0.037841796875,0.96722412109375
1631192845519,-0.2232666015625,0.02899169921875,0.96807861328125
1631192845519,-0.2242431640625,0.02984619140625,0.96978759765625
1631192845519,-0.2242431640625,0.03564453125,0.96783447265625
1631192845551,-0.22113037109375,0.02716064453125,0.96844482421875
1631192845566,-0.2205810546875,0.03375244140625,0.97064208984375
1631192845566,-0.22210693359375,0.0301513671875,0.9708251953125
1631192845582,-0.216796875,0.03289794921875,0.97613525390625
1631192845598,-0.21820068359375,0.033935546875,0.972900390625
1631192845598,-0.2188720703125,0.03253173828125,0.97308349609375
1631192845644,-0.21807861328125,0.03765869140625,0.9725341796875
1631192845644,-0.21820068359375,0.03302001953125,0.97216796875
1631192845660,-0.217041015625,0.03546142578125,0.97430419921875
1631192845707,-0.21746826171875,0.033447265625,0.9716796875
1631192845707,-0.21966552734375,0.03466796875,0.9700927734375
1631192845707,-0.22161865234375,0.03289794921875,0.9730224609375
1631192845738,-0.2213134765625,0.03814697265625,0.97314453125
1631192845754,-0.22265625,0.04034423828125,0.9739990234375
1631192845754,-0.2227783203125,0.03924560546875,0.96893310546875
1631192845816,-0.22021484375,0.0361328125,0.96783447265625
1631192845816,-0.22198486328125,0.0362548828125,0.968505859375
1631192845816,-0.22100830078125,0.03741455078125,0.974609375
1631192845879,-0.222412109375,0.03143310546875,0.96630859375
1631192845879,-0.22479248046875,0.02862548828125,0.9686279296875
1631192845879,-0.22607421875,0.03143310546875,0.974365234375
1631192845926,-0.217529296875,0.0418701171875,0.96893310546875
1631192845926,-0.217529296875,0.042724609375,0.97003173828125
1631192845926,-0.21661376953125,0.03887939453125,0.96832275390625
1631192845988,-0.22015380859375,0.0399169921875,0.96795654296875
1631192845988,-0.21514892578125,0.036376953125,0.97393798828125
1631192845988,-0.21759033203125,0.04327392578125,0.97216796875
1631192846053,-0.221923828125,0.02508544921875,0.97406005859375
1631192846069,-0.21881103515625,0.03546142578125,0.976318359375
1631192846069,-0.218994140625,0.0277099609375,0.9794921875
1631192846100,-0.218505859375,0.032470703125,0.97320556640625
1631192846100,-0.22100830078125,0.03460693359375,0.97149658203125
1631192846100,-0.21954345703125,0.03448486328125,0.96563720703125
1631192846147,-0.22265625,0.03466796875,0.96795654296875
1631192846147,-0.2232666015625,0.03656005859375,0.9693603515625
1631192846163,-0.22222900390625,0.03338623046875,0.96466064453125
1631192846225,-0.21832275390625,0.03558349609375,0.97320556640625
1631192846225,-0.22265625,0.0382080078125,0.9716796875
1631192846225,-0.2197265625,0.0418701171875,0.97235107421875
1631192846272,-0.21929931640625,0.0369873046875,0.97357177734375
1631192846287,-0.2200927734375,0.03509521484375,0.97088623046875
1631192846287,-0.2203369140625,0.03875732421875,0.9732666015625
1631192846366,-0.22015380859375,0.0380859375,0.967041015625
1631192846366,-0.22332763671875,0.04107666015625,0.96826171875
1631192846366,-0.21978759765625,0.037353515625,0.96820068359375
1631192846397,-0.22308349609375,0.04241943359375,0.9686279296875
1631192846412,-0.22198486328125,0.0389404296875,0.9677734375
1631192846412,-0.22247314453125,0.04144287109375,0.97314453125
1631192846459,-0.22027587890625,0.03778076171875,0.96954345703125
1631192846459,-0.21905517578125,0.03515625,0.96795654296875
1631192846459,-0.22271728515625,0.03564453125,0.96728515625
1631192846537,-0.21588134765625,0.03411865234375,0.97039794921875
1631192846537,-0.2164306640625,0.0345458984375,0.97161865234375
1631192846537,-0.2176513671875,0.0333251953125,0.969970703125
1631192846600,-0.2171630859375,0.03717041015625,0.97344970703125
1631192846600,-0.21624755859375,0.0338134765625,0.9718017578125
1631192846600,-0.21856689453125,0.03704833984375,0.9693603515625
1631192846647,-0.2109375,0.033203125,0.97503662109375
1631192846647,-0.21240234375,0.0328369140625,0.97235107421875
1631192846647,-0.2164306640625,0.0340576171875,0.97222900390625
1631192846694,-0.2152099609375,0.031494140625,0.97662353515625
1631192846694,-0.2144775390625,0.031005859375,0.97735595703125
1631192846694,-0.21337890625,0.0302734375,0.97674560546875
1631192846772,-0.21209716796875,0.03106689453125,0.97625732421875
1631192846773,-0.21044921875,0.0308837890625,0.97467041015625
1631192846790,-0.21380615234375,0.03131103515625,0.97406005859375
1631192846868,-0.209228515625,0.0291748046875,0.97491455078125
1631192846868,-0.21478271484375,0.030517578125,0.974853515625
1631192846868,-0.2132568359375,0.03387451171875,0.97369384765625
1631192846868,-0.21185302734375,0.03192138671875,0.97357177734375
1631192846868,-0.21539306640625,0.0262451171875,0.96966552734375
1631192846868,-0.216796875,0.0306396484375,0.9781494140625
1631192846931,-0.2158203125,0.03546142578125,0.96978759765625
1631192846931,-0.216064453125,0.03704833984375,0.97283935546875
1631192846931,-0.21649169921875,0.028076171875,0.96856689453125
1631192846978,-0.21063232421875,0.02886962890625,0.97003173828125
1631192846978,-0.21343994140625,0.03094482421875,0.96875
1631192846978,-0.21282958984375,0.035888671875,0.97021484375
1631192847056,-0.21136474609375,0.03045654296875,0.97906494140625
1631192847056,-0.2093505859375,0.0302734375,0.97320556640625
1631192847056,-0.21002197265625,0.03131103515625,0.98126220703125
1631192847118,-0.212158203125,0.02606201171875,0.97998046875
1631192847118,-0.21209716796875,0.0323486328125,0.98004150390625
1631192847134,-0.214111328125,0.0281982421875,0.9827880859375
1631192847181,-0.21710205078125,0.03057861328125,0.9716796875
1631192847181,-0.21514892578125,0.031494140625,0.9765625
1631192847181,-0.21453857421875,0.02960205078125,0.96978759765625
1631192847243,-0.21685791015625,0.02996826171875,0.970703125
1631192847243,-0.22021484375,0.02728271484375,0.96783447265625
1631192847243,-0.21868896484375,0.0284423828125,0.970703125
1631192847290,-0.21990966796875,0.0283203125,0.96588134765625
1631192847306,-0.21978759765625,0.028564453125,0.96209716796875
1631192847306,-0.21612548828125,0.02587890625,0.96429443359375
1631192847353,-0.2176513671875,0.0177001953125,0.96728515625
1631192847353,-0.2181396484375,0.0250244140625,0.96966552734375
1631192847353,-0.21636962890625,0.0157470703125,0.96990966796875
1631192847415,-0.2139892578125,0.0159912109375,0.97344970703125
1631192847415,-0.21728515625,0.01910400390625,0.97113037109375
1631192847415,-0.21246337890625,0.01849365234375,0.9716796875
1631192847509,-0.214111328125,0.01861572265625,0.97479248046875
1631192847509,-0.2142333984375,0.013916015625,0.97271728515625
1631192847509,-0.2132568359375,0.01708984375,0.970703125
1631192847571,-0.21502685546875,0.01483154296875,0.9735107421875
1631192847571,-0.2100830078125,0.01361083984375,0.972900390625
1631192847603,-0.21051025390625,0.0150146484375,0.97442626953125
1631192847603,-0.21044921875,0.01251220703125,0.9749755859375
1631192847603,-0.20843505859375,0.01611328125,0.9755859375
1631192847665,-0.2098388671875,0.01678466796875,0.97344970703125
1631192847665,-0.21112060546875,0.015380859375,0.9722900390625
1631192847665,-0.2088623046875,0.0140380859375,0.97637939453125
1631192847774,-0.205810546875,0.01690673828125,0.97161865234375
1631192847774,-0.21063232421875,0.01873779296875,0.97113037109375
1631192847774,-0.209228515625,0.015869140625,0.9732666015625
1631192847962,-0.21124267578125,0.014892578125,0.97991943359375
1631192847962,-0.20770263671875,0.02056884765625,0.97808837890625
1631192847962,-0.20648193359375,0.0152587890625,0.97601318359375
1631192847962,-0.207763671875,0.01593017578125,0.9755859375
1631192847962,-0.20684814453125,0.01702880859375,0.9742431640625
1631192847962,-0.2069091796875,0.0152587890625,0.97607421875
1631192847993,-0.21044921875,0.00970458984375,0.97705078125
1631192847993,-0.21044921875,0.0206298828125,0.98468017578125
1631192847993,-0.2069091796875,0.01287841796875,0.96978759765625
1631192848105,-0.20513916015625,0.0194091796875,0.97210693359375
1631192848105,-0.20587158203125,0.01116943359375,0.9769287109375
1631192848105,-0.20550537109375,0.0194091796875,0.97222900390625
1631192848105,-0.20684814453125,0.01666259765625,0.97698974609375
1631192848105,-0.20343017578125,0.0167236328125,0.97381591796875
1631192848105,-0.2076416015625,0.01776123046875,0.96966552734375
1631192848105,-0.205810546875,0.015380859375,0.976318359375
1631192848105,-0.20562744140625,0.01763916015625,0.974853515625
1631192848105,-0.20953369140625,0.009765625,0.97369384765625
1631192848183,-0.20941162109375,0.0133056640625,0.974853515625
1631192848183,-0.20672607421875,0.01507568359375,0.97552490234375
1631192848183,-0.20721435546875,0.009765625,0.97344970703125
1631192848183,-0.2059326171875,0.0130615234375,0.9744873046875
1631192848199,-0.20745849609375,0.0089111328125,0.97076416015625
1631192848199,-0.2078857421875,0.0159912109375,0.97393798828125
1631192848246,-0.204833984375,0.01611328125,0.9735107421875
1631192848246,-0.20611572265625,0.01666259765625,0.97381591796875
1631192848246,-0.20416259765625,0.0167236328125,0.97613525390625
1631192848293,-0.2037353515625,0.01611328125,0.9794921875
1631192848293,-0.2022705078125,0.013427734375,0.9776611328125
1631192848308,-0.20556640625,0.0142822265625,0.97802734375
1631192848386,-0.20440673828125,0.01690673828125,0.9736328125
1631192848386,-0.2054443359375,0.01373291015625,0.9776611328125
1631192848386,-0.202392578125,0.01312255859375,0.97528076171875
1631192848449,-0.20367431640625,0.013427734375,0.97454833984375
1631192848449,-0.208251953125,0.0128173828125,0.9742431640625
1631192848449,-0.201171875,0.0140380859375,0.9727783203125
1631192848496,-0.19915771484375,0.01568603515625,0.9718017578125
1631192848496,-0.20361328125,0.01373291015625,0.9700927734375
1631192848496,-0.2037353515625,0.0142822265625,0.97369384765625
1631192848511,-0.19921875,0.0135498046875,0.9776611328125
1631192848511,-0.1976318359375,0.01776123046875,0.974609375
1631192848511,-0.19757080078125,0.016845703125,0.97637939453125
1631192848589,-0.19622802734375,0.0150146484375,0.981201171875
1631192848605,-0.19677734375,0.016845703125,0.98028564453125
1631192848605,-0.19537353515625,0.015869140625,0.97900390625
1631192848699,-0.19580078125,0.01904296875,0.97900390625
1631192848699,-0.199951171875,0.01983642578125,0.978759765625
1631192848699,-0.1982421875,0.02276611328125,0.9776611328125
1631192848699,-0.1949462890625,0.01751708984375,0.9786376953125
1631192848699,-0.1943359375,0.0185546875,0.9765625
1631192848699,-0.1988525390625,0.0264892578125,0.98052978515625
1631192848761,-0.1944580078125,0.02947998046875,0.97491455078125
1631192848777,-0.1976318359375,0.03460693359375,0.97869873046875
1631192848777,-0.19879150390625,0.0325927734375,0.98236083984375
1631192848842,-0.19915771484375,0.03228759765625,0.9765625
1631192848842,-0.194091796875,0.0435791015625,0.97747802734375
1631192848842,-0.19818115234375,0.04052734375,0.97784423828125
1631192848920,-0.191162109375,0.041748046875,0.9774169921875
1631192848920,-0.1923828125,0.03662109375,0.978271484375
1631192848920,-0.19110107421875,0.03668212890625,0.97259521484375
1631192848920,-0.1917724609375,0.03692626953125,0.97283935546875
1631192848920,-0.197021484375,0.037353515625,0.98065185546875
1631192848920,-0.18994140625,0.03826904296875,0.97967529296875
1631192849045,-0.19488525390625,0.03564453125,0.974609375
1631192849061,-0.1953125,0.03955078125,0.975341796875
1631192849061,-0.1949462890625,0.03643798828125,0.97174072265625
1631192849061,-0.19586181640625,0.03363037109375,0.977783203125
1631192849061,-0.1939697265625,0.0316162109375,0.977294921875
1631192849061,-0.1968994140625,0.03802490234375,0.97589111328125
1631192849139,-0.19329833984375,0.0426025390625,0.974853515625
1631192849139,-0.191162109375,0.04461669921875,0.97906494140625
1631192849139,-0.19171142578125,0.05255126953125,0.9791259765625
1631192849185,-0.1849365234375,0.05804443359375,0.98193359375
1631192849185,-0.18994140625,0.0562744140625,0.9808349609375
1631192849185,-0.1866455078125,0.05633544921875,0.97882080078125
1631192849232,-0.18701171875,0.05609130859375,0.98175048828125
1631192849232,-0.1856689453125,0.0579833984375,0.98370361328125
1631192849232,-0.18829345703125,0.05609130859375,0.9835205078125
1631192849326,-0.18939208984375,0.06207275390625,0.97906494140625
1631192849326,-0.18695068359375,0.0626220703125,0.97918701171875
1631192849326,-0.1885986328125,0.0595703125,0.9798583984375
1631192849357,-0.18902587890625,0.06304931640625,0.97576904296875
1631192849357,-0.18511962890625,0.06256103515625,0.97625732421875
1631192849357,-0.185791015625,0.06494140625,0.9757080078125
1631192849420,-0.18707275390625,0.059326171875,0.97747802734375
1631192849420,-0.18896484375,0.0628662109375,0.97442626953125
1631192849420,-0.18524169921875,0.06097412109375,0.97503662109375
1631192849467,-0.18603515625,0.0589599609375,0.9808349609375
1631192849467,-0.18487548828125,0.05609130859375,0.979736328125
1631192849467,-0.18536376953125,0.059814453125,0.98248291015625
1631192849514,-0.185546875,0.05999755859375,0.97918701171875
1631192849529,-0.180908203125,0.06036376953125,0.98040771484375
1631192849529,-0.1832275390625,0.06207275390625,0.98260498046875
1631192849654,-0.18768310546875,0.05810546875,0.98187255859375
1631192849654,-0.18255615234375,0.05792236328125,0.9737548828125
1631192849654,-0.18402099609375,0.06298828125,0.9765625
1631192849670,-0.185791015625,0.059814453125,0.983642578125
1631192849670,-0.185791015625,0.05792236328125,0.9813232421875
1631192849670,-0.18218994140625,0.062255859375,0.9803466796875
1631192849685,-0.18792724609375,0.05328369140625,0.97674560546875
1631192849685,-0.187255859375,0.05780029296875,0.98211669921875
1631192849685,-0.1878662109375,0.05426025390625,0.97442626953125
1631192849779,-0.18365478515625,0.061279296875,0.97943115234375
1631192849779,-0.1845703125,0.055908203125,0.97857666015625
1631192849779,-0.18096923828125,0.05853271484375,0.979736328125
1631192849795,-0.18487548828125,0.04998779296875,0.97845458984375
1631192849795,-0.1846923828125,0.052734375,0.9803466796875
1631192849795,-0.18304443359375,0.052490234375,0.9793701171875
1631192849873,-0.188232421875,0.051025390625,0.985107421875
1631192849873,-0.18878173828125,0.05084228515625,0.98004150390625
1631192849873,-0.1895751953125,0.0531005859375,0.9830322265625
1631192849920,-0.1893310546875,0.0509033203125,0.9815673828125
1631192849935,-0.194580078125,0.05047607421875,0.980224609375
1631192849935,-0.194580078125,0.0484619140625,0.97564697265625
1631192850013,-0.19775390625,0.04351806640625,0.97161865234375
1631192850013,-0.1968994140625,0.04669189453125,0.97357177734375
1631192850014,-0.19427490234375,0.04486083984375,0.97564697265625
1631192850047,-0.19622802734375,0.046142578125,0.96759033203125
1631192850047,-0.19482421875,0.046630859375,0.96990966796875
1631192850047,-0.19635009765625,0.049560546875,0.96905517578125
1631192850109,-0.18927001953125,0.04339599609375,0.96990966796875
1631192850109,-0.197265625,0.0404052734375,0.968017578125
1631192850109,-0.1859130859375,0.03973388671875,0.972900390625
1631192850172,-0.18634033203125,0.038818359375,0.97576904296875
1631192850188,-0.18109130859375,0.03668212890625,0.97845458984375
1631192850188,-0.18017578125,0.03875732421875,0.97998046875
1631192850266,-0.17730712890625,0.04010009765625,0.98162841796875
1631192850266,-0.17803955078125,0.040283203125,0.9788818359375
1631192850266,-0.17706298828125,0.0408935546875,0.982421875
1631192850344,-0.1761474609375,0.04327392578125,0.98199462890625
1631192850344,-0.1815185546875,0.04443359375,0.98419189453125
1631192850344,-0.18182373046875,0.045166015625,0.982666015625
1631192850391,-0.1829833984375,0.0357666015625,0.98663330078125
1631192850391,-0.17779541015625,0.03448486328125,0.98260498046875
1631192850391,-0.181396484375,0.03839111328125,0.9794921875
1631192850406,-0.17578125,0.03399658203125,0.983154296875
1631192850422,-0.177001953125,0.032470703125,0.97943115234375
1631192850422,-0.17852783203125,0.03271484375,0.98016357421875
1631192850500,-0.177001953125,0.03643798828125,0.98626708984375
1631192850500,-0.18121337890625,0.03839111328125,0.9844970703125
1631192850500,-0.1812744140625,0.03509521484375,0.98394775390625
1631192850562,-0.1795654296875,0.033935546875,0.9830322265625
1631192850562,-0.18280029296875,0.033203125,0.98223876953125
1631192850562,-0.18072509765625,0.0382080078125,0.984619140625
1631192850593,-0.18218994140625,0.02587890625,0.98193359375
1631192850593,-0.17999267578125,0.0341796875,0.980712890625
1631192850593,-0.17938232421875,0.03253173828125,0.982177734375
1631192850640,-0.18218994140625,0.02667236328125,0.98809814453125
1631192850640,-0.1805419921875,0.01654052734375,0.97662353515625
1631192850640,-0.18310546875,0.02313232421875,0.97711181640625
1631192850734,-0.177734375,0.0260009765625,0.97998046875
1631192850734,-0.178466796875,0.02020263671875,0.9765625
1631192850734,-0.1771240234375,0.02972412109375,0.986083984375
1631192850750,-0.1739501953125,0.022705078125,0.98248291015625
1631192850750,-0.17584228515625,0.02496337890625,0.9808349609375
1631192850750,-0.17706298828125,0.0194091796875,0.9779052734375
1631192850799,-0.1849365234375,0.01824951171875,0.989013671875
1631192850799,-0.17840576171875,0.01605224609375,0.98663330078125
1631192850799,-0.17828369140625,0.00994873046875,0.980224609375
1631192850877,-0.1827392578125,0.01409912109375,0.98028564453125
1631192850877,-0.1876220703125,0.01422119140625,0.980712890625
1631192850877,-0.1837158203125,0.010498046875,0.98443603515625
1631192850972,-0.1883544921875,0.0150146484375,0.98236083984375
1631192850972,-0.18408203125,0.023681640625,0.9755859375
1631192850972,-0.18878173828125,0.02154541015625,0.9761962890625
1631192850987,-0.18988037109375,0.01055908203125,0.9783935546875
1631192850987,-0.18896484375,0.00830078125,0.99169921875
1631192850987,-0.1890869140625,0.009521484375,0.98553466796875
1631192851143,-0.1912841796875,0.0194091796875,0.9698486328125
1631192851143,-0.193359375,0.01904296875,0.96746826171875
1631192851143,-0.18817138671875,0.01837158203125,0.9810791015625
1631192851237,-0.1956787109375,0.01983642578125,0.9737548828125
1631192851253,-0.1932373046875,0.02142333984375,0.9835205078125
1631192851253,-0.188720703125,0.013671875,1.0052490234375
1631192851351,-0.19940185546875,0.01202392578125,0.976806640625
1631192851351,-0.197509765625,0.009765625,0.97259521484375
1631192851351,-0.2025146484375,0.016357421875,0.96484375
1631192851382,-0.1976318359375,0.00531005859375,0.9677734375
1631192851382,-0.1973876953125,0.00927734375,0.96917724609375
1631192851382,-0.197998046875,0.00494384765625,0.96807861328125
1631192851444,-0.197021484375,0.00494384765625,0.975341796875
1631192851444,-0.1890869140625,0.003173828125,0.9793701171875
1631192851444,-0.19207763671875,0.00054931640625,0.9832763671875
1631192851444,-0.19268798828125,0.00433349609375,0.97686767578125
1631192851444,-0.20147705078125,0.00701904296875,0.9666748046875
1631192851444,-0.19677734375,0.00506591796875,0.971435546875
1631192851460,-0.1917724609375,0.0081787109375,0.9820556640625
1631192851460,-0.19512939453125,0.00408935546875,0.98052978515625
1631192851460,-0.19232177734375,0.0028076171875,0.9742431640625
1631192851492,-0.190673828125,0.00469970703125,0.97955322265625
1631192851492,-0.18902587890625,0.00457763671875,0.98126220703125
1631192851492,-0.19268798828125,0.00213623046875,0.98028564453125
1631192851538,-0.194091796875,-0.00067138671875,0.9794921875
1631192851538,-0.19403076171875,0.0048828125,0.98712158203125
1631192851538,-0.19451904296875,0.00360107421875,0.98443603515625
1631192851601,-0.19610595703125,0.00634765625,0.97576904296875
1631192851601,-0.195556640625,0.00408935546875,0.97430419921875
1631192851601,-0.19512939453125,0.00201416015625,0.973876953125
1631192851648,-0.1934814453125,0.00677490234375,0.97283935546875
1631192851648,-0.19610595703125,0.00701904296875,0.97467041015625
1631192851648,-0.198974609375,0.00836181640625,0.97314453125
1631192851718,-0.195556640625,0.0059814453125,0.97906494140625
1631192851718,-0.1982421875,0.0089111328125,0.9742431640625
1631192851718,-0.198974609375,0.00054931640625,0.9775390625
1631192851781,-0.199462890625,0.003662109375,0.979736328125
1631192851781,-0.20166015625,0.000244140625,0.97686767578125
1631192851781,-0.199951171875,6.103515625e-05,0.9808349609375
1631192851840,-0.19580078125,0.0040283203125,0.97406005859375
1631192851840,-0.202392578125,0.00396728515625,0.97662353515625
1631192851856,-0.19561767578125,0.002685546875,0.9747314453125
1631192851919,-0.19927978515625,0.00616455078125,0.97760009765625
1631192851919,-0.19549560546875,0.00604248046875,0.9774169921875
1631192851919,-0.19354248046875,0.010986328125,0.97772216796875
1631192851965,-0.1981201171875,0.00787353515625,0.97723388671875
1631192851965,-0.19378662109375,0.00640869140625,0.97833251953125
1631192851965,-0.19854736328125,0.00775146484375,0.97711181640625
1631192852028,-0.1942138671875,0.00494384765625,0.978271484375
1631192852028,-0.19342041015625,0.003173828125,0.9788818359375
1631192852030,-0.19854736328125,0.00262451171875,0.9765625
1631192852110,-0.1937255859375,0.0062255859375,0.975830078125
1631192852110,-0.19219970703125,0.00732421875,0.97265625
1631192852110,-0.19305419921875,0.007080078125,0.97564697265625
1631192852141,-0.1954345703125,0.0087890625,0.97412109375
1631192852141,-0.19195556640625,0.009033203125,0.97259521484375
1631192852141,-0.19244384765625,0.0057373046875,0.97344970703125
1631192852204,-0.19091796875,0.00201416015625,0.98052978515625
1631192852204,-0.1883544921875,0.0023193359375,0.9776611328125
1631192852204,-0.18841552734375,0.00408935546875,0.97564697265625
1631192852220,-0.1884765625,-0.003662109375,0.98236083984375
1631192852220,-0.18890380859375,0.00042724609375,0.98052978515625
1631192852220,-0.18634033203125,0.00067138671875,0.98101806640625
1631192852297,-0.18988037109375,0.00506591796875,0.979248046875
1631192852297,-0.19183349609375,0.0029296875,0.9815673828125
1631192852298,-0.18914794921875,0.00225830078125,0.98309326171875
1631192852360,-0.18951416015625,0.00762939453125,0.98565673828125
1631192852362,-0.1890869140625,0.00469970703125,0.97943115234375
1631192852377,-0.19720458984375,0.004150390625,0.98760986328125
1631192852438,-0.19024658203125,-0.0029296875,0.9786376953125
1631192852438,-0.192626953125,-0.0009765625,0.9884033203125
1631192852438,-0.1934814453125,0.0064697265625,0.9775390625
1631192852468,-0.1915283203125,0.01220703125,0.975830078125
1631192852468,-0.19415283203125,0.01324462890625,0.97125244140625
1631192852468,-0.192138671875,0.01495361328125,0.97247314453125
1631192852578,-0.192626953125,0.00799560546875,0.97564697265625
1631192852579,-0.1923828125,0.0072021484375,0.97332763671875
1631192852579,-0.19073486328125,0.00714111328125,0.9718017578125
1631192852625,-0.1910400390625,-0.0009765625,0.979736328125
1631192852625,-0.19354248046875,0.00579833984375,0.98089599609375
1631192852625,-0.1944580078125,0.00274658203125,0.97833251953125
1631192852640,-0.18865966796875,0.0018310546875,0.972412109375
1631192852640,-0.1923828125,0.0015869140625,0.97528076171875
1631192852640,-0.19097900390625,0.0047607421875,0.977783203125
1631192852722,-0.19219970703125,0.005859375,0.97991943359375
1631192852722,-0.1951904296875,0.00164794921875,0.974365234375
1631192852722,-0.19140625,0.00164794921875,0.97418212890625
1631192852784,-0.192626953125,0.00628662109375,0.981201171875
1631192852784,-0.1915283203125,0.00750732421875,0.9813232421875
1631192852800,-0.189453125,0.004638671875,0.98138427734375
1631192852847,-0.19110107421875,0.00396728515625,0.982421875
1631192852847,-0.188720703125,0.00469970703125,0.98199462890625
1631192852847,-0.18896484375,0.0035400390625,0.9805908203125
1631192852878,-0.19110107421875,0.00958251953125,0.9747314453125
1631192852878,-0.19134521484375,0.00640869140625,0.976318359375
1631192852878,-0.18878173828125,0.00567626953125,0.9791259765625
1631192852956,-0.19171142578125,0.0045166015625,0.976318359375
1631192852972,-0.193603515625,0.00689697265625,0.97430419921875
1631192852972,-0.191162109375,0.009033203125,0.97528076171875
1631192853003,-0.194091796875,0.0020751953125,0.9757080078125
1631192853003,-0.1912841796875,0.00665283203125,0.9764404296875
1631192853003,-0.1932373046875,0.0018310546875,0.9774169921875
1631192853084,-0.18756103515625,0.003173828125,0.9775390625
1631192853084,-0.18878173828125,-0.0003662109375,0.98004150390625
1631192853084,-0.192626953125,-0.0003662109375,0.975341796875
1631192853146,-0.18585205078125,0.00048828125,0.97930908203125
1631192853146,-0.188720703125,-0.0008544921875,0.98150634765625
1631192853146,-0.18560791015625,0.00286865234375,0.9810791015625
1631192853193,-0.18695068359375,0.0037841796875,0.98291015625
1631192853193,-0.18621826171875,0.00616455078125,0.97979736328125
1631192853193,-0.18560791015625,0.00726318359375,0.98004150390625
1631192853208,-0.19036865234375,0.0064697265625,0.98260498046875
1631192853224,-0.18829345703125,0.0054931640625,0.97900390625
1631192853225,-0.1868896484375,0.0048828125,0.98284912109375
1631192853380,-0.19122314453125,0.0142822265625,0.97454833984375
1631192853381,-0.1942138671875,0.0091552734375,0.9749755859375
1631192853381,-0.1910400390625,-6.103515625e-05,0.9766845703125
1631192853381,-0.19000244140625,0.0040283203125,0.9735107421875
1631192853381,-0.19036865234375,0.01141357421875,0.97479248046875
1631192853382,-0.19305419921875,0.00384521484375,0.98394775390625
1631192853441,-0.19158935546875,0.0047607421875,0.97601318359375
1631192853442,-0.19171142578125,0.00634765625,0.97247314453125
1631192853442,-0.19268798828125,0.00555419921875,0.97357177734375
1631192853456,-0.19085693359375,-0.0009765625,0.9818115234375
1631192853456,-0.19012451171875,0.00384521484375,0.9820556640625
1631192853457,-0.19024658203125,-0.00164794921875,0.97943115234375
1631192853549,-0.18792724609375,0.0059814453125,0.974853515625
1631192853549,-0.1929931640625,0.0009765625,0.97509765625
1631192853550,-0.1934814453125,-0.00030517578125,0.97698974609375
1631192853564,-0.18896484375,0.00225830078125,0.97772216796875
1631192853564,-0.19244384765625,0.00421142578125,0.97479248046875
1631192853581,-0.18914794921875,0.00885009765625,0.98114013671875
1631192853691,-0.1884765625,0.00775146484375,0.9813232421875
1631192853695,-0.190673828125,0.00286865234375,0.98345947265625
1631192853696,-0.19036865234375,0.008056640625,0.97943115234375
1631192853752,-0.189453125,0.0064697265625,0.97320556640625
1631192853753,-0.19122314453125,0.0052490234375,0.97894287109375
1631192853753,-0.189208984375,0.007080078125,0.96990966796875
1631192853753,-0.18975830078125,0.00360107421875,0.98199462890625
1631192853753,-0.1881103515625,0.00396728515625,0.9775390625
1631192853754,-0.18536376953125,0.00738525390625,0.9814453125
1631192853830,-0.19073486328125,0.00970458984375,0.97406005859375
1631192853830,-0.1925048828125,0.0096435546875,0.9755859375
1631192853847,-0.18975830078125,0.00970458984375,0.9727783203125
1631192853967,-0.18438720703125,-0.00079345703125,0.9771728515625
1631192853968,-0.18536376953125,0.001953125,0.97955322265625
1631192853969,-0.188720703125,-0.00067138671875,0.978271484375
1631192853970,-0.18798828125,0.00689697265625,0.9765625
1631192853970,-0.18603515625,0.00042724609375,0.97943115234375
1631192853971,-0.18585205078125,0.00341796875,0.97760009765625
1631192854014,-0.18145751953125,0.0018310546875,0.9825439453125
1631192854015,-0.18536376953125,0.00262451171875,0.9818115234375
1631192854015,-0.18475341796875,0.00335693359375,0.9830322265625
1631192854123,-0.1845703125,0.00213623046875,0.98223876953125
1631192854123,-0.18341064453125,0.00244140625,0.98468017578125
1631192854123,-0.18853759765625,0.00286865234375,0.984130859375
1631192854186,-0.18682861328125,0.0076904296875,0.97833251953125
1631192854186,-0.19091796875,0.0054931640625,0.976318359375
1631192854186,-0.18511962890625,0.003662109375,0.97857666015625
1631192854187,-0.1861572265625,0.00537109375,0.97967529296875
1631192854187,-0.1895751953125,0.00592041015625,0.9776611328125
1631192854190,-0.18548583984375,0.00616455078125,0.9810791015625
1631192854234,-0.19134521484375,0.0032958984375,0.982421875
1631192854235,-0.189453125,0.00579833984375,0.979736328125
1631192854235,-0.18896484375,-0.002685546875,0.9730224609375
1631192854290,-0.18865966796875,0.0006103515625,0.9739990234375
1631192854290,-0.1871337890625,0.0106201171875,0.9747314453125
1631192854290,-0.18792724609375,0.00762939453125,0.97564697265625
1631192854367,-0.18292236328125,0.0074462890625,0.9769287109375
1631192854367,-0.18463134765625,0.00750732421875,0.9736328125
1631192854367,-0.18682861328125,0.00823974609375,0.97698974609375
1631192854461,-0.1834716796875,0.005859375,0.98046875
1631192854461,-0.18280029296875,0.00238037109375,0.9859619140625
1631192854461,-0.1834716796875,-0.00103759765625,0.9853515625
1631192854555,-0.1866455078125,0.0045166015625,0.97833251953125
1631192854555,-0.188720703125,-0.00189208984375,0.977294921875
1631192854555,-0.18829345703125,0.001220703125,0.97503662109375
1631192854555,-0.1842041015625,-0.00433349609375,0.983154296875
1631192854557,-0.19256591796875,0.0057373046875,0.97650146484375
1631192854557,-0.1881103515625,0.00677490234375,0.97308349609375
1631192854685,-0.1890869140625,0.00732421875,0.97869873046875
1631192854685,-0.1925048828125,0.0086669921875,0.978271484375
1631192854685,-0.19183349609375,0.00567626953125,0.9803466796875
1631192854685,-0.1884765625,0.00482177734375,0.9796142578125
1631192854685,-0.19122314453125,0.00482177734375,0.97894287109375
1631192854685,-0.1885986328125,0.00653076171875,0.98089599609375
1631192854685,-0.188720703125,0.00823974609375,0.97882080078125
1631192854685,-0.18829345703125,0.00732421875,0.9744873046875
1631192854685,-0.18902587890625,0.001953125,0.97894287109375
1631192854748,-0.18804931640625,0.00689697265625,0.97705078125
1631192854763,-0.19049072265625,0.009765625,0.97802734375
1631192854763,-0.18829345703125,0.00921630859375,0.97406005859375
1631192854844,-0.18768310546875,0.0048828125,0.97613525390625
1631192854844,-0.18756103515625,0.00421142578125,0.97637939453125
1631192854860,-0.1837158203125,0.00592041015625,0.97918701171875
1631192854891,-0.1876220703125,-0.0008544921875,0.97802734375
1631192854891,-0.18603515625,-0.0008544921875,0.9764404296875
1631192854891,-0.1859130859375,0.0025634765625,0.9761962890625
1631192854938,-0.184326171875,0.00311279296875,0.98333740234375
1631192854938,-0.18402099609375,-0.00079345703125,0.9832763671875
1631192854954,-0.18426513671875,0.00299072265625,0.98187255859375
1631192855016,-0.18560791015625,0.00421142578125,0.9813232421875
1631192855016,-0.185791015625,0.0054931640625,0.98028564453125
1631192855016,-0.1827392578125,0.003173828125,0.97979736328125
1631192855126,-0.18377685546875,0.00225830078125,0.979248046875
1631192855126,-0.18975830078125,0.0059814453125,0.9783935546875
1631192855126,-0.18896484375,0.0078125,0.97772216796875
1631192855126,-0.18426513671875,0.00714111328125,0.981689453125
1631192855127,-0.188232421875,0.00439453125,0.9827880859375
1631192855127,-0.18402099609375,0.00408935546875,0.97845458984375
1631192855280,-0.187255859375,0.00518798828125,0.97943115234375
1631192855281,-0.188720703125,0.004638671875,0.9761962890625
1631192855281,-0.18701171875,0.004150390625,0.9766845703125
1631192855281,-0.187255859375,0.00653076171875,0.97857666015625
1631192855281,-0.18951416015625,0.00653076171875,0.97906494140625
1631192855282,-0.19097900390625,0.00341796875,0.98626708984375
1631192855311,-0.18829345703125,-0.00225830078125,0.9774169921875
1631192855313,-0.1881103515625,0.0052490234375,0.97943115234375
1631192855313,-0.1900634765625,-0.00543212890625,0.97308349609375
1631192855358,-0.1845703125,0.0106201171875,0.97528076171875
1631192855358,-0.18426513671875,0.01092529296875,0.97930908203125
1631192855358,-0.18829345703125,0.0120849609375,0.9765625
1631192855453,-0.18426513671875,0.0040283203125,0.98333740234375
1631192855453,-0.18359375,0.00946044921875,0.97625732421875
1631192855453,-0.183837890625,0.00115966796875,0.97674560546875
1631192855499,-0.18695068359375,-0.00384521484375,0.9842529296875
1631192855499,-0.1876220703125,-0.0030517578125,0.98046875
1631192855500,-0.185302734375,0.00115966796875,0.98260498046875
1631192855530,-0.18896484375,-0.00048828125,0.9769287109375
1631192855531,-0.18756103515625,0.00421142578125,0.97552490234375
1631192855545,-0.18798828125,0.00750732421875,0.9727783203125
1631192855654,-0.19073486328125,0.00518798828125,0.9759521484375
1631192855654,-0.185546875,0.00360107421875,0.978271484375
1631192855654,-0.1910400390625,0.00457763671875,0.97161865234375
1631192855701,-0.1900634765625,0.00994873046875,0.9801025390625
1631192855701,-0.18695068359375,0.0032958984375,0.982177734375
1631192855701,-0.18707275390625,0.00714111328125,0.9832763671875
1631192855717,-0.18798828125,0.00634765625,0.97882080078125
1631192855732,-0.1844482421875,0.0076904296875,0.9814453125
1631192855732,-0.18511962890625,0.00634765625,0.98187255859375
1631192855795,-0.1881103515625,0.00787353515625,0.97784423828125
1631192855810,-0.1904296875,0.00567626953125,0.9774169921875
1631192855810,-0.18731689453125,0.00909423828125,0.97802734375
1631192855813,-0.19049072265625,0.0047607421875,0.97900390625
1631192855813,-0.1861572265625,0.002685546875,0.97735595703125
1631192855817,-0.18707275390625,0.00616455078125,0.9781494140625
1631192855874,-0.1861572265625,0.00396728515625,0.97698974609375
1631192855874,-0.1884765625,0.0023193359375,0.9761962890625
1631192855874,-0.18719482421875,-0.000244140625,0.97821044921875
1631192855921,-0.1820068359375,-0.0001220703125,0.9781494140625
1631192855921,-0.1885986328125,-0.00201416015625,0.97686767578125
1631192855921,-0.18359375,-0.00201416015625,0.9764404296875
1631192855983,-0.18768310546875,0.0042724609375,0.9825439453125
1631192855983,-0.1861572265625,0.0001220703125,0.9810791015625
1631192855983,-0.18585205078125,0.00201416015625,0.98089599609375
1631192856077,-0.18414306640625,0.0045166015625,0.98138427734375
1631192856077,-0.18389892578125,0.00244140625,0.98406982421875
1631192856077,-0.1844482421875,0.005615234375,0.9801025390625
1631192856139,-0.18536376953125,0.00286865234375,0.976318359375
1631192856139,-0.18585205078125,0.002685546875,0.97833251953125
1631192856155,-0.18609619140625,0.0045166015625,0.982177734375
1631192856202,-0.18646240234375,0.00811767578125,0.97894287109375
1631192856202,-0.18701171875,0.0052490234375,0.978759765625
1631192856202,-0.18560791015625,0.00689697265625,0.9764404296875
1631192856264,-0.18743896484375,0.0084228515625,0.97747802734375
1631192856264,-0.1866455078125,0.00543212890625,0.97808837890625
1631192856264,-0.18939208984375,0.00604248046875,0.97882080078125
1631192856343,-0.1861572265625,-0.00238037109375,0.97979736328125
1631192856343,-0.19268798828125,0.00048828125,0.98211669921875
1631192856344,-0.18841552734375,0.00469970703125,0.979736328125
1631192856393,-0.18670654296875,-0.0032958984375,0.97314453125
1631192856393,-0.19091796875,0.0111083984375,0.97943115234375
1631192856393,-0.187744140625,0.00103759765625,0.9757080078125
1631192856439,-0.187255859375,0.0106201171875,0.9814453125
1631192856439,-0.186767578125,0.00958251953125,0.97625732421875
1631192856533,-0.18780517578125,-0.00048828125,0.98284912109375
1631192856533,-0.18829345703125,0.00048828125,0.9749755859375
1631192856533,-0.18292236328125,-0.00042724609375,0.98040771484375
1631192856533,-0.18743896484375,-0.0050048828125,0.97772216796875
1631192856549,-0.190673828125,-0.004150390625,0.980712890625
1631192856549,-0.18719482421875,0.00250244140625,0.9810791015625
1631192856611,-0.188232421875,0.00164794921875,0.9705810546875
1631192856611,-0.19195556640625,0.0037841796875,0.97760009765625
1631192856611,-0.18798828125,0.002685546875,0.97540283203125
1631192856736,-0.18768310546875,0.0006103515625,0.9754638671875
1631192856736,-0.189208984375,0.00543212890625,0.98309326171875
1631192856736,-0.1854248046875,0.00421142578125,0.98297119140625
1631192856768,-0.1844482421875,0.0062255859375,0.98126220703125
1631192856768,-0.18450927734375,0.00762939453125,0.97998046875
1631192856768,-0.18450927734375,0.00762939453125,0.97857666015625
1631192856768,-0.18707275390625,0.00286865234375,0.97943115234375
1631192856768,-0.18853759765625,0.00872802734375,0.982421875
1631192856768,-0.1866455078125,0.007568359375,0.9798583984375
1631192856911,-0.1866455078125,0.00457763671875,0.9788818359375
1631192856911,-0.18756103515625,0.00604248046875,0.979736328125
1631192856911,-0.18890380859375,0.00634765625,0.97833251953125
1631192856958,-0.18792724609375,0.00732421875,0.97869873046875
1631192856958,-0.18524169921875,0.00018310546875,0.975341796875
1631192856958,-0.1815185546875,-0.00067138671875,0.97747802734375
1631192856958,-0.188232421875,0.005859375,0.97747802734375
1631192856958,-0.18878173828125,0.00335693359375,0.97735595703125
1631192856958,-0.18792724609375,0.0018310546875,0.97491455078125
1631192857005,-0.18499755859375,0.00299072265625,0.97943115234375
1631192857021,-0.18316650390625,-0.00244140625,0.9798583984375
1631192857021,-0.182373046875,0.00091552734375,0.981201171875
1631192857099,-0.1829833984375,0.000732421875,0.98150634765625
1631192857114,-0.18475341796875,0.0042724609375,0.982421875
1631192857114,-0.18304443359375,0.00738525390625,0.981689453125
1631192857192,-0.18603515625,0.00262451171875,0.98089599609375
1631192857192,-0.184814453125,0.004638671875,0.9822998046875
1631192857192,-0.18646240234375,0.0040283203125,0.98193359375
1631192857255,-0.1895751953125,0.00360107421875,0.976806640625
1631192857255,-0.18817138671875,0.00408935546875,0.975830078125
1631192857255,-0.1873779296875,0.00555419921875,0.98028564453125
1631192857270,-0.18341064453125,0.00238037109375,0.9779052734375
1631192857270,-0.18701171875,0.00372314453125,0.97857666015625
1631192857270,-0.1873779296875,-0.00067138671875,0.98162841796875
1631192857317,-0.185302734375,0.00592041015625,0.97906494140625
1631192857317,-0.18597412109375,0.0062255859375,0.9774169921875
1631192857317,-0.1912841796875,0.00531005859375,0.97747802734375
1631192857364,-0.19195556640625,-0.00152587890625,0.97039794921875
1631192857364,-0.19091796875,0.0018310546875,0.982177734375
1631192857364,-0.18963623046875,-0.00408935546875,0.96759033203125
1631192857473,-0.19036865234375,0.0185546875,0.95758056640625
1631192857473,-0.1953125,0.01904296875,0.93975830078125
1631192857473,-0.187255859375,0.0115966796875,0.970703125
1631192857583,-0.20391845703125,0.0223388671875,0.9117431640625
1631192857583,-0.220458984375,0.0184326171875,0.89404296875
1631192857583,-0.214111328125,0.01629638671875,0.8909912109375
1631192857614,-0.18536376953125,-0.01300048828125,0.92718505859375
1631192857630,-0.21124267578125,-0.00164794921875,0.9139404296875
1631192857630,-0.21990966796875,0.00494384765625,0.90142822265625
1631192857645,-0.13494873046875,-0.01959228515625,1.00299072265625
1631192857645,-0.16168212890625,-0.02093505859375,0.96697998046875
1631192857661,-0.1116943359375,-0.0115966796875,1.021484375
1631192857723,-0.082763671875,-0.00531005859375,1.02789306640625
1631192857723,-0.05743408203125,-0.00665283203125,1.03759765625
1631192857723,-0.00689697265625,0.00390625,1.05841064453125
1631192857723,-0.0108642578125,0.00347900390625,1.05889892578125
1631192857723,-0.02252197265625,-0.00018310546875,1.0556640625
1631192857723,-0.0390625,-0.00482177734375,1.04718017578125
1631192857806,-0.00189208984375,-0.01239013671875,1.04095458984375
1631192857806,0.00091552734375,-0.0029296875,1.055908203125
1631192857806,0.0018310546875,-0.0052490234375,1.05157470703125
1631192857822,-0.001953125,-0.01007080078125,1.0047607421875
1631192857822,0.00048828125,-0.00518798828125,1.0328369140625
1631192857822,0.00054931640625,-0.009033203125,1.01873779296875
1631192857884,-0.0052490234375,-0.00201416015625,0.99493408203125
1631192857900,-0.00811767578125,-0.0009765625,0.98828125
1631192857900,-0.008056640625,-0.0032958984375,0.9832763671875
1631192858009,-0.01019287109375,-0.00439453125,0.9849853515625
1631192858009,-0.00811767578125,0.000732421875,0.9835205078125
1631192858009,-0.0054931640625,-0.00189208984375,0.9835205078125
1631192858056,-0.0096435546875,-0.01202392578125,1.015380859375
1631192858056,-0.00836181640625,-0.00830078125,0.99420166015625
1631192858056,-0.00439453125,-0.0107421875,1.0068359375
1631192858134,-0.00885009765625,-0.01141357421875,1.0201416015625
1631192858134,-0.020263671875,-0.0079345703125,1.01995849609375
1631192858134,-0.01702880859375,-0.00946044921875,1.01995849609375
1631192858197,-0.035400390625,-0.003173828125,1.00872802734375
1631192858197,-0.0272216796875,-0.00433349609375,1.0155029296875
1631192858212,-0.0428466796875,0.0037841796875,1.00274658203125
1631192858243,-0.05596923828125,0.0048828125,1.00030517578125
1631192858243,-0.048828125,0.00103759765625,1.005126953125
1631192858337,-0.0675048828125,0.00970458984375,0.991943359375
1631192858337,-0.0654296875,0.007080078125,0.98931884765625
1631192858353,-0.0594482421875,0.00616455078125,0.99188232421875
1631192858415,-0.0645751953125,0.0096435546875,0.98583984375
1631192858415,-0.05828857421875,0.01043701171875,0.98516845703125
1631192858415,-0.063720703125,0.007080078125,0.98785400390625
1631192858446,-0.0355224609375,0.0101318359375,0.98858642578125
1631192858446,-0.04669189453125,0.0054931640625,0.9892578125
1631192858446,-0.05474853515625,0.01129150390625,0.988037109375
1631192858446,-0.0325927734375,0.0142822265625,1.00787353515625
1631192858446,-0.0528564453125,0.00927734375,0.99658203125
1631192858462,-0.04034423828125,0.00408935546875,0.99267578125
1631192858493,-0.01568603515625,0.0084228515625,0.9945068359375
1631192858493,-0.02252197265625,0.0098876953125,0.994140625
1631192858493,-0.025390625,0.0113525390625,0.9981689453125
1631192858587,-0.01605224609375,0.00030517578125,1.005859375
1631192858587,-0.016357421875,0.00701904296875,0.99957275390625
1631192858587,-0.01171875,0.0042724609375,1.001953125
1631192858634,-0.01666259765625,-0.0050048828125,1.0068359375
1631192858634,-0.0162353515625,-0.00628662109375,1.00823974609375
1631192858634,-0.015869140625,-0.0001220703125,1.00732421875
1631192858681,-0.02020263671875,-0.003662109375,1.00909423828125
1631192858681,-0.02203369140625,-0.00347900390625,1.00537109375
1631192858681,-0.0281982421875,-0.00665283203125,1.00482177734375
1631192858759,-0.03271484375,0.00128173828125,1.0076904296875
1631192858759,-0.0369873046875,0.00189208984375,1.00653076171875
1631192858759,-0.0394287109375,0.0028076171875,1.00341796875
1631192858806,-0.04595947265625,0.00146484375,1.0052490234375
1631192858806,-0.04205322265625,0.0006103515625,1.00079345703125
1631192858806,-0.048095703125,0.0020751953125,1.00286865234375
1631192858853,-0.057373046875,0.00537109375,0.99749755859375
1631192858853,-0.05023193359375,0.00225830078125,1.00634765625
1631192858853,-0.0562744140625,0.0032958984375,1.00115966796875
1631192858946,-0.0567626953125,0.0048828125,0.9937744140625
1631192858946,-0.05706787109375,0.006103515625,0.99407958984375
1631192858946,-0.05914306640625,0.0028076171875,0.99530029296875
1631192859087,-0.05621337890625,0.00823974609375,0.9945068359375
1631192859087,-0.059814453125,0.00616455078125,0.992919921875
1631192859087,-0.05859375,0.00518798828125,0.99566650390625
1631192859134,-0.0556640625,0.00714111328125,0.9940185546875
1631192859149,-0.0535888671875,0.00592041015625,0.98907470703125
1631192859149,-0.0574951171875,0.00860595703125,0.99212646484375
1631192859165,-0.04949951171875,0.00592041015625,0.9971923828125
1631192859194,-0.0516357421875,0.00689697265625,0.99163818359375
1631192859194,-0.0484619140625,0.00775146484375,0.9940185546875
1631192859194,-0.0498046875,0.00421142578125,0.9949951171875
1631192859194,-0.05078125,0.0052490234375,0.9959716796875
1631192859303,-0.04595947265625,0.00579833984375,1.00421142578125
1631192859303,-0.05096435546875,0.0093994140625,0.9967041015625
1631192859303,-0.0438232421875,0.0093994140625,1.0032958984375
1631192859319,-0.04486083984375,0.00714111328125,1.0028076171875
1631192859319,-0.0487060546875,0.00927734375,1.0048828125
1631192859319,-0.05059814453125,0.00604248046875,1.00225830078125
1631192859366,-0.053955078125,0.00665283203125,1.0042724609375
1631192859366,-0.05322265625,0.0107421875,1.0023193359375
1631192859366,-0.06707763671875,0.0074462890625,0.99896240234375
1631192859366,-0.06317138671875,0.01129150390625,1.0001220703125
1631192859366,-0.05120849609375,0.01068115234375,1.002685546875
1631192859366,-0.065185546875,0.01251220703125,1.0045166015625
1631192859452,-0.06341552734375,0.01141357421875,0.9971923828125
1631192859468,-0.0645751953125,0.0098876953125,0.996826171875
1631192859468,-0.064697265625,0.0086669921875,0.9984130859375
1631192859468,-0.06866455078125,0.01416015625,0.9970703125
1631192859491,-0.063720703125,0.01544189453125,1.00103759765625
1631192859547,-0.06695556640625,-0.0013427734375,0.99609375
1631192859548,-0.0728759765625,-0.00140380859375,0.9947509765625
1631192859548,-0.06439208984375,-0.00030517578125,0.99652099609375
1631192859607,-0.07318115234375,-0.00018310546875,0.9892578125
1631192859607,-0.070068359375,-0.007568359375,0.99249267578125
1631192859607,-0.070068359375,-0.0050048828125,0.99688720703125
1631192859716,-0.06890869140625,-0.00213623046875,0.9935302734375
1631192859718,-0.07135009765625,-0.00250244140625,0.9925537109375
1631192859721,-0.06884765625,0.00140380859375,0.98907470703125
1631192859723,-0.07098388671875,-0.00146484375,0.99493408203125
1631192859724,-0.07000732421875,-0.00177001953125,0.9954833984375
1631192859725,-0.0706787109375,0.00048828125,0.9901123046875
1631192859874,-0.066162109375,-0.008544921875,0.99945068359375
1631192859890,-0.06817626953125,-0.00128173828125,0.9974365234375
1631192859890,-0.06622314453125,-0.00390625,0.99566650390625
1631192859906,-0.0709228515625,-0.00640869140625,1.001953125
1631192859907,-0.06793212890625,-0.00518798828125,0.999755859375
1631192859922,-0.0672607421875,-0.0086669921875,0.999267578125
1631192859952,-0.0687255859375,-0.0015869140625,1.001953125
1631192859952,-0.0704345703125,6.103515625e-05,1.00238037109375
1631192859953,-0.06817626953125,-0.00384521484375,1.000244140625
1631192860014,-0.0728759765625,-0.00445556640625,0.99298095703125
1631192860014,-0.0726318359375,-6.103515625e-05,0.990966796875
1631192860014,-0.06854248046875,-0.00103759765625,0.9942626953125
1631192860024,-0.0701904296875,-0.00250244140625,0.9952392578125
1631192860030,-0.065673828125,-0.00555419921875,1.00482177734375
1631192860033,-0.0701904296875,-0.004638671875,1.0028076171875
1631192860078,-0.07318115234375,0.00042724609375,0.99200439453125
1631192860091,-0.07757568359375,0.00201416015625,0.99761962890625
1631192860091,-0.07379150390625,0.0047607421875,0.99871826171875
1631192860236,-0.074951171875,0.00439453125,0.9930419921875
1631192860237,-0.07318115234375,0.00384521484375,0.993408203125
1631192860243,-0.07513427734375,-0.00018310546875,0.9945068359375
1631192860248,-0.07269287109375,0.00341796875,0.9932861328125
1631192860248,-0.074462890625,0.00518798828125,0.99951171875
1631192860248,-0.07452392578125,0.00347900390625,0.99713134765625
1631192860250,-0.07373046875,0.00799560546875,0.99053955078125
1631192860251,-0.07391357421875,0.00146484375,0.998291015625
1631192860253,-0.07244873046875,0.00518798828125,0.9998779296875
1631192860346,-0.079345703125,0.00408935546875,1.00775146484375
1631192860346,-0.0777587890625,0.00433349609375,1.00164794921875
1631192860347,-0.07220458984375,0.00531005859375,1.00018310546875
1631192860439,-0.08001708984375,-0.00335693359375,0.995361328125
1631192860439,-0.0819091796875,0.00421142578125,0.994140625
1631192860440,-0.08135986328125,-0.0030517578125,0.9993896484375
1631192860487,-0.07879638671875,-0.0008544921875,1.00128173828125
1631192860487,-0.07818603515625,0.00323486328125,0.998779296875
1631192860488,-0.08447265625,0.001220703125,0.9957275390625
1631192860488,-0.07781982421875,0.00372314453125,0.99334716796875
1631192860489,-0.07586669921875,0.00482177734375,0.991943359375
1631192860489,-0.08184814453125,0.004150390625,0.99139404296875
1631192860565,-0.0867919921875,-0.00689697265625,0.998291015625
1631192860565,-0.0872802734375,-0.00482177734375,0.9976806640625
1631192860566,-0.0838623046875,-0.0040283203125,0.99761962890625
1631192860642,-0.0880126953125,0.00091552734375,0.9931640625
1631192860642,-0.08599853515625,0.000732421875,0.99774169921875
1631192860642,-0.0888671875,-0.00250244140625,0.9930419921875
1631192860642,-0.08734130859375,-0.00042724609375,0.9951171875
1631192860646,-0.08660888671875,0.00048828125,0.9940185546875
1631192860646,-0.09185791015625,-0.0003662109375,0.9920654296875
1631192860722,-0.0902099609375,0.000732421875,0.997314453125
1631192860722,-0.08953857421875,0.00396728515625,0.99658203125
1631192860722,-0.0919189453125,0.00244140625,0.99481201171875
1631192860784,-0.0933837890625,0.00323486328125,0.99603271484375
1631192860800,-0.09002685546875,0.00494384765625,0.99554443359375
1631192860800,-0.09033203125,0.0009765625,0.9989013671875
1631192860832,-0.09527587890625,0.00469970703125,0.99261474609375
1631192860832,-0.0904541015625,0.0032958984375,0.995361328125
1631192860833,-0.0968017578125,0.00341796875,0.995849609375
1631192860899,-0.094970703125,0.00396728515625,0.9921875
1631192860899,-0.09246826171875,0.00457763671875,0.9903564453125
1631192860899,-0.09613037109375,0.0001220703125,0.989501953125
1631192860977,-0.0941162109375,-0.0001220703125,0.99053955078125
1631192860977,-0.096435546875,6.103515625e-05,0.98980712890625
1631192860977,-0.0968017578125,0.0009765625,0.98760986328125
1631192861039,-0.09381103515625,0.0013427734375,0.99700927734375
1631192861039,-0.09600830078125,0.00457763671875,0.99267578125
1631192861039,-0.09368896484375,0.00543212890625,0.992919921875
1631192861086,-0.09381103515625,0.0009765625,0.997314453125
1631192861086,-0.093017578125,-0.0015869140625,0.9947509765625
1631192861086,-0.09564208984375,-0.00286865234375,0.9969482421875
1631192861133,-0.094482421875,-0.000732421875,0.993408203125
1631192861133,-0.09527587890625,-0.0076904296875,0.9984130859375
1631192861133,-0.09710693359375,-0.00433349609375,0.991943359375
1631192861195,-0.09881591796875,-0.01336669921875,1.00146484375
1631192861195,-0.1004638671875,-0.01129150390625,0.99591064453125
1631192861195,-0.09405517578125,-0.00860595703125,0.99969482421875
1631192861305,-0.10595703125,-0.01593017578125,0.98809814453125
1631192861306,-0.1019287109375,-0.015625,0.9930419921875
1631192861322,-0.1005859375,-0.0147705078125,0.99761962890625
1631192861337,-0.10040283203125,-0.01080322265625,0.98797607421875
1631192861337,-0.10125732421875,-0.00830078125,0.98919677734375
1631192861337,-0.104736328125,-0.0087890625,0.99090576171875
1631192861383,-0.10650634765625,-0.0074462890625,0.99371337890625
1631192861383,-0.10565185546875,-0.01251220703125,0.98974609375
1631192861383,-0.1053466796875,-0.00921630859375,0.991943359375
1631192861429,-0.10943603515625,-0.013916015625,0.99462890625
1631192861445,-0.11224365234375,-0.01055908203125,0.9931640625
1631192861445,-0.11065673828125,-0.01214599609375,0.99200439453125
1631192861539,-0.1121826171875,-0.0074462890625,0.99456787109375
1631192861540,-0.11212158203125,-0.010986328125,0.9910888671875
1631192861540,-0.11273193359375,-0.00927734375,0.98980712890625
1631192861601,-0.11395263671875,-0.01470947265625,0.98760986328125
1631192861602,-0.114501953125,-0.00848388671875,0.9888916015625
1631192861602,-0.1138916015625,-0.00909423828125,0.9876708984375
1631192861632,-0.11431884765625,-0.00323486328125,0.99169921875
1631192861633,-0.12109375,-0.010009765625,0.9898681640625
1631192861633,-0.11968994140625,-0.00592041015625,0.98834228515625
1631192861695,-0.1160888671875,-0.0078125,0.99163818359375
1631192861695,-0.11785888671875,-0.0098876953125,0.99053955078125
1631192861695,-0.11669921875,-0.013916015625,0.99261474609375
1631192861762,-0.11749267578125,-0.0130615234375,0.98822021484375
1631192861773,-0.11553955078125,-0.00982666015625,0.98846435546875
1631192861773,-0.12109375,-0.0103759765625,0.99249267578125
1631192861789,-0.119140625,-0.00750732421875,0.9893798828125
1631192861789,-0.1168212890625,-0.00909423828125,0.9886474609375
1631192861789,-0.1158447265625,-0.00982666015625,0.98565673828125
1631192861835,-0.11712646484375,-0.01116943359375,0.98516845703125
1631192861835,-0.122802734375,-0.01287841796875,0.9862060546875
1631192861930,-0.11199951171875,-0.01483154296875,0.99273681640625
1631192861932,-0.11688232421875,-0.01202392578125,0.982666015625
1631192861933,-0.11297607421875,-0.01409912109375,0.99102783203125
1631192862069,-0.11370849609375,-0.01104736328125,0.98834228515625
1631192862069,-0.1109619140625,-0.012451171875,0.99755859375
1631192862070,-0.11083984375,-0.0126953125,0.9940185546875
1631192862116,-0.10687255859375,-0.01080322265625,0.99383544921875
1631192862117,-0.11004638671875,-0.01141357421875,0.9930419921875
1631192862120,-0.1099853515625,-0.00665283203125,0.99127197265625
1631192862152,-0.10711669921875,-0.008544921875,0.9974365234375
1631192862155,-0.102783203125,-0.00689697265625,0.9949951171875
1631192862165,-0.11114501953125,-0.00592041015625,0.99676513671875
1631192862179,-0.1029052734375,-0.00537109375,0.99871826171875
1631192862179,-0.10791015625,-0.0081787109375,1.000244140625
1631192862180,-0.11102294921875,-0.00543212890625,1.0037841796875
1631192862210,-0.10955810546875,-0.01483154296875,0.985595703125
1631192862210,-0.1053466796875,-0.0118408203125,0.98760986328125
1631192862211,-0.113037109375,-0.00244140625,0.98760986328125
1631192862240,-0.1092529296875,-0.00457763671875,0.98809814453125
1631192862240,-0.1102294921875,-0.0040283203125,0.987060546875
1631192862240,-0.11126708984375,-0.00494384765625,0.98773193359375
1631192862318,-0.10693359375,-0.0062255859375,0.989990234375
1631192862318,-0.11083984375,-0.0068359375,0.9893798828125
1631192862319,-0.110107421875,-0.00933837890625,0.9945068359375
1631192862381,-0.113037109375,-0.01495361328125,0.99090576171875
1631192862381,-0.11077880859375,-0.01318359375,0.99664306640625
1631192862381,-0.11029052734375,-0.01336669921875,0.9925537109375
1631192862443,-0.11602783203125,-0.0086669921875,0.99395751953125
1631192862443,-0.1094970703125,-0.0098876953125,0.9891357421875
1631192862443,-0.1070556640625,-0.010498046875,0.98828125
1631192862475,-0.11126708984375,-0.00946044921875,0.99200439453125
1631192862475,-0.11138916015625,-0.0086669921875,0.99481201171875
1631192862475,-0.1124267578125,-0.00836181640625,0.99066162109375
1631192862585,-0.11260986328125,-0.00909423828125,0.992431640625
1631192862588,-0.109375,-0.006591796875,0.99237060546875
1631192862588,-0.11083984375,-0.0068359375,0.9949951171875
1631192862630,-0.1109619140625,-0.00469970703125,0.9935302734375
1631192862630,-0.11041259765625,-0.00665283203125,0.99114990234375
1631192862631,-0.11328125,-0.00732421875,0.9927978515625
1631192862708,-0.11248779296875,-0.0062255859375,0.98846435546875
1631192862708,-0.1168212890625,0.0006103515625,0.9898681640625
1631192862708,-0.11279296875,-0.001708984375,0.9874267578125
1631192862708,-0.11309814453125,-0.00469970703125,0.99066162109375
1631192862709,-0.1112060546875,-0.00433349609375,0.98980712890625
1631192862724,-0.11407470703125,-0.0015869140625,0.986328125
1631192862786,-0.10894775390625,-0.00677490234375,0.988037109375
1631192862788,-0.1082763671875,-0.002685546875,0.99066162109375
1631192862788,-0.10986328125,-0.01116943359375,0.993408203125
1631192862834,-0.111083984375,-0.01129150390625,0.99517822265625
1631192862834,-0.10418701171875,-0.01171875,0.9931640625
1631192862834,-0.10418701171875,-0.0072021484375,0.99432373046875
1631192862912,-0.10406494140625,-0.00787353515625,0.99688720703125
1631192862912,-0.10284423828125,-0.00994873046875,0.99542236328125
1631192862912,-0.10675048828125,-0.00836181640625,0.99639892578125
1631192863005,-0.1090087890625,-0.0047607421875,0.99371337890625
1631192863005,-0.10614013671875,-0.0078125,0.9920654296875
1631192863006,-0.1065673828125,-0.007568359375,0.99267578125
1631192863052,-0.10931396484375,-0.0078125,0.99151611328125
1631192863053,-0.10821533203125,-0.0062255859375,0.99176025390625
1631192863053,-0.10662841796875,-0.0084228515625,0.99468994140625
1631192863177,-0.11273193359375,-0.00982666015625,0.9921875
1631192863177,-0.11370849609375,-0.005615234375,0.991943359375
1631192863177,-0.11083984375,-0.00457763671875,0.9903564453125
1631192863253,-0.1097412109375,-0.00750732421875,0.99102783203125
1631192863253,-0.107421875,-0.00537109375,0.99285888671875
1631192863254,-0.1103515625,-0.00482177734375,0.98736572265625
1631192863260,-0.11065673828125,-0.0040283203125,0.99072265625
1631192863261,-0.11322021484375,-0.0107421875,0.989990234375
1631192863263,-0.11224365234375,-0.00738525390625,0.991943359375
1631192863349,-0.10980224609375,-0.007080078125,0.9935302734375
1631192863349,-0.11248779296875,-0.008544921875,0.9990234375
1631192863350,-0.11334228515625,-0.0052490234375,0.99609375
1631192863350,-0.11297607421875,-0.01519775390625,0.98876953125
1631192863363,-0.11187744140625,-0.012939453125,0.989990234375
1631192863364,-0.1109619140625,-0.00469970703125,0.9873046875
1631192863424,-0.1124267578125,-0.00244140625,0.99163818359375
1631192863424,-0.10791015625,-0.000732421875,0.98974609375
1631192863424,-0.10943603515625,-6.103515625e-05,0.994140625
1631192863457,-0.10833740234375,-0.00738525390625,0.99755859375
1631192863457,-0.11151123046875,-0.00140380859375,0.98724365234375
1631192863461,-0.10577392578125,-0.00140380859375,0.9908447265625
1631192863519,-0.11090087890625,-0.01568603515625,0.9896240234375
1631192863519,-0.11090087890625,-0.010009765625,0.9951171875
1631192863519,-0.11212158203125,-0.01312255859375,1.00054931640625
1631192863596,-0.10931396484375,-0.00933837890625,0.9913330078125
1631192863596,-0.1109619140625,-0.00555419921875,0.9915771484375
1631192863596,-0.1112060546875,-0.0111083984375,0.99114990234375
1631192863596,-0.11260986328125,-0.008544921875,0.989501953125
1631192863596,-0.1143798828125,-0.0076904296875,0.990234375
1631192863597,-0.112060546875,-0.01031494140625,0.98944091796875
1631192863675,-0.11505126953125,-0.005126953125,0.9931640625
1631192863676,-0.1087646484375,-0.00677490234375,0.99163818359375
1631192863680,-0.11212158203125,-0.00537109375,0.99200439453125
1631192863747,-0.10870361328125,-0.00848388671875,0.9915771484375
1631192863747,-0.11181640625,-0.0050048828125,0.9942626953125
1631192863747,-0.1090087890625,-0.00665283203125,0.99127197265625
1631192863810,-0.112060546875,-0.00604248046875,0.99114990234375
1631192863810,-0.1104736328125,-0.0064697265625,0.99151611328125
1631192863810,-0.11114501953125,-0.004150390625,0.98974609375
1631192863856,-0.11297607421875,-0.00469970703125,0.99163818359375
1631192863856,-0.10919189453125,-0.005859375,0.9862060546875
1631192863856,-0.1104736328125,-0.0057373046875,0.99102783203125
1631192863907,-0.1094970703125,-0.00640869140625,0.99322509765625
1631192863908,-0.10772705078125,-0.00848388671875,0.9932861328125
1631192863920,-0.10906982421875,-0.00531005859375,0.99005126953125
1631192863990,-0.10565185546875,-0.0115966796875,0.995361328125
1631192863990,-0.10552978515625,-0.01031494140625,0.99139404296875
1631192863990,-0.1075439453125,-0.0107421875,0.99420166015625
1631192864130,-0.106201171875,-0.0089111328125,0.99285888671875
1631192864130,-0.10809326171875,-0.01068115234375,0.99432373046875
1631192864130,-0.10845947265625,-0.012451171875,0.99365234375
1631192864161,-0.10693359375,-0.006591796875,0.99310302734375
1631192864161,-0.10784912109375,-0.00518798828125,0.992919921875
1631192864161,-0.10821533203125,-0.00714111328125,0.9935302734375
1631192864193,-0.10882568359375,-0.0087890625,0.99371337890625
1631192864193,-0.10711669921875,-0.0093994140625,0.99267578125
1631192864193,-0.1075439453125,-0.0089111328125,0.99273681640625
1631192864208,-0.11004638671875,-0.0089111328125,0.99395751953125
1631192864208,-0.10797119140625,-0.010986328125,0.9935302734375
1631192864208,-0.1077880859375,-0.01007080078125,0.9932861328125
1631192864271,-0.109619140625,-0.008056640625,0.99102783203125
1631192864271,-0.10919189453125,-0.00738525390625,0.99053955078125
1631192864271,-0.11175537109375,-0.00775146484375,0.9923095703125
1631192864302,-0.11260986328125,-0.0081787109375,0.99139404296875
1631192864302,-0.11114501953125,-0.00677490234375,0.991455078125
1631192864302,-0.1141357421875,-0.00872802734375,0.99090576171875
1631192864349,-0.11260986328125,-0.0062255859375,0.9903564453125
1631192864365,-0.11273193359375,-0.00616455078125,0.9921875
1631192864365,-0.11431884765625,-0.01318359375,0.9970703125
1631192864459,-0.11309814453125,-0.00469970703125,0.98828125
1631192864459,-0.11102294921875,-0.01055908203125,0.99322509765625
1631192864459,-0.1142578125,-0.01422119140625,0.98614501953125
1631192864490,-0.10858154296875,-0.00439453125,0.98980712890625
1631192864490,-0.10931396484375,-0.0047607421875,0.9931640625
1631192864490,-0.1107177734375,-0.00213623046875,0.9923095703125
1631192864536,-0.1138916015625,-0.0035400390625,0.9931640625
1631192864536,-0.11126708984375,-0.00360107421875,0.98468017578125
1631192864536,-0.110107421875,-0.0047607421875,0.98858642578125
1631192864615,-0.11212158203125,-0.00848388671875,0.9949951171875
1631192864630,-0.1119384765625,-0.0108642578125,0.9920654296875
1631192864630,-0.1103515625,-0.01275634765625,0.9952392578125
1631192864755,-0.11297607421875,-0.0081787109375,0.988525390625
1631192864755,-0.1182861328125,-0.00860595703125,0.98919677734375
1631192864755,-0.11663818359375,-0.00775146484375,0.9912109375
1631192864755,-0.11578369140625,-0.00787353515625,0.98968505859375
1631192864755,-0.114013671875,-0.0101318359375,0.98870849609375
1631192864755,-0.1158447265625,-0.0081787109375,0.990478515625
1631192864802,-0.11688232421875,-0.00238037109375,0.99365234375
1631192864802,-0.11688232421875,-0.00146484375,0.99505615234375
1631192864802,-0.11309814453125,-0.0064697265625,0.99334716796875
1631192864849,-0.11572265625,-0.00592041015625,0.9918212890625
1631192864849,-0.119140625,-0.00616455078125,0.99310302734375
1631192864849,-0.1170654296875,-0.003662109375,0.9937744140625
1631192864927,-0.11688232421875,-0.00518798828125,0.9910888671875
1631192864927,-0.11932373046875,-0.00311279296875,0.9842529296875
1631192864927,-0.11798095703125,-0.00408935546875,0.9927978515625
1631192864993,-0.1180419921875,-0.00238037109375,0.99066162109375
1631192864993,-0.120361328125,-0.0030517578125,0.9869384765625
1631192864993,-0.11614990234375,-0.0015869140625,0.98980712890625
1631192865024,-0.1190185546875,-0.00506591796875,0.98809814453125
1631192865024,-0.11834716796875,-0.01190185546875,0.986083984375
1631192865024,-0.1197509765625,-0.0040283203125,0.98968505859375
1631192865086,-0.1153564453125,-0.00909423828125,0.98834228515625
1631192865086,-0.119873046875,-0.0103759765625,0.988037109375
1631192865086,-0.11474609375,-0.01068115234375,0.9893798828125
1631192865164,-0.11029052734375,-0.01568603515625,0.99383544921875
1631192865164,-0.11505126953125,-0.01446533203125,0.98992919921875
1631192865164,-0.11688232421875,-0.01531982421875,0.998291015625
1631192865243,-0.1142578125,-0.01763916015625,0.99395751953125
1631192865259,-0.11181640625,-0.01654052734375,0.9910888671875
1631192865259,-0.11566162109375,-0.0169677734375,0.99224853515625
1631192865305,-0.11126708984375,-0.0155029296875,0.99298095703125
1631192865305,-0.11322021484375,-0.01348876953125,0.99249267578125
1631192865305,-0.111083984375,-0.015380859375,0.99267578125
1631192865336,-0.11077880859375,-0.0172119140625,0.99774169921875
1631192865336,-0.1092529296875,-0.0115966796875,0.99273681640625
1631192865336,-0.109619140625,-0.0133056640625,0.99267578125
1631192865368,-0.11212158203125,-0.0128173828125,0.990478515625
1631192865368,-0.110595703125,-0.0078125,0.9901123046875
1631192865369,-0.11358642578125,-0.01300048828125,0.9927978515625
1631192865425,-0.11566162109375,-0.0108642578125,0.9918212890625
1631192865425,-0.11932373046875,-0.017333984375,0.9923095703125
1631192865425,-0.1173095703125,-0.01446533203125,0.9952392578125
1631192865472,-0.11279296875,-0.0133056640625,0.9871826171875
1631192865472,-0.11273193359375,-0.006591796875,0.990234375
1631192865472,-0.12042236328125,-0.017822265625,0.99273681640625
1631192865535,-0.11444091796875,-0.00830078125,0.9898681640625
1631192865535,-0.114013671875,-0.0089111328125,0.9910888671875
1631192865535,-0.11236572265625,-0.0103759765625,0.99468994140625
1631192865706,-0.11773681640625,-0.012939453125,0.9981689453125
1631192865706,-0.11090087890625,-0.01397705078125,0.996826171875
1631192865706,-0.11700439453125,-0.01678466796875,0.99853515625
1631192865752,-0.1185302734375,-0.0218505859375,0.99365234375
1631192865752,-0.1236572265625,-0.0185546875,0.99322509765625
1631192865752,-0.12713623046875,-0.0206298828125,0.98931884765625
1631192865815,-0.13153076171875,-0.01727294921875,0.9893798828125
1631192865815,-0.1258544921875,-0.0115966796875,0.98883056640625
1631192865815,-0.129150390625,-0.0181884765625,0.9912109375
1631192865815,-0.12640380859375,-0.01654052734375,0.9896240234375
1631192865830,-0.1259765625,-0.0174560546875,0.98974609375
1631192865830,-0.12884521484375,-0.01837158203125,0.987548828125
1631192865908,-0.1304931640625,-0.0194091796875,0.99090576171875
1631192865908,-0.13751220703125,-0.01788330078125,0.9881591796875
1631192865908,-0.13299560546875,-0.0186767578125,0.98876953125
1631192865940,-0.134033203125,-0.019287109375,0.99078369140625
1631192865940,-0.13543701171875,-0.02001953125,0.9913330078125
1631192865940,-0.13623046875,-0.01971435546875,0.98980712890625
1631192865971,-0.14007568359375,-0.020751953125,0.987060546875
1631192865971,-0.14178466796875,-0.02294921875,0.99237060546875
1631192865971,-0.13922119140625,-0.0186767578125,0.990966796875
1631192866033,-0.14013671875,-0.020751953125,0.98602294921875
1631192866033,-0.14288330078125,-0.021240234375,0.98944091796875
1631192866033,-0.14215087890625,-0.02020263671875,0.98907470703125
1631192866205,-0.150146484375,-0.01568603515625,0.9884033203125
1631192866205,-0.14910888671875,-0.01348876953125,0.9893798828125
1631192866205,-0.15032958984375,-0.0167236328125,0.98858642578125
1631192866237,-0.15350341796875,-0.02001953125,0.9879150390625
1631192866237,-0.15594482421875,-0.0247802734375,0.984130859375
1631192866237,-0.150390625,-0.01800537109375,0.98785400390625
1631192866237,-0.1588134765625,-0.02288818359375,0.98406982421875
1631192866237,-0.158935546875,-0.019775390625,0.98529052734375
1631192866252,-0.153564453125,-0.019775390625,0.98760986328125
1631192866268,-0.16314697265625,-0.02337646484375,0.98095703125
1631192866268,-0.1619873046875,-0.02001953125,0.9825439453125
1631192866283,-0.15972900390625,-0.0223388671875,0.98687744140625
1631192866377,-0.16644287109375,-0.01776123046875,0.98663330078125
1631192866377,-0.169189453125,-0.0164794921875,0.98974609375
1631192866393,-0.1656494140625,-0.022216796875,0.98602294921875
1631192866440,-0.17584228515625,-0.0203857421875,0.99139404296875
1631192866440,-0.184814453125,-0.02032470703125,0.98333740234375
1631192866440,-0.17572021484375,-0.01800537109375,0.98614501953125
1631192866440,-0.183349609375,-0.02398681640625,0.98516845703125
1631192866440,-0.17181396484375,-0.01763916015625,0.98712158203125
1631192866440,-0.18701171875,-0.01763916015625,0.984375
1631192866502,-0.189453125,-0.01470947265625,0.9769287109375
1631192866502,-0.19744873046875,-0.01788330078125,0.97674560546875
1631192866502,-0.19146728515625,-0.01812744140625,0.9776611328125
1631192866596,-0.2119140625,-0.01959228515625,0.9698486328125
1631192866596,-0.1995849609375,-0.0196533203125,0.974365234375
1631192866596,-0.20513916015625,-0.02093505859375,0.9713134765625
1631192866611,-0.22283935546875,-0.02471923828125,0.974609375
1631192866611,-0.216064453125,-0.023681640625,0.97216796875
1631192866611,-0.21502685546875,-0.02288818359375,0.9715576171875
1631192866689,-0.22900390625,-0.0238037109375,0.97100830078125
1631192866689,-0.23291015625,-0.02288818359375,0.968505859375
1631192866689,-0.23553466796875,-0.02734375,0.96710205078125
1631192866737,-0.24896240234375,-0.02191162109375,0.96307373046875
1631192866737,-0.2408447265625,-0.02386474609375,0.96759033203125
1631192866737,-0.24365234375,-0.02252197265625,0.96234130859375
1631192866814,-0.25335693359375,-0.0228271484375,0.95526123046875
1631192866830,-0.25860595703125,-0.0201416015625,0.95391845703125
1631192866830,-0.26568603515625,-0.0216064453125,0.94964599609375
1631192866908,-0.270263671875,-0.0234375,0.9466552734375
1631192866908,-0.2763671875,-0.02020263671875,0.94720458984375
1631192866908,-0.2752685546875,-0.0230712890625,0.94744873046875
1631192866939,-0.288330078125,-0.021240234375,0.94512939453125
1631192866939,-0.279296875,-0.02154541015625,0.94415283203125
1631192866939,-0.2928466796875,-0.0242919921875,0.9425048828125
1631192867083,-0.30322265625,-0.03875732421875,0.93853759765625
1631192867083,-0.294189453125,-0.0263671875,0.94036865234375
1631192867083,-0.30047607421875,-0.0299072265625,0.94378662109375
1631192867083,-0.29937744140625,-0.026123046875,0.9422607421875
1631192867083,-0.29351806640625,-0.02679443359375,0.9415283203125
1631192867083,-0.30084228515625,-0.03460693359375,0.94671630859375
1631192867083,-0.30487060546875,-0.03997802734375,0.93804931640625
1631192867083,-0.30242919921875,-0.0438232421875,0.94049072265625
1631192867083,-0.3017578125,-0.03936767578125,0.94183349609375
1631192867145,-0.30230712890625,-0.03619384765625,0.9371337890625
1631192867161,-0.3023681640625,-0.04583740234375,0.9351806640625
1631192867161,-0.30303955078125,-0.04718017578125,0.93731689453125
1631192867302,-0.30120849609375,-0.04815673828125,0.9332275390625
1631192867302,-0.3001708984375,-0.0537109375,0.93939208984375
1631192867302,-0.29949951171875,-0.05316162109375,0.942138671875
1631192867302,-0.2994384765625,-0.04718017578125,0.94012451171875
1631192867302,-0.2972412109375,-0.04766845703125,0.93939208984375
1631192867302,-0.2996826171875,-0.04461669921875,0.94873046875
1631192867302,-0.302978515625,-0.050048828125,0.93865966796875
1631192867302,-0.30218505859375,-0.04486083984375,0.9393310546875
1631192867317,-0.302734375,-0.048828125,0.9373779296875
1631192867395,-0.29833984375,-0.04931640625,0.9476318359375
1631192867395,-0.29595947265625,-0.05291748046875,0.947021484375
1631192867395,-0.297119140625,-0.05120849609375,0.9482421875
1631192867426,-0.2921142578125,-0.0482177734375,0.947998046875
1631192867426,-0.28997802734375,-0.046630859375,0.9461669921875
1631192867426,-0.2899169921875,-0.05126953125,0.9510498046875
1631192867567,-0.29156494140625,-0.046875,0.95703125
1631192867567,-0.28900146484375,-0.0516357421875,0.9544677734375
1631192867567,-0.28955078125,-0.047607421875,0.95428466796875
1631192867645,-0.29473876953125,-0.05157470703125,0.945068359375
1631192867645,-0.29302978515625,-0.04962158203125,0.9556884765625
1631192867645,-0.2935791015625,-0.05242919921875,0.95025634765625
1631192867707,-0.29150390625,-0.0511474609375,0.94281005859375
1631192867707,-0.29412841796875,-0.0546875,0.94354248046875
1631192867707,-0.29315185546875,-0.0555419921875,0.94219970703125
1631192867754,-0.29425048828125,-0.056396484375,0.9403076171875
1631192867754,-0.29302978515625,-0.0584716796875,0.941650390625
1631192867754,-0.29180908203125,-0.05072021484375,0.94268798828125
1631192867770,-0.2864990234375,-0.05120849609375,0.94415283203125
1631192867770,-0.283203125,-0.05743408203125,0.94696044921875
1631192867770,-0.2882080078125,-0.0537109375,0.9461669921875
1631192867801,-0.2802734375,-0.0531005859375,0.95074462890625
1631192867801,-0.28253173828125,-0.0582275390625,0.9534912109375
1631192867801,-0.282470703125,-0.05560302734375,0.951416015625
1631192867879,-0.2796630859375,-0.05841064453125,0.955078125
1631192867879,-0.277587890625,-0.05706787109375,0.9521484375
1631192867879,-0.27764892578125,-0.05499267578125,0.9534912109375
1631192867911,-0.2789306640625,-0.05682373046875,0.9578857421875
1631192867911,-0.27496337890625,-0.052490234375,0.954833984375
1631192867911,-0.27606201171875,-0.05517578125,0.9559326171875
1631192868008,-0.2747802734375,-0.0577392578125,0.95391845703125
1631192868008,-0.27130126953125,-0.06097412109375,0.9537353515625
1631192868008,-0.2767333984375,-0.05743408203125,0.95556640625
1631192868008,-0.27532958984375,-0.05902099609375,0.9500732421875
1631192868008,-0.27655029296875,-0.06243896484375,0.9537353515625
1631192868024,-0.2760009765625,-0.05908203125,0.95794677734375
1631192868086,-0.2730712890625,-0.0618896484375,0.9541015625
1631192868086,-0.27398681640625,-0.0623779296875,0.95794677734375
1631192868086,-0.2730712890625,-0.06646728515625,0.95526123046875
1631192868180,-0.2747802734375,-0.0648193359375,0.95062255859375
1631192868180,-0.276611328125,-0.062255859375,0.95037841796875
1631192868180,-0.2724609375,-0.0643310546875,0.9522705078125
1631192868180,-0.27789306640625,-0.0640869140625,0.9549560546875
1631192868180,-0.27105712890625,-0.06585693359375,0.95611572265625
1631192868195,-0.27777099609375,-0.0650634765625,0.94671630859375
1631192868274,-0.27728271484375,-0.0653076171875,0.95123291015625
1631192868274,-0.2733154296875,-0.06646728515625,0.9541015625
1631192868274,-0.2720947265625,-0.062744140625,0.9554443359375
1631192868352,-0.27593994140625,-0.0667724609375,0.95465087890625
1631192868352,-0.2781982421875,-0.07080078125,0.95220947265625
1631192868352,-0.27313232421875,-0.066162109375,0.95556640625
1631192868383,-0.2802734375,-0.0672607421875,0.94879150390625
1631192868383,-0.27777099609375,-0.07489013671875,0.9488525390625
1631192868383,-0.2725830078125,-0.07244873046875,0.94805908203125
1631192868445,-0.27264404296875,-0.067626953125,0.95001220703125
1631192868445,-0.27783203125,-0.0704345703125,0.94732666015625
1631192868445,-0.27496337890625,-0.0650634765625,0.9454345703125
1631192868493,-0.2745361328125,-0.07025146484375,0.95220947265625
1631192868493,-0.27252197265625,-0.065673828125,0.95452880859375
1631192868493,-0.2777099609375,-0.06689453125,0.95050048828125
1631192868555,-0.277099609375,-0.07098388671875,0.95123291015625
1631192868555,-0.2789306640625,-0.07025146484375,0.95489501953125
1631192868555,-0.27532958984375,-0.072021484375,0.95294189453125
1631192868649,-0.27581787109375,-0.068359375,0.95111083984375
1631192868649,-0.276123046875,-0.06787109375,0.94903564453125
1631192868649,-0.27752685546875,-0.06964111328125,0.95098876953125
1631192868743,-0.27947998046875,-0.06170654296875,0.95013427734375
1631192868743,-0.2769775390625,-0.06768798828125,0.954833984375
1631192868743,-0.2803955078125,-0.0657958984375,0.95062255859375
1631192868743,-0.27520751953125,-0.0662841796875,0.9498291015625
1631192868743,-0.27801513671875,-0.0714111328125,0.9488525390625
1631192868743,-0.278564453125,-0.06658935546875,0.949951171875
1631192868836,-0.28118896484375,-0.068359375,0.95074462890625
1631192868836,-0.275390625,-0.068603515625,0.9495849609375
1631192868836,-0.2779541015625,-0.071533203125,0.949462890625
1631192868914,-0.27972412109375,-0.06866455078125,0.947998046875
1631192868914,-0.27838134765625,-0.0731201171875,0.94970703125
1631192868914,-0.28173828125,-0.069580078125,0.94964599609375
1631192868963,-0.28167724609375,-0.07012939453125,0.9482421875
1631192868963,-0.2803955078125,-0.06951904296875,0.94610595703125
1631192868963,-0.27777099609375,-0.070556640625,0.9456787109375
1631192868979,-0.27825927734375,-0.0721435546875,0.94732666015625
1631192868994,-0.27569580078125,-0.07415771484375,0.9500732421875
1631192868994,-0.28179931640625,-0.07366943359375,0.9490966796875
1631192869026,-0.279052734375,-0.0775146484375,0.9515380859375
1631192869026,-0.27911376953125,-0.07818603515625,0.9505615234375
1631192869026,-0.27813720703125,-0.07623291015625,0.94708251953125
1631192869119,-0.27838134765625,-0.07537841796875,0.9508056640625
1631192869119,-0.27685546875,-0.0767822265625,0.95184326171875
1631192869119,-0.27825927734375,-0.0767822265625,0.95050048828125
1631192869182,-0.275146484375,-0.075439453125,0.9560546875
1631192869182,-0.27923583984375,-0.073974609375,0.9544677734375
1631192869182,-0.27935791015625,-0.0750732421875,0.95159912109375
1631192869229,-0.27978515625,-0.0792236328125,0.948974609375
1631192869229,-0.27703857421875,-0.0743408203125,0.94451904296875
1631192869229,-0.28033447265625,-0.07464599609375,0.94818115234375
1631192869307,-0.27880859375,-0.0765380859375,0.94696044921875
1631192869307,-0.2789306640625,-0.074951171875,0.94952392578125
1631192869307,-0.2808837890625,-0.0762939453125,0.94927978515625
1631192869432,-0.2783203125,-0.07891845703125,0.9512939453125
1631192869432,-0.27655029296875,-0.0791015625,0.9500732421875
1631192869432,-0.27978515625,-0.0770263671875,0.94903564453125
1631192869541,-0.27996826171875,-0.0770263671875,0.95269775390625
1631192869541,-0.282470703125,-0.08087158203125,0.952880859375
1631192869541,-0.28399658203125,-0.08526611328125,0.9481201171875
1631192869557,-0.28131103515625,-0.0755615234375,0.9412841796875
1631192869557,-0.281005859375,-0.0804443359375,0.94525146484375
1631192869557,-0.27777099609375,-0.07501220703125,0.9427490234375
1631192869604,-0.2769775390625,-0.0799560546875,0.95343017578125
1631192869604,-0.277587890625,-0.08001708984375,0.9520263671875
1631192869604,-0.27972412109375,-0.08099365234375,0.9501953125
1631192869604,-0.27801513671875,-0.078125,0.94677734375
1631192869604,-0.27874755859375,-0.07708740234375,0.95111083984375
1631192869604,-0.2777099609375,-0.0791015625,0.9501953125
1631192869698,-0.281982421875,-0.0797119140625,0.9482421875
1631192869698,-0.28338623046875,-0.0755615234375,0.94183349609375
1631192869713,-0.28155517578125,-0.0821533203125,0.949951171875
1631192869728,-0.284423828125,-0.07879638671875,0.945068359375
1631192869728,-0.286376953125,-0.08245849609375,0.94818115234375
1631192869744,-0.284423828125,-0.0770263671875,0.94671630859375
1631192869744,-0.28521728515625,-0.07177734375,0.9459228515625
1631192869744,-0.287353515625,-0.072998046875,0.94781494140625
1631192869838,-0.29071044921875,-0.07098388671875,0.94573974609375
1631192869838,-0.28179931640625,-0.07952880859375,0.94561767578125
1631192869838,-0.2822265625,-0.07318115234375,0.9442138671875
1631192869838,-0.283935546875,-0.0704345703125,0.94757080078125
1631192869838,-0.2861328125,-0.0692138671875,0.9482421875
1631192869838,-0.28271484375,-0.07037353515625,0.94696044921875
1631192869916,-0.283935546875,-0.07745361328125,0.94580078125
1631192869916,-0.2825927734375,-0.07598876953125,0.9462890625
1631192869932,-0.2821044921875,-0.07476806640625,0.9482421875
1631192870059,-0.28216552734375,-0.0704345703125,0.947998046875
1631192870059,-0.277587890625,-0.07275390625,0.947021484375
1631192870059,-0.28143310546875,-0.07366943359375,0.94805908203125
1631192870137,-0.2822265625,-0.0753173828125,0.9493408203125
1631192870137,-0.27899169921875,-0.0777587890625,0.94793701171875
1631192870137,-0.2821044921875,-0.0775146484375,0.95074462890625
1631192870200,-0.28082275390625,-0.07769775390625,0.9515380859375
1631192870200,-0.286376953125,-0.07769775390625,0.9520263671875
1631192870200,-0.2808837890625,-0.07623291015625,0.949951171875
1631192870278,-0.2821044921875,-0.0740966796875,0.9515380859375
1631192870278,-0.278564453125,-0.07537841796875,0.951171875
1631192870278,-0.2784423828125,-0.07794189453125,0.9488525390625
1631192870340,-0.281494140625,-0.07452392578125,0.948486328125
1631192870340,-0.28265380859375,-0.07318115234375,0.95013427734375
1631192870340,-0.2845458984375,-0.0758056640625,0.948486328125
1631192870434,-0.2821044921875,-0.07110595703125,0.9461669921875
1631192870434,-0.2830810546875,-0.06976318359375,0.9471435546875
1631192870434,-0.28375244140625,-0.0758056640625,0.94561767578125
1631192870559,-0.290771484375,-0.06884765625,0.94769287109375
1631192870559,-0.28466796875,-0.06695556640625,0.945556640625
1631192870559,-0.28515625,-0.06878662109375,0.949951171875
1631192870606,-0.291015625,-0.070556640625,0.951416015625
1631192870606,-0.28143310546875,-0.06854248046875,0.9486083984375
1631192870606,-0.2850341796875,-0.06866455078125,0.94647216796875
1631192870668,-0.2828369140625,-0.0738525390625,0.94049072265625
1631192870668,-0.28863525390625,-0.0753173828125,0.947509765625
1631192870668,-0.28656005859375,-0.07891845703125,0.94586181640625
1631192870684,-0.2781982421875,-0.08203125,0.953125
1631192870684,-0.2835693359375,-0.06475830078125,0.94488525390625
1631192870684,-0.28131103515625,-0.06951904296875,0.94842529296875
1631192870684,-0.28045654296875,-0.06640625,0.94342041015625
1631192870684,-0.2821044921875,-0.08331298828125,0.95074462890625
1631192870684,-0.2784423828125,-0.071044921875,0.948974609375
1631192870684,-0.28271484375,-0.0791015625,0.9521484375
1631192870684,-0.2806396484375,-0.07318115234375,0.95428466796875
1631192870684,-0.28125,-0.07257080078125,0.9486083984375
1631192870809,-0.28338623046875,-0.07574462890625,0.9451904296875
1631192870809,-0.28302001953125,-0.08355712890625,0.94970703125
1631192870825,-0.28106689453125,-0.07904052734375,0.94964599609375
1631192870840,-0.28631591796875,-0.07781982421875,0.94866943359375
1631192870840,-0.2880859375,-0.07275390625,0.95123291015625
1631192870840,-0.2845458984375,-0.078125,0.94378662109375
1631192870887,-0.2864990234375,-0.0784912109375,0.947998046875
1631192870887,-0.28216552734375,-0.0732421875,0.94891357421875
1631192870887,-0.28515625,-0.07366943359375,0.9482421875
1631192870887,-0.28509521484375,-0.07476806640625,0.9471435546875
1631192870887,-0.2850341796875,-0.07623291015625,0.9478759765625
1631192870887,-0.2852783203125,-0.0743408203125,0.94921875
1631192870950,-0.2862548828125,-0.077880859375,0.94927978515625
1631192870950,-0.2864990234375,-0.0726318359375,0.94342041015625
1631192870950,-0.2852783203125,-0.0751953125,0.94879150390625
1631192870950,-0.286376953125,-0.074951171875,0.94805908203125
1631192870965,-0.28485107421875,-0.07464599609375,0.945556640625
1631192870965,-0.288330078125,-0.07269287109375,0.94537353515625
1631192871028,-0.28326416015625,-0.07440185546875,0.94140625
1631192871043,-0.2874755859375,-0.07635498046875,0.9447021484375
1631192871043,-0.2874755859375,-0.07672119140625,0.94635009765625
1631192871168,-0.28741455078125,-0.08203125,0.94580078125
1631192871168,-0.2845458984375,-0.07965087890625,0.94708251953125
1631192871184,-0.28460693359375,-0.08306884765625,0.94403076171875
1631192871199,-0.28692626953125,-0.08111572265625,0.9468994140625
1631192871199,-0.28607177734375,-0.08074951171875,0.94769287109375
1631192871199,-0.2840576171875,-0.0823974609375,0.9466552734375
1631192871231,-0.28717041015625,-0.07958984375,0.9486083984375
1631192871231,-0.2821044921875,-0.0787353515625,0.95050048828125
1631192871231,-0.28399658203125,-0.0814208984375,0.9512939453125
1631192871278,-0.28558349609375,-0.079345703125,0.9468994140625
1631192871278,-0.28466796875,-0.0806884765625,0.94964599609375
1631192871278,-0.2818603515625,-0.0794677734375,0.9468994140625
1631192871403,-0.2867431640625,-0.0806884765625,0.9483642578125
1631192871403,-0.28668212890625,-0.07806396484375,0.94805908203125
1631192871403,-0.2841796875,-0.07977294921875,0.9490966796875
1631192871403,-0.28436279296875,-0.07806396484375,0.9501953125
1631192871418,-0.2841796875,-0.07843017578125,0.944580078125
1631192871418,-0.284912109375,-0.07720947265625,0.9417724609375
1631192871512,-0.28759765625,-0.074951171875,0.9447021484375
1631192871512,-0.28656005859375,-0.0806884765625,0.94488525390625
1631192871512,-0.2882080078125,-0.07989501953125,0.94842529296875
1631192871512,-0.2857666015625,-0.080810546875,0.9459228515625
1631192871512,-0.288330078125,-0.07861328125,0.9461669921875
1631192871512,-0.28546142578125,-0.07879638671875,0.94573974609375
1631192871731,-0.28759765625,-0.08551025390625,0.94482421875
1631192871731,-0.28668212890625,-0.086669921875,0.9439697265625
1631192871731,-0.28900146484375,-0.0770263671875,0.95098876953125
1631192871777,-0.28033447265625,-0.07501220703125,0.94873046875
1631192871777,-0.28662109375,-0.0802001953125,0.946533203125
1631192871777,-0.28033447265625,-0.08087158203125,0.9505615234375
1631192871777,-0.2772216796875,-0.07666015625,0.9481201171875
1631192871777,-0.279052734375,-0.0775146484375,0.946533203125
1631192871777,-0.2808837890625,-0.0760498046875,0.947265625
1631192871809,-0.28369140625,-0.08514404296875,0.95111083984375
1631192871809,-0.28387451171875,-0.08209228515625,0.953369140625
1631192871809,-0.27996826171875,-0.0802001953125,0.9486083984375
1631192871824,-0.28363037109375,-0.08135986328125,0.94268798828125
1631192871824,-0.28314208984375,-0.0859375,0.94708251953125
1631192871824,-0.287109375,-0.08477783203125,0.948974609375
1631192871968,-0.2889404296875,-0.07568359375,0.9503173828125
1631192871968,-0.2860107421875,-0.08404541015625,0.94293212890625
1631192871968,-0.291015625,-0.08154296875,0.9443359375
1631192871968,-0.2886962890625,-0.07879638671875,0.94805908203125
1631192871968,-0.28912353515625,-0.0816650390625,0.94189453125
1631192871968,-0.29010009765625,-0.08319091796875,0.94244384765625
1631192872046,-0.28717041015625,-0.078369140625,0.94903564453125
1631192872046,-0.283935546875,-0.08251953125,0.94708251953125
1631192872061,-0.2877197265625,-0.081298828125,0.9481201171875
1631192872093,-0.287109375,-0.08123779296875,0.94976806640625
1631192872093,-0.2850341796875,-0.0806884765625,0.94879150390625
1631192872093,-0.28692626953125,-0.0828857421875,0.9473876953125
1631192872124,-0.28759765625,-0.07916259765625,0.94500732421875
1631192872124,-0.28759765625,-0.07830810546875,0.94390869140625
1631192872124,-0.285888671875,-0.07794189453125,0.94451904296875
1631192872187,-0.28302001953125,-0.07891845703125,0.9437255859375
1631192872187,-0.2882080078125,-0.0772705078125,0.94781494140625
1631192872187,-0.28839111328125,-0.08038330078125,0.94281005859375
1631192872234,-0.28424072265625,-0.0841064453125,0.94281005859375
1631192872234,-0.28643798828125,-0.08563232421875,0.94366455078125
1631192872234,-0.28253173828125,-0.086181640625,0.9434814453125
1631192872311,-0.28399658203125,-0.0849609375,0.9486083984375
1631192872311,-0.28204345703125,-0.0877685546875,0.9459228515625
1631192872311,-0.2840576171875,-0.08447265625,0.94805908203125
1631192872374,-0.27972412109375,-0.08123779296875,0.94781494140625
1631192872374,-0.2823486328125,-0.08209228515625,0.94854736328125
1631192872374,-0.28387451171875,-0.0810546875,0.949951171875
1631192872405,-0.2816162109375,-0.08087158203125,0.950439453125
1631192872405,-0.28082275390625,-0.080078125,0.94818115234375
1631192872407,-0.277587890625,-0.08416748046875,0.948486328125
1631192872471,-0.282958984375,-0.0819091796875,0.94573974609375
1631192872487,-0.2852783203125,-0.08026123046875,0.9449462890625
1631192872487,-0.28656005859375,-0.07940673828125,0.9476318359375
1631192872612,-0.2864990234375,-0.0814208984375,0.9481201171875
1631192872612,-0.284912109375,-0.08111572265625,0.94671630859375
1631192872628,-0.284423828125,-0.07879638671875,0.94512939453125
1631192872799,-0.28717041015625,-0.080078125,0.94287109375
1631192872799,-0.28515625,-0.08197021484375,0.9471435546875
1631192872799,-0.283935546875,-0.08209228515625,0.9437255859375
1631192872815,-0.2864990234375,-0.0809326171875,0.9473876953125
1631192872815,-0.28692626953125,-0.08111572265625,0.9468994140625
1631192872815,-0.28662109375,-0.0789794921875,0.9471435546875
1631192872893,-0.28643798828125,-0.08770751953125,0.94476318359375
1631192872893,-0.28515625,-0.083251953125,0.9500732421875
1631192872893,-0.28692626953125,-0.08551025390625,0.95025634765625
1631192872924,-0.2880859375,-0.08563232421875,0.94390869140625
1631192872924,-0.2850341796875,-0.0811767578125,0.9442138671875
1631192872924,-0.28277587890625,-0.07928466796875,0.94024658203125
1631192872924,-0.28271484375,-0.08160400390625,0.94268798828125
1631192872924,-0.2835693359375,-0.082763671875,0.9453125
1631192872924,-0.28619384765625,-0.07806396484375,0.94537353515625
1631192872955,-0.2879638671875,-0.0845947265625,0.9498291015625
1631192872955,-0.28680419921875,-0.0831298828125,0.9527587890625
1631192872956,-0.28564453125,-0.08404541015625,0.9422607421875
1631192872961,-0.2847900390625,-0.081298828125,0.94915771484375
1631192872961,-0.287109375,-0.08447265625,0.94677734375
1631192872961,-0.28759765625,-0.08721923828125,0.948486328125
1631192873086,-0.2862548828125,-0.0806884765625,0.94171142578125
1631192873086,-0.287109375,-0.0853271484375,0.947265625
1631192873086,-0.282958984375,-0.078857421875,0.9461669921875
1631192873117,-0.28692626953125,-0.0814208984375,0.948486328125
1631192873117,-0.2880859375,-0.0794677734375,0.94232177734375
1631192873133,-0.28692626953125,-0.08056640625,0.9505615234375
1631192873133,-0.2880859375,-0.0767822265625,0.94573974609375
1631192873133,-0.28668212890625,-0.082763671875,0.94537353515625
1631192873180,-0.28460693359375,-0.0811767578125,0.94635009765625
1631192873180,-0.2872314453125,-0.0811767578125,0.946044921875
1631192873180,-0.2867431640625,-0.07916259765625,0.944580078125
1631192873321,-0.28411865234375,-0.07818603515625,0.94451904296875
1631192873321,-0.28662109375,-0.07891845703125,0.9493408203125
1631192873321,-0.28790283203125,-0.07891845703125,0.94708251953125
1631192873321,-0.28546142578125,-0.08111572265625,0.94488525390625
1631192873321,-0.28765869140625,-0.0797119140625,0.9468994140625
1631192873321,-0.28326416015625,-0.0848388671875,0.9466552734375
1631192873399,-0.28289794921875,-0.0872802734375,0.94403076171875
1631192873399,-0.28369140625,-0.09014892578125,0.9466552734375
1631192873399,-0.28692626953125,-0.08648681640625,0.947021484375
1631192873414,-0.2830810546875,-0.08636474609375,0.948974609375
1631192873414,-0.2843017578125,-0.082275390625,0.949462890625
1631192873414,-0.282958984375,-0.08489990234375,0.94775390625
1631192873492,-0.2852783203125,-0.0848388671875,0.94921875
1631192873492,-0.28240966796875,-0.08349609375,0.94659423828125
1631192873492,-0.28509521484375,-0.08331298828125,0.94805908203125
1631192873508,-0.2830810546875,-0.081298828125,0.94561767578125
1631192873508,-0.28668212890625,-0.07928466796875,0.94635009765625
1631192873508,-0.283203125,-0.085205078125,0.94940185546875
1631192873570,-0.28521728515625,-0.07891845703125,0.94451904296875
1631192873570,-0.28582763671875,-0.0806884765625,0.9425048828125
1631192873570,-0.28875732421875,-0.0794677734375,0.94744873046875
1631192873695,-0.28863525390625,-0.07977294921875,0.9405517578125
1631192873695,-0.284423828125,-0.0814208984375,0.94451904296875
1631192873695,-0.29010009765625,-0.07763671875,0.94482421875
1631192873711,-0.291748046875,-0.08258056640625,0.9388427734375
1631192873711,-0.28741455078125,-0.08026123046875,0.948974609375
1631192873711,-0.289794921875,-0.07977294921875,0.940185546875
1631192873742,-0.28448486328125,-0.084716796875,0.9498291015625
1631192873742,-0.2864990234375,-0.08245849609375,0.9439697265625
1631192873742,-0.2861328125,-0.08245849609375,0.94830322265625
1631192873804,-0.2886962890625,-0.0899658203125,0.94390869140625
1631192873804,-0.28448486328125,-0.08587646484375,0.950439453125
1631192873804,-0.28900146484375,-0.089111328125,0.941650390625
1631192873867,-0.2862548828125,-0.08013916015625,0.943115234375
1631192873867,-0.28350830078125,-0.078857421875,0.9434814453125
1631192873883,-0.2890625,-0.07861328125,0.94317626953125
1631192873945,-0.28546142578125,-0.0853271484375,0.942626953125
1631192873945,-0.28594970703125,-0.08575439453125,0.9434814453125
1631192873945,-0.2801513671875,-0.0841064453125,0.9464111328125
1631192873961,-0.28082275390625,-0.09173583984375,0.94818115234375
1631192873961,-0.28692626953125,-0.0906982421875,0.9510498046875
1631192873961,-0.28326416015625,-0.08526611328125,0.95306396484375
1631192874070,-0.28363037109375,-0.091796875,0.94793701171875
1631192874070,-0.2864990234375,-0.08258056640625,0.9462890625
1631192874070,-0.28216552734375,-0.084716796875,0.94403076171875
1631192874289,-0.284912109375,-0.08746337890625,0.94757080078125
1631192874289,-0.2833251953125,-0.08343505859375,0.9459228515625
1631192874304,-0.28521728515625,-0.082763671875,0.94659423828125
1631192874351,-0.28564453125,-0.07928466796875,0.94940185546875
1631192874351,-0.2850341796875,-0.07672119140625,0.947509765625
1631192874351,-0.28704833984375,-0.07977294921875,0.95086669921875
1631192874429,-0.2864990234375,-0.0792236328125,0.9449462890625
1631192874429,-0.2894287109375,-0.07958984375,0.9464111328125
1631192874429,-0.2882080078125,-0.07501220703125,0.94622802734375
1631192874523,-0.28717041015625,-0.0811767578125,0.9468994140625
1631192874523,-0.2841796875,-0.07843017578125,0.94586181640625
1631192874523,-0.28692626953125,-0.07781982421875,0.94488525390625
1631192874523,-0.2874755859375,-0.08251953125,0.9423828125
1631192874523,-0.283935546875,-0.08367919921875,0.943359375
1631192874523,-0.287353515625,-0.07940673828125,0.94476318359375
1631192874585,-0.2813720703125,-0.08074951171875,0.94683837890625
1631192874585,-0.28021240234375,-0.0789794921875,0.947021484375
1631192874585,-0.28387451171875,-0.0836181640625,0.9495849609375
1631192874679,-0.28326416015625,-0.088134765625,0.94586181640625
1631192874679,-0.282958984375,-0.08599853515625,0.94561767578125
1631192874679,-0.2818603515625,-0.08721923828125,0.9442138671875
1631192874710,-0.2818603515625,-0.08551025390625,0.94970703125
1631192874726,-0.27978515625,-0.0849609375,0.9456787109375
1631192874726,-0.28057861328125,-0.0845947265625,0.9501953125
1631192874835,-0.2799072265625,-0.08203125,0.94989013671875
1631192874835,-0.28155517578125,-0.082763671875,0.94903564453125
1631192874835,-0.2802734375,-0.08135986328125,0.951171875
1631192874867,-0.2828369140625,-0.0770263671875,0.9493408203125
1631192874867,-0.28167724609375,-0.08319091796875,0.95086669921875
1631192874867,-0.284423828125,-0.08148193359375,0.94525146484375
1631192874867,-0.28326416015625,-0.081298828125,0.947509765625
1631192874867,-0.28411865234375,-0.08099365234375,0.947021484375
1631192874867,-0.285888671875,-0.0780029296875,0.94915771484375
1631192874898,-0.28582763671875,-0.0804443359375,0.94659423828125
1631192874898,-0.2840576171875,-0.077880859375,0.94476318359375
1631192874898,-0.28497314453125,-0.08123779296875,0.94598388671875
1631192874929,-0.28314208984375,-0.0802001953125,0.95166015625
1631192874929,-0.28515625,-0.0775146484375,0.94891357421875
1631192874929,-0.285400390625,-0.08807373046875,0.9473876953125
1631192874929,-0.28631591796875,-0.08099365234375,0.94921875
1631192874929,-0.27947998046875,-0.0782470703125,0.94696044921875
1631192874929,-0.2802734375,-0.08056640625,0.94720458984375
1631192874929,-0.28143310546875,-0.08502197265625,0.94390869140625
1631192874929,-0.28729248046875,-0.08612060546875,0.94921875
1631192874929,-0.2830810546875,-0.0755615234375,0.9459228515625
1631192874992,-0.2802734375,-0.080078125,0.9425048828125
1631192874992,-0.282470703125,-0.0789794921875,0.942138671875
1631192874992,-0.28521728515625,-0.078369140625,0.94525146484375
1631192875085,-0.28216552734375,-0.084716796875,0.94903564453125
1631192875085,-0.279296875,-0.0838623046875,0.95025634765625
1631192875085,-0.27911376953125,-0.08453369140625,0.947509765625
1631192875117,-0.28289794921875,-0.08740234375,0.94696044921875
1631192875117,-0.28619384765625,-0.08636474609375,0.9498291015625
1631192875132,-0.28363037109375,-0.0850830078125,0.95172119140625
1631192875163,-0.283935546875,-0.07879638671875,0.9420166015625
1631192875163,-0.28253173828125,-0.08172607421875,0.94256591796875
1631192875163,-0.283935546875,-0.07916259765625,0.94488525390625
1631192875257,-0.28314208984375,-0.082763671875,0.94647216796875
1631192875257,-0.28729248046875,-0.08477783203125,0.94549560546875
1631192875257,-0.28680419921875,-0.0799560546875,0.94873046875
1631192875429,-0.2860107421875,-0.07781982421875,0.9501953125
1631192875445,-0.28460693359375,-0.078857421875,0.94769287109375
1631192875445,-0.28204345703125,-0.080810546875,0.94708251953125
1631192875508,-0.28704833984375,-0.08343505859375,0.9488525390625
1631192875508,-0.28570556640625,-0.080078125,0.9449462890625
1631192875523,-0.28778076171875,-0.0791015625,0.94940185546875
1631192875554,-0.28466796875,-0.082275390625,0.9471435546875
1631192875554,-0.28533935546875,-0.08453369140625,0.94403076171875
1631192875554,-0.28472900390625,-0.08184814453125,0.94439697265625
1631192875601,-0.284423828125,-0.08282470703125,0.94500732421875
1631192875617,-0.28790283203125,-0.0819091796875,0.94573974609375
1631192875617,-0.28076171875,-0.08380126953125,0.94525146484375
1631192875617,-0.28607177734375,-0.08270263671875,0.94671630859375
1631192875617,-0.28009033203125,-0.08746337890625,0.94378662109375
1631192875617,-0.28436279296875,-0.0865478515625,0.947021484375
1631192875632,-0.28125,-0.08843994140625,0.9464111328125
1631192875632,-0.28021240234375,-0.08544921875,0.94671630859375
1631192875632,-0.27996826171875,-0.08880615234375,0.9449462890625
1631192875695,-0.27960205078125,-0.082275390625,0.94805908203125
1631192875695,-0.27886962890625,-0.0887451171875,0.946533203125
1631192875695,-0.2769775390625,-0.0823974609375,0.94830322265625
1631192875804,-0.279541015625,-0.0814208984375,0.95294189453125
1631192875820,-0.27923583984375,-0.0841064453125,0.955322265625
1631192875820,-0.2772216796875,-0.08441162109375,0.95135498046875
1631192875978,-0.28289794921875,-0.0797119140625,0.95172119140625
1631192875978,-0.28106689453125,-0.08038330078125,0.95343017578125
1631192875978,-0.28216552734375,-0.07489013671875,0.94525146484375
1631192875978,-0.27813720703125,-0.0772705078125,0.9520263671875
1631192875978,-0.27801513671875,-0.07342529296875,0.945556640625
1631192875978,-0.28076171875,-0.0767822265625,0.9462890625
1631192876009,-0.279296875,-0.07696533203125,0.94525146484375
1631192876009,-0.28375244140625,-0.08172607421875,0.93853759765625
1631192876009,-0.286376953125,-0.0771484375,0.94134521484375
1631192876088,-0.2880859375,-0.0858154296875,0.95281982421875
1631192876088,-0.29150390625,-0.0858154296875,0.9422607421875
1631192876088,-0.29364013671875,-0.08184814453125,0.9442138671875
1631192876150,-0.28961181640625,-0.095703125,0.9486083984375
1631192876150,-0.2874755859375,-0.0882568359375,0.9483642578125
1631192876150,-0.28973388671875,-0.093017578125,0.94818115234375
1631192876166,-0.2822265625,-0.0966796875,0.94683837890625
1631192876182,-0.2845458984375,-0.09326171875,0.9456787109375
1631192876182,-0.2872314453125,-0.0908203125,0.9483642578125
1631192876182,-0.28326416015625,-0.09515380859375,0.94708251953125
1631192876182,-0.28375244140625,-0.09185791015625,0.94757080078125
1631192876182,-0.2791748046875,-0.09381103515625,0.94378662109375
1631192876275,-0.28399658203125,-0.08941650390625,0.9473876953125
1631192876275,-0.28887939453125,-0.09027099609375,0.94708251953125
1631192876275,-0.28900146484375,-0.08807373046875,0.94659423828125
1631192876291,-0.28570556640625,-0.09381103515625,0.9473876953125
1631192876291,-0.28704833984375,-0.09332275390625,0.947509765625
1631192876291,-0.2877197265625,-0.09710693359375,0.9462890625
1631192876463,-0.290771484375,-0.0936279296875,0.9443359375
1631192876478,-0.2904052734375,-0.09320068359375,0.94610595703125
1631192876478,-0.2879638671875,-0.1007080078125,0.947021484375
1631192876509,-0.2913818359375,-0.089111328125,0.9375
1631192876509,-0.28936767578125,-0.0916748046875,0.9393310546875
1631192876509,-0.29296875,-0.08587646484375,0.9368896484375
1631192876603,-0.2939453125,-0.09039306640625,0.9407958984375
1631192876603,-0.29241943359375,-0.093994140625,0.93743896484375
1631192876603,-0.29052734375,-0.091796875,0.94012451171875
1631192876619,-0.289794921875,-0.090087890625,0.94189453125
1631192876619,-0.28924560546875,-0.09368896484375,0.94586181640625
1631192876619,-0.2867431640625,-0.091064453125,0.9407958984375
1631192876806,-0.29150390625,-0.095458984375,0.95001220703125
1631192876806,-0.28411865234375,-0.096923828125,0.94610595703125
1631192876806,-0.28778076171875,-0.094482421875,0.94757080078125
1631192876806,-0.28753662109375,-0.09417724609375,0.94573974609375
1631192876806,-0.2908935546875,-0.09222412109375,0.9522705078125
1631192876806,-0.28912353515625,-0.09417724609375,0.9447021484375
1631192876853,-0.28570556640625,-0.0986328125,0.94488525390625
1631192876853,-0.2896728515625,-0.099853515625,0.94378662109375
1631192876853,-0.28460693359375,-0.10302734375,0.942626953125
1631192876915,-0.284423828125,-0.099853515625,0.9444580078125
1631192876915,-0.28704833984375,-0.1004638671875,0.9456787109375
1631192876915,-0.2874755859375,-0.1024169921875,0.94500732421875
1631192877043,-0.2882080078125,-0.1036376953125,0.94244384765625
1631192877043,-0.2860107421875,-0.10369873046875,0.9423828125
1631192877059,-0.28607177734375,-0.1026611328125,0.943115234375
1631192877153,-0.28973388671875,-0.09442138671875,0.9483642578125
1631192877153,-0.28662109375,-0.1036376953125,0.94122314453125
1631192877153,-0.28369140625,-0.09844970703125,0.9501953125
1631192877153,-0.29046630859375,-0.10498046875,0.951416015625
1631192877153,-0.284423828125,-0.108642578125,0.941162109375
1631192877168,-0.28778076171875,-0.10736083984375,0.94207763671875
1631192877168,-0.286376953125,-0.105712890625,0.9483642578125
1631192877168,-0.2864990234375,-0.099853515625,0.94512939453125
1631192877168,-0.27972412109375,-0.103515625,0.94561767578125
1631192877231,-0.29248046875,-0.10394287109375,0.94549560546875
1631192877231,-0.29193115234375,-0.0997314453125,0.9456787109375
1631192877231,-0.29437255859375,-0.10498046875,0.94342041015625
1631192877293,-0.29046630859375,-0.0997314453125,0.95037841796875
1631192877293,-0.2877197265625,-0.10546875,0.94921875
1631192877293,-0.29296875,-0.1016845703125,0.94879150390625
1631192877356,-0.290283203125,-0.0994873046875,0.939697265625
1631192877356,-0.29815673828125,-0.10345458984375,0.93463134765625
1631192877356,-0.29510498046875,-0.10089111328125,0.93621826171875
1631192877356,-0.299072265625,-0.10205078125,0.93994140625
1631192877356,-0.29205322265625,-0.09716796875,0.9368896484375
1631192877356,-0.29132080078125,-0.10113525390625,0.94085693359375
1631192877356,-0.30047607421875,-0.10333251953125,0.93536376953125
1631192877356,-0.29400634765625,-0.0958251953125,0.938720703125
1631192877356,-0.298828125,-0.100341796875,0.9312744140625
1631192877402,-0.2967529296875,-0.09710693359375,0.93804931640625
1631192877402,-0.296630859375,-0.10113525390625,0.93756103515625
1631192877402,-0.29376220703125,-0.09539794921875,0.93719482421875
1631192877449,-0.2965087890625,-0.0994873046875,0.93914794921875
1631192877449,-0.29638671875,-0.09912109375,0.94403076171875
1631192877449,-0.29608154296875,-0.09912109375,0.9420166015625
1631192877527,-0.29656982421875,-0.0987548828125,0.94134521484375
1631192877527,-0.300537109375,-0.10107421875,0.94110107421875
1631192877527,-0.29754638671875,-0.1005859375,0.938720703125
1631192877543,-0.3017578125,-0.09954833984375,0.9459228515625
1631192877543,-0.3065185546875,-0.10137939453125,0.94866943359375
1631192877543,-0.30364990234375,-0.1011962890625,0.94720458984375
1631192877730,-0.30560302734375,-0.10198974609375,0.946044921875
1631192877730,-0.30609130859375,-0.09954833984375,0.93438720703125
1631192877730,-0.30914306640625,-0.10113525390625,0.9451904296875
1631192877730,-0.304931640625,-0.10430908203125,0.93359375
1631192877730,-0.306884765625,-0.10400390625,0.93035888671875
1631192877730,-0.3067626953125,-0.1007080078125,0.9468994140625
1631192877762,-0.3056640625,-0.099365234375,0.92950439453125
1631192877762,-0.3094482421875,-0.10186767578125,0.93109130859375
1631192877777,-0.30462646484375,-0.10064697265625,0.927490234375
1631192877808,-0.304443359375,-0.10235595703125,0.93341064453125
1631192877808,-0.30419921875,-0.09991455078125,0.93597412109375
1631192877808,-0.30267333984375,-0.1016845703125,0.936767578125
1631192877887,-0.302490234375,-0.09967041015625,0.9400634765625
1631192877902,-0.29962158203125,-0.0965576171875,0.94342041015625
1631192877902,-0.3023681640625,-0.09136962890625,0.94317626953125
1631192877933,-0.2989501953125,-0.08795166015625,0.94488525390625
1631192877933,-0.30145263671875,-0.0885009765625,0.92828369140625
1631192877933,-0.3038330078125,-0.08233642578125,0.935546875
1631192877933,-0.3060302734375,-0.08502197265625,0.93487548828125
1631192877933,-0.3004150390625,-0.09375,0.93408203125
1631192877933,-0.300537109375,-0.08868408203125,0.94671630859375
1631192877965,-0.2960205078125,-0.08807373046875,0.9317626953125
1631192877965,-0.29931640625,-0.0906982421875,0.9349365234375
1631192877965,-0.30145263671875,-0.0908203125,0.93597412109375
1631192878140,-0.29364013671875,-0.0909423828125,0.95037841796875
1631192878140,-0.29150390625,-0.08544921875,0.93939208984375
1631192878140,-0.29461669921875,-0.08294677734375,0.93389892578125
1631192878171,-0.29534912109375,-0.099609375,0.95751953125
1631192878171,-0.29339599609375,-0.1043701171875,0.95941162109375
1631192878171,-0.2919921875,-0.106689453125,0.9581298828125
1631192878218,-0.29180908203125,-0.106201171875,0.9521484375
1631192878233,-0.29400634765625,-0.1021728515625,0.9454345703125
1631192878233,-0.2952880859375,-0.10809326171875,0.94683837890625
1631192878249,-0.29119873046875,-0.112060546875,0.94073486328125
1631192878265,-0.2921142578125,-0.1080322265625,0.9462890625
1631192878265,-0.2958984375,-0.1097412109375,0.94219970703125
1631192878265,-0.2955322265625,-0.11016845703125,0.9520263671875
1631192878265,-0.2987060546875,-0.1116943359375,0.94677734375
1631192878265,-0.2933349609375,-0.109375,0.94097900390625
1631192878327,-0.28839111328125,-0.10528564453125,0.9359130859375
1631192878327,-0.2872314453125,-0.1015625,0.93182373046875
1631192878327,-0.2874755859375,-0.10980224609375,0.9404296875
1631192878343,-0.2882080078125,-0.09759521484375,0.93438720703125
1631192878343,-0.2928466796875,-0.09423828125,0.92620849609375
1631192878343,-0.29229736328125,-0.100341796875,0.9307861328125
1631192878405,-0.28814697265625,-0.09228515625,0.92669677734375
1631192878421,-0.28668212890625,-0.0902099609375,0.92242431640625
1631192878421,-0.2918701171875,-0.09149169921875,0.921142578125
1631192878452,-0.2786865234375,-0.09222412109375,0.9429931640625
1631192878452,-0.28466796875,-0.09039306640625,0.93804931640625
1631192878468,-0.2874755859375,-0.0894775390625,0.93707275390625
1631192878686,-0.26568603515625,-0.08660888671875,0.95318603515625
1631192878686,-0.2691650390625,-0.0892333984375,0.94873046875
1631192878686,-0.2591552734375,-0.0850830078125,0.95831298828125
1631192878733,-0.26348876953125,-0.07952880859375,0.97216796875
1631192878733,-0.26165771484375,-0.0809326171875,0.96697998046875
1631192878733,-0.2584228515625,-0.08349609375,0.96160888671875
1631192878796,-0.26104736328125,-0.08184814453125,0.97509765625
1631192878796,-0.2601318359375,-0.087890625,0.98040771484375
1631192878796,-0.262451171875,-0.0849609375,0.97979736328125
1631192878811,-0.26513671875,-0.0872802734375,0.9752197265625
1631192878811,-0.26373291015625,-0.0875244140625,0.97998046875
1631192878811,-0.2667236328125,-0.0947265625,0.9658203125
1631192878889,-0.26361083984375,-0.08355712890625,0.9306640625
1631192878889,-0.265380859375,-0.0877685546875,0.93048095703125
1631192878889,-0.261962890625,-0.087158203125,0.92864990234375
1631192878889,-0.2677001953125,-0.09197998046875,0.954833984375
1631192878889,-0.26605224609375,-0.08721923828125,0.94232177734375
1631192878889,-0.26116943359375,-0.08660888671875,0.9317626953125
1631192878968,-0.25811767578125,-0.0902099609375,0.952392578125
1631192878983,-0.2623291015625,-0.08538818359375,0.9420166015625
1631192878983,-0.260009765625,-0.08843994140625,0.94091796875
1631192879048,-0.25177001953125,-0.1048583984375,0.9647216796875
1631192879064,-0.24810791015625,-0.09930419921875,0.9664306640625
1631192879064,-0.2552490234375,-0.10174560546875,0.95819091796875
1631192879064,-0.2506103515625,-0.10235595703125,0.95745849609375
1631192879064,-0.25335693359375,-0.0947265625,0.9642333984375
1631192879064,-0.25469970703125,-0.1007080078125,0.966552734375
1631192879064,-0.2489013671875,-0.10540771484375,0.96307373046875
1631192879064,-0.25018310546875,-0.09942626953125,0.95794677734375
1631192879064,-0.2562255859375,-0.097900390625,0.95477294921875
1631192879173,-0.271728515625,-0.08380126953125,0.95831298828125
1631192879173,-0.26385498046875,-0.09307861328125,0.96270751953125
1631192879173,-0.26287841796875,-0.091064453125,0.96405029296875
1631192879189,-0.26715087890625,-0.09185791015625,0.96710205078125
1631192879189,-0.2724609375,-0.08489990234375,0.96148681640625
1631192879204,-0.2689208984375,-0.0867919921875,0.96514892578125
1631192879267,-0.28228759765625,-0.08502197265625,0.95172119140625
1631192879267,-0.28125,-0.08477783203125,0.94830322265625
1631192879267,-0.27410888671875,-0.08258056640625,0.955078125
1631192879283,-0.2845458984375,-0.080322265625,0.93988037109375
1631192879283,-0.28692626953125,-0.0819091796875,0.93804931640625
1631192879283,-0.28662109375,-0.0816650390625,0.94317626953125
1631192879392,-0.28729248046875,-0.082275390625,0.94549560546875
1631192879408,-0.28778076171875,-0.08319091796875,0.941650390625
1631192879408,-0.2874755859375,-0.080322265625,0.93768310546875
1631192879423,-0.2781982421875,-0.08203125,0.938720703125
1631192879423,-0.28106689453125,-0.0826416015625,0.94146728515625
1631192879423,-0.28704833984375,-0.08331298828125,0.9407958984375
1631192879502,-0.28192138671875,-0.08050537109375,0.941162109375
1631192879502,-0.2784423828125,-0.08062744140625,0.9346923828125
1631192879502,-0.27655029296875,-0.08233642578125,0.9400634765625
1631192879517,-0.27850341796875,-0.09271240234375,0.9427490234375
1631192879517,-0.28155517578125,-0.0826416015625,0.9384765625
1631192879517,-0.27813720703125,-0.08795166015625,0.94232177734375
1631192879657,-0.27728271484375,-0.10089111328125,0.94976806640625
1631192879657,-0.2774658203125,-0.10882568359375,0.9498291015625
1631192879673,-0.28143310546875,-0.11004638671875,0.9501953125
1631192879736,-0.2802734375,-0.0992431640625,0.94512939453125
1631192879736,-0.2830810546875,-0.10302734375,0.94183349609375
1631192879736,-0.27752685546875,-0.10272216796875,0.9466552734375
1631192879798,-0.28558349609375,-0.09967041015625,0.948486328125
1631192879798,-0.29248046875,-0.095703125,0.94781494140625
1631192879814,-0.2996826171875,-0.093017578125,0.93896484375
1631192879814,-0.287841796875,-0.10235595703125,0.9473876953125
1631192879829,-0.29193115234375,-0.0927734375,0.9453125
1631192879829,-0.29998779296875,-0.0899658203125,0.94610595703125
1631192879861,-0.29571533203125,-0.08013916015625,0.93603515625
1631192879861,-0.2969970703125,-0.08917236328125,0.930908203125
1631192879861,-0.30120849609375,-0.09039306640625,0.93670654296875
1631192879939,-0.2855224609375,-0.08929443359375,0.95263671875
1631192879939,-0.28021240234375,-0.09326171875,0.9471435546875
1631192879939,-0.28546142578125,-0.08685302734375,0.94769287109375
1631192879939,-0.28607177734375,-0.0860595703125,0.94915771484375
1631192879939,-0.29412841796875,-0.08392333984375,0.93634033203125
1631192879939,-0.29534912109375,-0.088623046875,0.947509765625
1631192880051,-0.2774658203125,-0.09735107421875,0.94873046875
1631192880051,-0.28131103515625,-0.09991455078125,0.94573974609375
1631192880051,-0.27642822265625,-0.09906005859375,0.94683837890625
1631192880066,-0.27703857421875,-0.101806640625,0.94720458984375
1631192880066,-0.27496337890625,-0.09881591796875,0.9451904296875
1631192880066,-0.27264404296875,-0.09918212890625,0.9476318359375
1631192880113,-0.2730712890625,-0.0986328125,0.9459228515625
1631192880113,-0.275390625,-0.1004638671875,0.94573974609375
1631192880113,-0.27203369140625,-0.09576416015625,0.94891357421875
1631192880176,-0.27105712890625,-0.10247802734375,0.94610595703125
1631192880176,-0.27203369140625,-0.103759765625,0.944091796875
1631192880176,-0.27239990234375,-0.09930419921875,0.94488525390625
1631192880285,-0.27032470703125,-0.10516357421875,0.95001220703125
1631192880285,-0.27044677734375,-0.10272216796875,0.95050048828125
1631192880285,-0.27093505859375,-0.1058349609375,0.94488525390625
1631192880301,-0.27008056640625,-0.100341796875,0.953857421875
1631192880301,-0.26904296875,-0.1005859375,0.95172119140625
1631192880301,-0.267822265625,-0.099365234375,0.95245361328125
1631192880379,-0.26873779296875,-0.10546875,0.9532470703125
1631192880379,-0.2696533203125,-0.10162353515625,0.95709228515625
1631192880379,-0.2705078125,-0.10223388671875,0.956298828125
1631192880457,-0.27435302734375,-0.1048583984375,0.9578857421875
1631192880457,-0.279296875,-0.111328125,0.95281982421875
1631192880457,-0.27703857421875,-0.110595703125,0.95074462890625
1631192880520,-0.28009033203125,-0.1021728515625,0.9508056640625
1631192880520,-0.2823486328125,-0.09124755859375,0.94488525390625
1631192880520,-0.2830810546875,-0.091064453125,0.95001220703125
1631192880597,-0.28326416015625,-0.0963134765625,0.94219970703125
1631192880597,-0.283935546875,-0.10205078125,0.93853759765625
1631192880597,-0.286865234375,-0.113037109375,0.93609619140625
1631192880660,-0.27520751953125,-0.1304931640625,0.93695068359375
1631192880660,-0.27789306640625,-0.12518310546875,0.9334716796875
1631192880660,-0.281005859375,-0.11810302734375,0.9307861328125
1631192880675,-0.276123046875,-0.13055419921875,0.93914794921875
1631192880675,-0.272705078125,-0.1260986328125,0.942626953125
1631192880925,-0.2686767578125,-0.12847900390625,0.94940185546875
1631192880925,-0.26422119140625,-0.14447021484375,0.94989013671875
1631192880925,-0.26165771484375,-0.14239501953125,0.9383544921875
1631192880925,-0.2637939453125,-0.1295166015625,0.9473876953125
1631192880925,-0.27154541015625,-0.12615966796875,0.94671630859375
1631192880925,-0.26385498046875,-0.13629150390625,0.93878173828125
1631192881004,-0.26812744140625,-0.10992431640625,0.95550537109375
1631192881004,-0.27142333984375,-0.1011962890625,0.9580078125
1631192881004,-0.27020263671875,-0.12506103515625,0.9521484375
1631192881021,-0.27105712890625,-0.0946044921875,0.95782470703125
1631192881021,-0.27105712890625,-0.07672119140625,0.94757080078125
1631192881021,-0.270751953125,-0.06024169921875,0.94244384765625
1631192881100,-0.262939453125,-0.028564453125,0.9423828125
1631192881100,-0.2530517578125,-0.023193359375,0.95098876953125
1631192881100,-0.26678466796875,-0.01092529296875,0.94769287109375
1631192881100,-0.27484130859375,-0.04486083984375,0.9481201171875
1631192881100,-0.27044677734375,-0.0120849609375,0.97833251953125
1631192881100,-0.24664306640625,-0.01434326171875,0.94342041015625
1631192881100,-0.2711181640625,-0.0185546875,0.95599365234375
1631192881100,-0.26910400390625,-0.00634765625,0.9755859375
1631192881100,-0.242431640625,-0.0196533203125,0.94659423828125
1631192881100,-0.27105712890625,-0.03302001953125,0.95928955078125
1631192881115,-0.2662353515625,-0.015869140625,0.9705810546875
1631192881115,-0.25640869140625,-0.0208740234375,0.97430419921875
1631192881193,-0.2335205078125,-0.03448486328125,0.9493408203125
1631192881193,-0.23480224609375,-0.02532958984375,0.94775390625
1631192881193,-0.23907470703125,-0.04632568359375,0.9693603515625
1631192881256,-0.235107421875,-0.06329345703125,0.95599365234375
1631192881256,-0.23895263671875,-0.0714111328125,0.98095703125
1631192881256,-0.23577880859375,-0.0732421875,0.97076416015625
1631192881381,-0.24639892578125,-0.06402587890625,0.9842529296875
1631192881381,-0.25018310546875,-0.0546875,0.97955322265625
1631192881381,-0.24578857421875,-0.05804443359375,0.98797607421875
1631192881475,-0.24725341796875,-0.05810546875,0.9677734375
1631192881475,-0.2452392578125,-0.06036376953125,0.9718017578125
1631192881475,-0.25537109375,-0.05950927734375,0.97686767578125
1631192881490,-0.2742919921875,-0.052734375,0.96771240234375
1631192881490,-0.26885986328125,-0.056640625,0.9732666015625
1631192881490,-0.258544921875,-0.05743408203125,0.9774169921875
1631192881584,-0.28924560546875,-0.050537109375,0.94073486328125
1631192881584,-0.29351806640625,-0.03436279296875,0.9423828125
1631192881600,-0.29241943359375,-0.0458984375,0.94122314453125
1631192881600,-0.28375244140625,-0.048828125,0.9517822265625
1631192881600,-0.28179931640625,-0.05194091796875,0.95648193359375
1631192881600,-0.28900146484375,-0.04833984375,0.9366455078125
1631192881646,-0.28717041015625,-0.04205322265625,0.932861328125
1631192881662,-0.29376220703125,-0.0291748046875,0.938232421875
1631192881662,-0.2864990234375,-0.0374755859375,0.93511962890625
1631192881662,-0.28863525390625,-0.03411865234375,0.9345703125
1631192881662,-0.29217529296875,-0.02923583984375,0.9346923828125
1631192881724,-0.28765869140625,-0.03131103515625,0.9483642578125
1631192881724,-0.28863525390625,-0.03631591796875,0.94183349609375
1631192881724,-0.28765869140625,-0.04290771484375,0.93743896484375
1631192881802,-0.27996826171875,-0.0294189453125,0.95245361328125
1631192881802,-0.28106689453125,-0.0286865234375,0.95111083984375
1631192881802,-0.2781982421875,-0.03662109375,0.95574951171875
1631192881818,-0.28179931640625,-0.02105712890625,0.95269775390625
1631192881818,-0.2818603515625,-0.02276611328125,0.95562744140625
1631192881818,-0.2838134765625,-0.02520751953125,0.94677734375
1631192881881,-0.2850341796875,-0.042724609375,0.96551513671875
1631192881881,-0.28216552734375,-0.0389404296875,0.957275390625
1631192881881,-0.28485107421875,-0.04229736328125,0.970947265625
1631192882006,-0.27764892578125,-0.0396728515625,0.954833984375
1631192882006,-0.2830810546875,-0.0362548828125,0.9615478515625
1631192882006,-0.28155517578125,-0.035400390625,0.95758056640625
1631192882037,-0.27911376953125,-0.0408935546875,0.96148681640625
1631192882037,-0.2841796875,-0.03363037109375,0.9664306640625
1631192882037,-0.2841796875,-0.0428466796875,0.96044921875
1631192882037,-0.28472900390625,-0.036376953125,0.97021484375
1631192882037,-0.28399658203125,-0.03759765625,0.96929931640625
1631192882037,-0.2806396484375,-0.04241943359375,0.96337890625
1631192882146,-0.28240966796875,-0.04669189453125,0.9599609375
1631192882146,-0.28021240234375,-0.04461669921875,0.9576416015625
1631192882146,-0.27606201171875,-0.03912353515625,0.9501953125
1631192882287,-0.2733154296875,-0.03033447265625,0.93695068359375
1631192882287,-0.2686767578125,-0.03375244140625,0.929443359375
1631192882287,-0.26849365234375,-0.03460693359375,0.92413330078125
1631192882302,-0.272705078125,-0.0286865234375,0.92669677734375
1631192882302,-0.27252197265625,-0.02880859375,0.92724609375
1631192882302,-0.27496337890625,-0.03009033203125,0.9342041015625
1631192882318,-0.27301025390625,-0.02789306640625,0.94097900390625
1631192882318,-0.2752685546875,-0.0233154296875,0.94439697265625
1631192882318,-0.27703857421875,-0.02227783203125,0.9473876953125
1631192882365,-0.2813720703125,-0.0208740234375,0.9688720703125
1631192882381,-0.2738037109375,-0.02288818359375,0.95965576171875
1631192882381,-0.27862548828125,-0.0218505859375,0.9671630859375
1631192882521,-0.28729248046875,-0.02862548828125,0.96807861328125
1631192882521,-0.28717041015625,-0.0316162109375,0.96453857421875
1631192882537,-0.2952880859375,-0.0352783203125,0.9547119140625
1631192882599,-0.30743408203125,-0.0474853515625,0.94451904296875
