timestamp,ax,ay,az
1631118271059,-0.1492919921875,0.1326904296875,0.982666015625
1631118271059,-0.150146484375,0.12835693359375,0.98016357421875
1631118271060,-0.14434814453125,0.12701416015625,0.97808837890625
1631118271485,-0.15155029296875,0.12811279296875,0.97528076171875
1631118271485,-0.15240478515625,0.1285400390625,0.97418212890625
1631118271485,-0.15264892578125,0.1322021484375,0.97735595703125
1631118271485,-0.15643310546875,0.12615966796875,0.97979736328125
1631118271485,-0.15478515625,0.1336669921875,0.9736328125
1631118271502,-0.1533203125,0.1322021484375,0.9744873046875
1631118271777,-0.152099609375,0.13677978515625,0.9718017578125
1631118271777,-0.15472412109375,0.13421630859375,0.97283935546875
1631118271777,-0.15716552734375,0.13824462890625,0.97930908203125
1631118271808,-0.1541748046875,0.15545654296875,0.9886474609375
1631118271808,-0.15869140625,0.1434326171875,0.98016357421875
1631118271808,-0.1558837890625,0.1485595703125,0.98333740234375
1631118271841,-0.15570068359375,0.1541748046875,0.9915771484375
1631118271841,-0.1534423828125,0.1441650390625,0.9801025390625
1631118271841,-0.1575927734375,0.13323974609375,0.97467041015625
1631118271880,-0.162353515625,0.1175537109375,0.97344970703125
1631118271880,-0.16009521484375,0.12628173828125,0.9713134765625
1631118271881,-0.16424560546875,0.1160888671875,0.9776611328125
1631118272036,-0.1741943359375,0.1031494140625,0.9715576171875
1631118272036,-0.1702880859375,0.1033935546875,0.96929931640625
1631118272057,-0.17498779296875,0.10076904296875,0.976318359375
1631118272114,-0.185546875,0.07891845703125,0.9705810546875
1631118272115,-0.18731689453125,0.0833740234375,0.97113037109375
1631118272117,-0.18572998046875,0.0841064453125,0.97015380859375
1631118272287,-0.19268798828125,0.08209228515625,0.96875
1631118272287,-0.19671630859375,0.0894775390625,0.9747314453125
1631118272287,-0.1949462890625,0.09112548828125,0.9735107421875
1631118272287,-0.187255859375,0.078857421875,0.9700927734375
1631118272287,-0.19354248046875,0.084716796875,0.97174072265625
1631118272288,-0.19158935546875,0.08514404296875,0.96917724609375
1631118272451,-0.201416015625,0.09503173828125,0.9715576171875
1631118272454,-0.19586181640625,0.09515380859375,0.9693603515625
1631118272454,-0.19842529296875,0.09832763671875,0.9683837890625
1631118272484,-0.20489501953125,0.0859375,0.97247314453125
1631118272484,-0.2047119140625,0.0919189453125,0.97161865234375
1631118272498,-0.20281982421875,0.09722900390625,0.9725341796875
1631118272551,-0.20343017578125,0.07421875,0.96978759765625
1631118272552,-0.2100830078125,0.07220458984375,0.9710693359375
1631118272552,-0.20660400390625,0.0714111328125,0.976318359375
1631118272852,-0.2147216796875,0.0667724609375,0.97174072265625
1631118272852,-0.21343994140625,0.07183837890625,0.9747314453125
1631118272852,-0.2149658203125,0.06536865234375,0.968505859375
1631118273051,-0.21551513671875,0.071044921875,0.964111328125
1631118273051,-0.21868896484375,0.0706787109375,0.967041015625
1631118273051,-0.2191162109375,0.0711669921875,0.9654541015625
1631118273367,-0.2186279296875,0.10064697265625,0.96990966796875
1631118273367,-0.217041015625,0.10345458984375,0.9644775390625
1631118273367,-0.21539306640625,0.096435546875,0.96966552734375
1631118274256,-0.21649169921875,0.11041259765625,0.964599609375
1631118274257,-0.218017578125,0.11090087890625,0.96575927734375
1631118274257,-0.220703125,0.1119384765625,0.96588134765625
1631118274348,-0.2196044921875,0.101318359375,0.95440673828125
1631118274348,-0.21856689453125,0.10491943359375,0.95965576171875
1631118274349,-0.215576171875,0.10400390625,0.96124267578125
1631118274537,-0.212890625,0.10174560546875,0.96917724609375
1631118274537,-0.21722412109375,0.10247802734375,0.96527099609375
1631118274537,-0.21405029296875,0.10064697265625,0.9691162109375
1631118274971,-0.20751953125,0.10345458984375,0.96868896484375
1631118274986,-0.20172119140625,0.10223388671875,0.97015380859375
1631118274988,-0.2030029296875,0.1004638671875,0.9674072265625
1631118275047,-0.20166015625,0.09173583984375,0.968505859375
1631118275047,-0.19854736328125,0.09136962890625,0.96832275390625
1631118275047,-0.202880859375,0.0938720703125,0.97509765625
1631118275078,-0.19891357421875,0.10205078125,0.97802734375
1631118275079,-0.20465087890625,0.10504150390625,0.9735107421875
1631118275079,-0.20428466796875,0.10296630859375,0.97564697265625
1631118275129,-0.20306396484375,0.10540771484375,0.9608154296875
1631118275129,-0.20184326171875,0.10272216796875,0.96295166015625
1631118275139,-0.200439453125,0.10003662109375,0.964111328125
1631118276099,-0.1907958984375,0.1051025390625,0.9775390625
1631118276100,-0.1912841796875,0.1085205078125,0.972412109375
1631118276102,-0.189208984375,0.1083984375,0.96893310546875
1631118276131,-0.1922607421875,0.10894775390625,0.97100830078125
1631118276133,-0.19091796875,0.1041259765625,0.96832275390625
1631118276134,-0.18804931640625,0.10614013671875,0.96588134765625
1631118276206,-0.19122314453125,0.10675048828125,0.9658203125
1631118276209,-0.18585205078125,0.10284423828125,0.9671630859375
1631118276210,-0.19091796875,0.1033935546875,0.95916748046875
1631118276212,-0.1903076171875,0.10357666015625,0.95709228515625
1631118276214,-0.19140625,0.10107421875,0.95318603515625
1631118276216,-0.19256591796875,0.09661865234375,0.94537353515625
1631118276426,-0.1937255859375,0.091064453125,0.93768310546875
1631118276427,-0.1934814453125,0.09051513671875,0.93841552734375
1631118276428,-0.1883544921875,0.081298828125,0.9329833984375
1631118276668,-0.04681396484375,0.15423583984375,0.98565673828125
1631118276670,-0.04534912109375,0.15643310546875,0.9952392578125
1631118276671,-0.04345703125,0.1551513671875,0.997802734375
1631118276740,-0.03179931640625,0.1468505859375,0.99658203125
1631118276744,-0.0301513671875,0.14117431640625,1.00787353515625
1631118276746,-0.031005859375,0.13323974609375,1.0050048828125
1631118276808,-0.02764892578125,0.12677001953125,0.9993896484375
1631118276809,-0.0191650390625,0.13214111328125,0.995849609375
1631118276809,-0.022705078125,0.130126953125,0.99267578125
1631118276886,-0.02276611328125,0.1275634765625,0.99005126953125
1631118276887,-0.0247802734375,0.11712646484375,0.9891357421875
1631118276887,-0.02496337890625,0.1129150390625,0.99066162109375
1631118276936,-0.03460693359375,0.11572265625,0.99676513671875
1631118276938,-0.0335693359375,0.115234375,0.990966796875
1631118276939,-0.03546142578125,0.1248779296875,0.9771728515625
1631118277003,-0.048828125,-0.008544921875,1.0047607421875
1631118277004,-0.0467529296875,-0.0223388671875,1.0081787109375
1631118277005,-0.04486083984375,-0.03704833984375,1.0093994140625
1631118277113,-0.04205322265625,-0.047119140625,1.00323486328125
1631118277116,-0.04071044921875,-0.0465087890625,1.00299072265625
1631118277118,-0.037109375,-0.0467529296875,1.00506591796875
1631118277147,-0.03436279296875,-0.04449462890625,0.9969482421875
1631118277147,-0.031982421875,-0.048095703125,0.97943115234375
1631118277148,-0.02508544921875,-0.05810546875,0.9732666015625
1631118277160,-0.0228271484375,-0.05474853515625,0.99432373046875
1631118277161,-0.0198974609375,-0.05316162109375,1.0233154296875
1631118277161,-0.01458740234375,-0.0506591796875,1.02618408203125
1631118277171,-0.0106201171875,-0.047607421875,1.02301025390625
1631118277173,-0.00787353515625,-0.044677734375,1.01116943359375
1631118277175,-0.0087890625,-0.04296875,1.01556396484375
1631118277215,-0.011962890625,-0.03948974609375,1.0362548828125
1631118277216,-0.00848388671875,-0.03131103515625,1.03741455078125
1631118277217,-0.0069580078125,-0.02044677734375,1.02471923828125
1631118277305,-0.03369140625,0.0318603515625,0.98016357421875
1631118277306,-0.037109375,0.0264892578125,0.97808837890625
1631118277306,-0.0352783203125,0.0208740234375,0.9605712890625
1631118277354,-0.04522705078125,0.01605224609375,0.964111328125
1631118277357,-0.05401611328125,0.0247802734375,0.9840087890625
1631118277357,-0.04547119140625,0.02215576171875,0.974365234375
1631118277386,-0.060302734375,0.024169921875,0.9873046875
1631118277387,-0.0736083984375,0.02081298828125,0.988037109375
1631118277387,-0.0728759765625,0.022705078125,0.97723388671875
1631118277422,-0.0758056640625,0.0474853515625,1.01239013671875
1631118277423,-0.067626953125,0.06842041015625,1.01727294921875
1631118277423,-0.0635986328125,0.0782470703125,1.00994873046875
1631118277433,-0.055419921875,0.09033203125,1.00909423828125
1631118277433,-0.05230712890625,0.09063720703125,1.00982666015625
1631118277434,-0.055419921875,0.09613037109375,1.0147705078125
1631118277437,-0.05804443359375,0.10772705078125,1.000244140625
1631118277437,-0.057373046875,0.11041259765625,0.96533203125
1631118277437,-0.05792236328125,0.1107177734375,0.9779052734375
1631118277528,-0.06573486328125,0.11474609375,0.96240234375
1631118277529,-0.06231689453125,0.118408203125,0.9691162109375
1631118277531,-0.0673828125,0.11993408203125,0.96343994140625
1631118277587,-0.0621337890625,0.11846923828125,0.99102783203125
1631118277587,-0.0582275390625,0.11883544921875,0.98077392578125
1631118277593,-0.05926513671875,0.11993408203125,0.99481201171875
1631118277648,-0.0579833984375,0.1151123046875,1.00213623046875
1631118277649,-0.055908203125,0.1002197265625,1.0037841796875
1631118277650,-0.05224609375,0.09033203125,1.01251220703125
1631118277699,-0.0400390625,0.1116943359375,1.05126953125
1631118277699,-0.02947998046875,0.114501953125,1.04962158203125
1631118277701,-0.025390625,0.11627197265625,1.03448486328125
1631118277768,-0.0511474609375,0.1090087890625,0.97601318359375
1631118277770,-0.04046630859375,0.1094970703125,1.00079345703125
1631118277770,-0.03009033203125,0.11431884765625,1.0208740234375
1631118277813,-0.0704345703125,0.0938720703125,0.9384765625
1631118277813,-0.05975341796875,0.10015869140625,0.9517822265625
1631118277813,-0.07208251953125,0.08740234375,0.92730712890625
1631118278039,-0.0699462890625,0.07647705078125,0.91656494140625
1631118278039,-0.0777587890625,0.06378173828125,0.9306640625
1631118278039,-0.0743408203125,0.05181884765625,0.94830322265625
1631118278058,-0.07415771484375,0.05706787109375,0.973388671875
1631118278059,-0.075927734375,0.0457763671875,1.0108642578125
1631118278061,-0.072265625,0.0523681640625,0.99169921875
1631118278075,-0.07061767578125,0.03973388671875,1.05206298828125
1631118278075,-0.06805419921875,0.046630859375,1.05902099609375
1631118278076,-0.07025146484375,0.043701171875,1.04937744140625
1631118278272,-0.13604736328125,0.11810302734375,0.94732666015625
1631118278288,-0.1241455078125,0.1097412109375,0.9385986328125
1631118278288,-0.126220703125,0.11724853515625,0.9417724609375
1631118278288,-0.1180419921875,0.11279296875,0.95703125
1631118278289,-0.08514404296875,0.109619140625,1.007080078125
1631118278289,-0.075439453125,0.11175537109375,1.02716064453125
1631118278290,-0.10760498046875,0.109130859375,0.9837646484375
1631118278291,-0.097412109375,0.1043701171875,0.98919677734375
1631118278294,-0.11077880859375,0.11053466796875,0.968994140625
1631118278446,-0.1475830078125,0.05743408203125,0.982666015625
1631118278446,-0.14996337890625,0.05853271484375,0.98724365234375
1631118278454,-0.14569091796875,0.07373046875,0.9957275390625
1631118278493,-0.14410400390625,0.087158203125,0.98992919921875
1631118278494,-0.14849853515625,0.0936279296875,0.9764404296875
1631118278507,-0.15350341796875,0.10369873046875,0.9833984375
1631118278653,-0.14544677734375,0.1170654296875,0.98504638671875
1631118278653,-0.15008544921875,0.11065673828125,0.9984130859375
1631118278654,-0.149658203125,0.10699462890625,0.9864501953125
1631118278844,-0.1650390625,0.099609375,0.98175048828125
1631118278844,-0.16436767578125,0.09942626953125,0.98309326171875
1631118278845,-0.1639404296875,0.107666015625,0.97149658203125
1631118279019,-0.16058349609375,0.11456298828125,0.968505859375
1631118279019,-0.16192626953125,0.115478515625,0.98358154296875
1631118279019,-0.15948486328125,0.11944580078125,0.96771240234375
1631118279184,-0.15478515625,0.13018798828125,0.97186279296875
1631118279184,-0.159912109375,0.134765625,0.98040771484375
1631118279184,-0.159423828125,0.12890625,0.975341796875
1631118279439,-0.1597900390625,0.13983154296875,0.9849853515625
1631118279439,-0.15789794921875,0.14599609375,0.97979736328125
1631118279441,-0.1622314453125,0.13531494140625,0.983642578125
1631118279555,-0.1915283203125,0.11370849609375,0.9713134765625
1631118279555,-0.1922607421875,0.119384765625,0.992919921875
1631118279555,-0.18841552734375,0.1258544921875,0.99127197265625
1631118279901,-0.210693359375,0.08782958984375,0.96307373046875
1631118279901,-0.20074462890625,0.10845947265625,0.9658203125
1631118279901,-0.20428466796875,0.09661865234375,0.970703125
1631118280084,-0.2298583984375,0.069580078125,0.9521484375
1631118280084,-0.225830078125,0.07293701171875,0.9547119140625
1631118280085,-0.21380615234375,0.08319091796875,0.96209716796875
1631118280085,-0.21282958984375,0.0784912109375,0.95770263671875
1631118280085,-0.21728515625,0.07647705078125,0.95367431640625
1631118280087,-0.21923828125,0.07611083984375,0.955078125
1631118280115,-0.22955322265625,0.07318115234375,0.9490966796875
1631118280118,-0.23040771484375,0.0755615234375,0.9464111328125
1631118280123,-0.22979736328125,0.0711669921875,0.94708251953125
1631118280368,-0.23883056640625,0.0565185546875,0.9534912109375
1631118280368,-0.23516845703125,0.05426025390625,0.97064208984375
1631118280368,-0.2349853515625,0.055419921875,0.95526123046875
1631118280368,-0.23614501953125,0.05218505859375,0.980712890625
1631118280368,-0.23565673828125,0.05718994140625,0.962890625
1631118280388,-0.23431396484375,0.04913330078125,0.97833251953125
1631118280508,-0.23333740234375,0.0518798828125,0.97210693359375
1631118280510,-0.23248291015625,0.0555419921875,0.966796875
1631118280522,-0.23236083984375,0.05535888671875,0.96160888671875
1631118280568,-0.2186279296875,0.04583740234375,0.96026611328125
1631118280569,-0.21722412109375,0.0452880859375,0.96722412109375
1631118280573,-0.21954345703125,0.04931640625,0.96051025390625
1631118280697,-0.2109375,0.06591796875,0.97412109375
1631118280702,-0.20703125,0.0706787109375,0.97161865234375
1631118280703,-0.20367431640625,0.07183837890625,0.97149658203125
1631118280726,-0.18438720703125,0.0775146484375,0.97796630859375
1631118280740,-0.1807861328125,0.08343505859375,0.98236083984375
1631118280749,-0.18756103515625,0.08026123046875,0.98272705078125
1631118280868,-0.1767578125,0.08447265625,0.97906494140625
1631118280869,-0.1756591796875,0.0869140625,0.9820556640625
1631118280869,-0.17486572265625,0.0838623046875,0.98052978515625
1631118280978,-0.1724853515625,0.08465576171875,0.981689453125
1631118280984,-0.1748046875,0.086669921875,0.9794921875
1631118280986,-0.17822265625,0.08612060546875,0.9775390625
1631118281066,-0.17474365234375,0.08721923828125,0.979736328125
1631118281068,-0.17608642578125,0.087158203125,0.9781494140625
1631118281071,-0.1766357421875,0.08709716796875,0.97528076171875
1631118281073,-0.176025390625,0.08477783203125,0.9783935546875
1631118281075,-0.1766357421875,0.08709716796875,0.97821044921875
1631118281078,-0.1778564453125,0.08447265625,0.974365234375
1631118281148,-0.17486572265625,0.08270263671875,0.97235107421875
1631118281151,-0.1778564453125,0.08221435546875,0.97491455078125
1631118281154,-0.17474365234375,0.08734130859375,0.97900390625
1631118281157,-0.18096923828125,0.084716796875,0.98016357421875
1631118281160,-0.17901611328125,0.08349609375,0.98223876953125
1631118281163,-0.17926025390625,0.08349609375,0.9810791015625
1631118281292,-0.1805419921875,0.07537841796875,0.97149658203125
1631118281293,-0.18157958984375,0.07568359375,0.972900390625
1631118281294,-0.181884765625,0.07940673828125,0.97137451171875
1631118281296,-0.1810302734375,0.07684326171875,0.97418212890625
1631118281298,-0.18017578125,0.07501220703125,0.97564697265625
1631118281299,-0.179931640625,0.07769775390625,0.9796142578125
1631118281446,-0.1822509765625,0.07940673828125,0.9759521484375
1631118281449,-0.18206787109375,0.08038330078125,0.97503662109375
1631118281451,-0.18817138671875,0.07989501953125,0.9786376953125
1631118281659,-0.18450927734375,0.07470703125,0.97821044921875
1631118281659,-0.18377685546875,0.0740966796875,0.97430419921875
1631118281659,-0.1824951171875,0.0689697265625,0.9718017578125
1631118281780,-0.1856689453125,0.07611083984375,0.97705078125
1631118281780,-0.18170166015625,0.07379150390625,0.9735107421875
1631118281780,-0.18377685546875,0.0740966796875,0.9775390625
1631118281918,-0.18115234375,0.0804443359375,0.978515625
1631118281918,-0.18145751953125,0.0804443359375,0.9757080078125
1631118281926,-0.1790771484375,0.07818603515625,0.97979736328125
1631118281949,-0.1806640625,0.07855224609375,0.97601318359375
1631118281949,-0.17962646484375,0.0802001953125,0.97747802734375
1631118281949,-0.17919921875,0.0810546875,0.97686767578125
1631118281965,-0.18212890625,0.0814208984375,0.97589111328125
1631118281965,-0.18121337890625,0.08160400390625,0.97406005859375
1631118281966,-0.178955078125,0.08294677734375,0.97393798828125
1631118282042,-0.1771240234375,0.07769775390625,0.9775390625
1631118282042,-0.18231201171875,0.0789794921875,0.97705078125
1631118282042,-0.180419921875,0.07598876953125,0.97509765625
1631118282335,-0.17938232421875,0.07855224609375,0.97723388671875
1631118282335,-0.17645263671875,0.0762939453125,0.978515625
1631118282352,-0.18182373046875,0.07666015625,0.98046875
1631118282653,-0.180908203125,0.08160400390625,0.98040771484375
1631118282653,-0.18035888671875,0.08319091796875,0.98211669921875
1631118282653,-0.1756591796875,0.087890625,0.9822998046875
1631118282754,-0.18359375,0.0810546875,0.9769287109375
1631118282761,-0.18194580078125,0.08062744140625,0.973876953125
1631118282761,-0.18145751953125,0.08135986328125,0.97576904296875
1631118282851,-0.1822509765625,0.07318115234375,0.975341796875
1631118282853,-0.17803955078125,0.0751953125,0.97589111328125
1631118282853,-0.17962646484375,0.07403564453125,0.97479248046875
1631118282883,-0.183837890625,0.07354736328125,0.97747802734375
1631118282884,-0.1805419921875,0.07391357421875,0.9796142578125
1631118282889,-0.17962646484375,0.07513427734375,0.97784423828125
1631118282900,-0.17852783203125,0.07733154296875,0.9818115234375
1631118282901,-0.1856689453125,0.08221435546875,0.98089599609375
1631118282905,-0.18017578125,0.079345703125,0.9808349609375
1631118283020,-0.17681884765625,0.0758056640625,0.97637939453125
1631118283020,-0.17205810546875,0.07720947265625,0.98272705078125
1631118283020,-0.1729736328125,0.0755615234375,0.98388671875
1631118283022,-0.17266845703125,0.0787353515625,0.97991943359375
1631118283022,-0.173583984375,0.07513427734375,0.9788818359375
1631118283028,-0.1744384765625,0.07366943359375,0.97637939453125
1631118283039,-0.1728515625,0.0831298828125,0.97412109375
1631118283039,-0.1739501953125,0.079833984375,0.9755859375
1631118283049,-0.176025390625,0.08111572265625,0.975830078125
1631118283163,-0.17315673828125,0.0811767578125,0.9761962890625
1631118283164,-0.17840576171875,0.0836181640625,0.97662353515625
1631118283165,-0.17510986328125,0.08441162109375,0.97869873046875
1631118283465,-0.1751708984375,0.07733154296875,0.9764404296875
1631118283467,-0.1741943359375,0.07550048828125,0.97894287109375
1631118283467,-0.1759033203125,0.07916259765625,0.97723388671875
1631118283563,-0.175537109375,0.074951171875,0.98602294921875
1631118283564,-0.173828125,0.0780029296875,0.98345947265625
1631118283566,-0.1741943359375,0.07672119140625,0.9815673828125
1631118283655,-0.17242431640625,0.07354736328125,0.98358154296875
1631118283655,-0.174560546875,0.074462890625,0.9832763671875
1631118283655,-0.17315673828125,0.072509765625,0.98046875
1631118283862,-0.17840576171875,0.0712890625,0.9814453125
1631118283862,-0.1766357421875,0.064208984375,0.974853515625
1631118283876,-0.17364501953125,0.0732421875,0.9793701171875
1631118283878,-0.175537109375,0.066162109375,0.9678955078125
1631118283881,-0.171630859375,0.07000732421875,0.97088623046875
1631118283882,-0.17034912109375,0.07135009765625,0.9783935546875
1631118283901,-0.16827392578125,0.06829833984375,0.9825439453125
1631118283901,-0.1705322265625,0.068603515625,0.97784423828125
1631118283904,-0.17132568359375,0.070068359375,0.98089599609375
1631118284100,-0.16754150390625,0.0677490234375,0.98138427734375
1631118284103,-0.166748046875,0.07049560546875,0.98443603515625
1631118284104,-0.16558837890625,0.07061767578125,0.9808349609375
1631118284116,-0.1729736328125,0.07073974609375,0.98211669921875
1631118284117,-0.17071533203125,0.0626220703125,0.98052978515625
1631118284117,-0.16925048828125,0.0657958984375,0.98321533203125
1631118284131,-0.1685791015625,0.0775146484375,0.9783935546875
1631118284133,-0.17095947265625,0.0748291015625,0.97821044921875
1631118284134,-0.1697998046875,0.07623291015625,0.980712890625
1631118284216,-0.1722412109375,0.0740966796875,0.97882080078125
1631118284216,-0.16961669921875,0.0743408203125,0.97979736328125
1631118284219,-0.1708984375,0.0760498046875,0.9766845703125
1631118284270,-0.166015625,0.07940673828125,0.98052978515625
1631118284270,-0.1707763671875,0.0753173828125,0.9805908203125
1631118284272,-0.16900634765625,0.07470703125,0.9794921875
1631118284272,-0.16943359375,0.073486328125,0.982666015625
1631118284285,-0.1700439453125,0.0814208984375,0.97613525390625
1631118284285,-0.17120361328125,0.079345703125,0.9759521484375
1631118284344,-0.16595458984375,0.08026123046875,0.98095703125
1631118284348,-0.16650390625,0.08477783203125,0.98486328125
1631118284349,-0.16436767578125,0.0845947265625,0.984375
1631118284471,-0.1671142578125,0.0794677734375,0.978759765625
1631118284471,-0.170166015625,0.0810546875,0.9781494140625
1631118284474,-0.167724609375,0.0850830078125,0.98284912109375
1631118284702,-0.1688232421875,0.07330322265625,0.98052978515625
1631118284702,-0.168701171875,0.07305908203125,0.981201171875
1631118284702,-0.17218017578125,0.080078125,0.981201171875
1631118284746,-0.17510986328125,0.07672119140625,0.978515625
1631118284752,-0.1689453125,0.0787353515625,0.97900390625
1631118284753,-0.17242431640625,0.07745361328125,0.97802734375
1631118284906,-0.16796875,0.08172607421875,0.97955322265625
1631118284907,-0.16815185546875,0.0806884765625,0.97723388671875
1631118284907,-0.1683349609375,0.07635498046875,0.97747802734375
1631118284907,-0.17095947265625,0.0802001953125,0.97515869140625
1631118284907,-0.1690673828125,0.07958984375,0.9766845703125
1631118284923,-0.16900634765625,0.081298828125,0.97662353515625
1631118285047,-0.1656494140625,0.08013916015625,0.98138427734375
1631118285047,-0.1649169921875,0.0782470703125,0.97998046875
1631118285047,-0.16986083984375,0.080322265625,0.98101806640625
1631118285202,-0.16668701171875,0.07781982421875,0.9808349609375
1631118285202,-0.16925048828125,0.07183837890625,0.982421875
1631118285202,-0.166748046875,0.0748291015625,0.97821044921875
1631118285234,-0.1658935546875,0.07080078125,0.9808349609375
1631118285234,-0.1644287109375,0.07305908203125,0.98052978515625
1631118285234,-0.16717529296875,0.07391357421875,0.98065185546875
1631118285444,-0.16827392578125,0.0679931640625,0.97076416015625
1631118285444,-0.16937255859375,0.07415771484375,0.978271484375
1631118285444,-0.16119384765625,0.07757568359375,0.979736328125
1631118285449,-0.16302490234375,0.0751953125,0.9827880859375
1631118285451,-0.164306640625,0.073974609375,0.97735595703125
1631118285462,-0.158935546875,0.07958984375,0.98431396484375
1631118285522,-0.16278076171875,0.0841064453125,0.9859619140625
1631118285522,-0.16412353515625,0.08294677734375,0.98431396484375
1631118285522,-0.163330078125,0.08306884765625,0.9833984375
1631118285558,-0.165283203125,0.083740234375,0.9788818359375
1631118285562,-0.16650390625,0.0771484375,0.97723388671875
1631118285562,-0.160888671875,0.0797119140625,0.97796630859375
1631118285620,-0.17169189453125,0.0738525390625,0.97900390625
1631118285620,-0.16778564453125,0.07769775390625,0.9820556640625
1631118285620,-0.16754150390625,0.074462890625,0.9810791015625
1631118285650,-0.16864013671875,0.0784912109375,0.9794921875
1631118285652,-0.16876220703125,0.08050537109375,0.9796142578125
1631118285652,-0.16802978515625,0.0811767578125,0.97894287109375
1631118285665,-0.16693115234375,0.08203125,0.97894287109375
1631118285666,-0.16680908203125,0.08148193359375,0.978759765625
1631118285666,-0.1676025390625,0.08056640625,0.98077392578125
1631118285758,-0.16680908203125,0.084228515625,0.9815673828125
1631118285758,-0.1636962890625,0.0819091796875,0.9801025390625
1631118285761,-0.1649169921875,0.08001708984375,0.9808349609375
1631118285790,-0.1639404296875,0.0789794921875,0.978759765625
1631118285790,-0.16552734375,0.079345703125,0.98101806640625
1631118285790,-0.16375732421875,0.07763671875,0.98095703125
1631118286124,-0.166259765625,0.07891845703125,0.98236083984375
1631118286125,-0.16607666015625,0.0771484375,0.9805908203125
1631118286125,-0.1668701171875,0.07855224609375,0.980712890625
1631118286344,-0.1650390625,0.072265625,0.975341796875
1631118286344,-0.16583251953125,0.07025146484375,0.9698486328125
1631118286344,-0.16180419921875,0.07574462890625,0.9793701171875
1631118286360,-0.16290283203125,0.07781982421875,0.98382568359375
1631118286360,-0.16644287109375,0.078125,0.98052978515625
1631118286362,-0.158935546875,0.0782470703125,0.9837646484375
1631118286391,-0.16876220703125,0.076904296875,0.98052978515625
1631118286391,-0.1636962890625,0.08306884765625,0.9771728515625
1631118286393,-0.1627197265625,0.0853271484375,0.9814453125
1631118286393,-0.16815185546875,0.07916259765625,0.98126220703125
1631118286393,-0.16473388671875,0.0789794921875,0.9801025390625
1631118286395,-0.1619873046875,0.08404541015625,0.98394775390625
1631118286740,-0.16796875,0.083251953125,0.98077392578125
1631118286752,-0.16650390625,0.0806884765625,0.98150634765625
1631118286752,-0.171142578125,0.08306884765625,0.9793701171875
1631118286771,-0.16461181640625,0.08221435546875,0.97613525390625
1631118286771,-0.16485595703125,0.0811767578125,0.98040771484375
1631118286781,-0.16668701171875,0.084228515625,0.9798583984375
1631118286784,-0.16485595703125,0.08282470703125,0.97869873046875
1631118286784,-0.16650390625,0.08380126953125,0.98101806640625
1631118286785,-0.163818359375,0.08648681640625,0.98065185546875
1631118286894,-0.16302490234375,0.07720947265625,0.98089599609375
1631118286894,-0.162841796875,0.0780029296875,0.98370361328125
1631118286910,-0.1656494140625,0.0751953125,0.9815673828125
1631118286990,-0.167724609375,0.0814208984375,0.98284912109375
1631118286990,-0.16748046875,0.07965087890625,0.9830322265625
1631118286992,-0.17095947265625,0.0750732421875,0.97967529296875
1631118287007,-0.1639404296875,0.077392578125,0.97845458984375
1631118287008,-0.16912841796875,0.07574462890625,0.972900390625
1631118287010,-0.16583251953125,0.07073974609375,0.9725341796875
1631118287104,-0.166015625,0.07025146484375,0.97784423828125
1631118287104,-0.1646728515625,0.0665283203125,0.97833251953125
1631118287105,-0.16339111328125,0.07666015625,0.98046875
1631118287105,-0.16766357421875,0.06671142578125,0.9815673828125
1631118287122,-0.162841796875,0.0791015625,0.983154296875
1631118287122,-0.16290283203125,0.0767822265625,0.98321533203125
1631118287199,-0.1693115234375,0.068603515625,0.9814453125
1631118287200,-0.16455078125,0.071533203125,0.982421875
1631118287200,-0.16278076171875,0.06781005859375,0.98333740234375
1631118287278,-0.1678466796875,0.07275390625,0.98016357421875
1631118287278,-0.1651611328125,0.07464599609375,0.97882080078125
1631118287278,-0.16583251953125,0.07501220703125,0.9791259765625
1631118287278,-0.1671142578125,0.07427978515625,0.98345947265625
1631118287278,-0.16473388671875,0.07366943359375,0.984130859375
1631118287278,-0.1654052734375,0.07452392578125,0.98175048828125
1631118287531,-0.16668701171875,0.08050537109375,0.9793701171875
1631118287531,-0.16461181640625,0.07720947265625,0.97760009765625
1631118287531,-0.16650390625,0.0762939453125,0.9803466796875
1631118287673,-0.16973876953125,0.0821533203125,0.974853515625
1631118287674,-0.16815185546875,0.0806884765625,0.977783203125
1631118287677,-0.16864013671875,0.08221435546875,0.980712890625
1631118287768,-0.16656494140625,0.08135986328125,0.97662353515625
1631118287769,-0.1688232421875,0.078857421875,0.97784423828125
1631118287769,-0.16778564453125,0.0804443359375,0.97979736328125
1631118287787,-0.1634521484375,0.072509765625,0.98333740234375
1631118287789,-0.16302490234375,0.07513427734375,0.979248046875
1631118287789,-0.16522216796875,0.07684326171875,0.97662353515625
1631118287789,-0.16064453125,0.07440185546875,0.982177734375
1631118287793,-0.16339111328125,0.0721435546875,0.984375
1631118287793,-0.16473388671875,0.0770263671875,0.9820556640625
1631118287993,-0.16741943359375,0.076171875,0.9798583984375
1631118287994,-0.16534423828125,0.073974609375,0.98162841796875
1631118287994,-0.16290283203125,0.07403564453125,0.9818115234375
1631118288068,-0.16815185546875,0.07611083984375,0.97900390625
1631118288068,-0.16168212890625,0.07696533203125,0.98089599609375
1631118288068,-0.159912109375,0.0709228515625,0.97210693359375
1631118288353,-0.1575927734375,0.0731201171875,0.98583984375
1631118288354,-0.15850830078125,0.0697021484375,0.98370361328125
1631118288354,-0.1588134765625,0.07513427734375,0.98712158203125
1631118288418,-0.16094970703125,0.0718994140625,0.9835205078125
1631118288419,-0.158935546875,0.07122802734375,0.98748779296875
1631118288421,-0.1646728515625,0.07647705078125,0.98382568359375
1631118288527,-0.1614990234375,0.07806396484375,0.97735595703125
1631118288527,-0.16192626953125,0.07781982421875,0.977294921875
1631118288528,-0.16339111328125,0.07977294921875,0.9803466796875
1631118288591,-0.1636962890625,0.07513427734375,0.97711181640625
1631118288591,-0.168212890625,0.07904052734375,0.97564697265625
1631118288607,-0.161865234375,0.075439453125,0.9737548828125
1631118288700,-0.16497802734375,0.07684326171875,0.979736328125
1631118288700,-0.16229248046875,0.0740966796875,0.98333740234375
1631118288700,-0.16412353515625,0.07598876953125,0.9759521484375
1631118288873,-0.16033935546875,0.0753173828125,0.98370361328125
1631118288893,-0.15673828125,0.07232666015625,0.982421875
1631118288893,-0.15704345703125,0.07415771484375,0.97998046875
1631118288925,-0.159423828125,0.07818603515625,0.97760009765625
1631118288925,-0.15771484375,0.07586669921875,0.986572265625
1631118288925,-0.15679931640625,0.0703125,0.98321533203125
1631118288925,-0.15753173828125,0.072021484375,0.98687744140625
1631118288925,-0.1641845703125,0.07452392578125,0.9825439453125
1631118288925,-0.15850830078125,0.074462890625,0.9769287109375
1631118288925,-0.16259765625,0.07342529296875,0.98468017578125
1631118288925,-0.15643310546875,0.07403564453125,0.9835205078125
1631118288925,-0.1641845703125,0.072509765625,0.972900390625
1631118288972,-0.155029296875,0.07305908203125,0.98370361328125
1631118288972,-0.15521240234375,0.0789794921875,0.98773193359375
1631118288972,-0.1578369140625,0.07666015625,0.98284912109375
1631118289123,-0.1605224609375,0.0704345703125,0.981201171875
1631118289123,-0.1595458984375,0.07244873046875,0.98114013671875
1631118289123,-0.1607666015625,0.0687255859375,0.98626708984375
1631118289201,-0.1627197265625,0.0648193359375,0.98321533203125
1631118289201,-0.16015625,0.071533203125,0.97918701171875
1631118289202,-0.16162109375,0.07220458984375,0.98150634765625
1631118289202,-0.15936279296875,0.06488037109375,0.98211669921875
1631118289202,-0.16217041015625,0.06622314453125,0.9837646484375
1631118289202,-0.166015625,0.07110595703125,0.97747802734375
1631118289443,-0.15911865234375,0.0712890625,0.983642578125
1631118289443,-0.1573486328125,0.07330322265625,0.98284912109375
1631118289443,-0.16082763671875,0.07037353515625,0.9815673828125
1631118289443,-0.16375732421875,0.0738525390625,0.9825439453125
1631118289443,-0.16094970703125,0.0728759765625,0.9825439453125
1631118289460,-0.1563720703125,0.072509765625,0.98553466796875
1631118289460,-0.15899658203125,0.07244873046875,0.98626708984375
1631118289464,-0.15789794921875,0.06890869140625,0.9820556640625
1631118289469,-0.15704345703125,0.06982421875,0.9803466796875
1631118289508,-0.157470703125,0.07171630859375,0.982177734375
1631118289508,-0.16009521484375,0.0733642578125,0.979736328125
1631118289508,-0.16265869140625,0.07373046875,0.9842529296875
1631118289542,-0.15899658203125,0.067138671875,0.978271484375
1631118289542,-0.156005859375,0.0692138671875,0.97802734375
1631118289546,-0.156005859375,0.07366943359375,0.97900390625
1631118289682,-0.15289306640625,0.07830810546875,0.9854736328125
1631118289682,-0.15478515625,0.07733154296875,0.98687744140625
1631118289682,-0.15460205078125,0.0791015625,0.98406982421875
1631118289883,-0.1546630859375,0.07330322265625,0.98370361328125
1631118289883,-0.1534423828125,0.076171875,0.98187255859375
1631118289883,-0.15435791015625,0.0731201171875,0.97998046875
1631118290018,-0.15911865234375,0.0679931640625,0.983642578125
1631118290018,-0.15948486328125,0.0677490234375,0.98516845703125
1631118290018,-0.15264892578125,0.07196044921875,0.98382568359375
1631118290052,-0.1531982421875,0.07611083984375,0.980224609375
1631118290055,-0.1605224609375,0.08050537109375,0.9813232421875
1631118290055,-0.15655517578125,0.0784912109375,0.9813232421875
1631118290085,-0.16131591796875,0.07794189453125,0.982421875
1631118290089,-0.15557861328125,0.077880859375,0.982177734375
1631118290089,-0.1610107421875,0.07373046875,0.98223876953125
1631118290118,-0.1551513671875,0.07452392578125,0.982421875
1631118290120,-0.15545654296875,0.07464599609375,0.979736328125
1631118290121,-0.15728759765625,0.0755615234375,0.979736328125
1631118290121,-0.1563720703125,0.075927734375,0.97998046875
1631118290133,-0.15789794921875,0.07647705078125,0.983642578125
1631118290134,-0.15740966796875,0.0770263671875,0.9798583984375
1631118290242,-0.15863037109375,0.07318115234375,0.98284912109375
1631118290243,-0.15716552734375,0.07391357421875,0.9813232421875
1631118290243,-0.15509033203125,0.07427978515625,0.98394775390625
1631118290603,-0.15655517578125,0.07647705078125,0.982177734375
1631118290603,-0.15325927734375,0.07659912109375,0.98291015625
1631118290603,-0.1585693359375,0.07611083984375,0.97955322265625
1631118290653,-0.16217041015625,0.071533203125,0.981689453125
1631118290654,-0.1607666015625,0.072021484375,0.9814453125
1631118290654,-0.1593017578125,0.07598876953125,0.9815673828125
1631118290654,-0.1580810546875,0.0787353515625,0.97869873046875
1631118290654,-0.1590576171875,0.07672119140625,0.9796142578125
1631118290654,-0.158447265625,0.07977294921875,0.984375
1631118290654,-0.15997314453125,0.067626953125,0.98455810546875
1631118290654,-0.1551513671875,0.0745849609375,0.97784423828125
1631118290654,-0.1597900390625,0.06842041015625,0.9832763671875
1631118290877,-0.16131591796875,0.0784912109375,0.9820556640625
1631118290877,-0.16046142578125,0.0762939453125,0.98248291015625
1631118290877,-0.1612548828125,0.077880859375,0.98193359375
1631118291120,-0.1575927734375,0.0767822265625,0.983642578125
1631118291140,-0.15692138671875,0.08221435546875,0.97882080078125
1631118291141,-0.158447265625,0.07891845703125,0.980224609375
1631118291169,-0.15869140625,0.07952880859375,0.98211669921875
1631118291170,-0.1578369140625,0.076904296875,0.98046875
1631118291172,-0.16473388671875,0.0782470703125,0.97515869140625
1631118291220,-0.16094970703125,0.07537841796875,0.98602294921875
1631118291221,-0.159423828125,0.0750732421875,0.98321533203125
1631118291221,-0.16168212890625,0.07403564453125,0.98333740234375
1631118291341,-0.159912109375,0.0753173828125,0.9818115234375
1631118291341,-0.1624755859375,0.07220458984375,0.97418212890625
1631118291341,-0.16314697265625,0.078857421875,0.98504638671875
1631118291522,-0.15966796875,0.07861328125,0.9757080078125
1631118291522,-0.16009521484375,0.076416015625,0.9774169921875
1631118291522,-0.1593017578125,0.07354736328125,0.9737548828125
1631118291536,-0.15948486328125,0.079345703125,0.9814453125
1631118291538,-0.16033935546875,0.07843017578125,0.9814453125
1631118291538,-0.15875244140625,0.08001708984375,0.982421875
1631118291539,-0.15948486328125,0.07464599609375,0.98284912109375
1631118291553,-0.159912109375,0.07684326171875,0.98114013671875
1631118291555,-0.15838623046875,0.080322265625,0.98211669921875
1631118291631,-0.16412353515625,0.08056640625,0.97607421875
1631118291631,-0.1630859375,0.0775146484375,0.98126220703125
1631118291631,-0.16705322265625,0.07781982421875,0.978271484375
1631118291699,-0.1656494140625,0.08050537109375,0.9813232421875
1631118291702,-0.15972900390625,0.08111572265625,0.97998046875
1631118291705,-0.1629638671875,0.07843017578125,0.97808837890625
1631118291714,-0.16436767578125,0.078125,0.97906494140625
1631118291715,-0.16552734375,0.0787353515625,0.98077392578125
1631118291715,-0.162353515625,0.081298828125,0.9765625
1631118291716,-0.16357421875,0.081298828125,0.97882080078125
1631118291719,-0.165283203125,0.08026123046875,0.97998046875
1631118291719,-0.16485595703125,0.07958984375,0.97882080078125
1631118291747,-0.1641845703125,0.0792236328125,0.97760009765625
1631118291747,-0.16668701171875,0.07763671875,0.9796142578125
1631118291747,-0.1630859375,0.07476806640625,0.9788818359375
1631118291968,-0.1636962890625,0.07330322265625,0.98358154296875
1631118291969,-0.16058349609375,0.0767822265625,0.982421875
1631118291969,-0.1600341796875,0.0782470703125,0.9803466796875
1631118292000,-0.15924072265625,0.07354736328125,0.9752197265625
1631118292002,-0.16156005859375,0.08050537109375,0.9775390625
1631118292003,-0.15960693359375,0.07647705078125,0.9775390625
1631118292049,-0.1572265625,0.07574462890625,0.98651123046875
1631118292049,-0.15948486328125,0.07403564453125,0.98095703125
1631118292050,-0.16119384765625,0.07568359375,0.9835205078125
1631118292065,-0.15887451171875,0.07720947265625,0.97918701171875
1631118292065,-0.163818359375,0.077880859375,0.98095703125
1631118292069,-0.1600341796875,0.078125,0.97979736328125
1631118292142,-0.16558837890625,0.0694580078125,0.9869384765625
1631118292158,-0.16143798828125,0.076171875,0.990234375
1631118292159,-0.16015625,0.07366943359375,0.98858642578125
1631118292238,-0.15948486328125,0.07275390625,0.98187255859375
1631118292238,-0.1610107421875,0.071044921875,0.9849853515625
1631118292263,-0.16455078125,0.07525634765625,0.98089599609375
1631118292303,-0.16436767578125,0.07366943359375,0.9794921875
1631118292303,-0.164306640625,0.07391357421875,0.9810791015625
1631118292303,-0.1661376953125,0.07470703125,0.97796630859375
1631118292448,-0.170166015625,0.07720947265625,0.98162841796875
1631118292448,-0.169921875,0.072998046875,0.9813232421875
1631118292449,-0.171142578125,0.0799560546875,0.98040771484375
1631118292520,-0.16943359375,0.08184814453125,0.9744873046875
1631118292520,-0.16656494140625,0.0804443359375,0.97662353515625
1631118292520,-0.169921875,0.0797119140625,0.97979736328125
1631118292587,-0.17034912109375,0.0809326171875,0.97613525390625
1631118292588,-0.17120361328125,0.07763671875,0.97418212890625
1631118292588,-0.1695556640625,0.07989501953125,0.978271484375
1631118292609,-0.17333984375,0.08319091796875,0.98150634765625
1631118292619,-0.1717529296875,0.08233642578125,0.98193359375
1631118292620,-0.17279052734375,0.083251953125,0.9815673828125
1631118292954,-0.17578125,0.08294677734375,0.9771728515625
1631118292954,-0.1746826171875,0.08099365234375,0.9788818359375
1631118292954,-0.17315673828125,0.0797119140625,0.9742431640625
1631118293029,-0.17572021484375,0.07733154296875,0.976318359375
1631118293029,-0.17608642578125,0.07696533203125,0.97705078125
1631118293030,-0.17291259765625,0.08563232421875,0.97613525390625
1631118293093,-0.18170166015625,0.08367919921875,0.98388671875
1631118293094,-0.1773681640625,0.080078125,0.981201171875
1631118293094,-0.17974853515625,0.0782470703125,0.97894287109375
1631118293302,-0.18060302734375,0.082763671875,0.97021484375
1631118293303,-0.18145751953125,0.08258056640625,0.9765625
1631118293304,-0.18267822265625,0.083251953125,0.9688720703125
1631118293304,-0.1865234375,0.08453369140625,0.9766845703125
1631118293304,-0.18450927734375,0.07763671875,0.96868896484375
1631118293304,-0.1834716796875,0.08154296875,0.97283935546875
1631118293319,-0.1829833984375,0.08294677734375,0.9757080078125
1631118293319,-0.18194580078125,0.08380126953125,0.97149658203125
1631118293319,-0.18450927734375,0.07916259765625,0.9688720703125
1631118293359,-0.18389892578125,0.08831787109375,0.97705078125
1631118293359,-0.1856689453125,0.0860595703125,0.97186279296875
1631118293367,-0.1832275390625,0.08428955078125,0.9774169921875
1631118293371,-0.18768310546875,0.08209228515625,0.97503662109375
1631118293372,-0.1859130859375,0.07733154296875,0.97509765625
1631118293372,-0.18194580078125,0.07672119140625,0.97491455078125
1631118293869,-0.178466796875,0.0845947265625,0.97869873046875
1631118293886,-0.17724609375,0.08367919921875,0.98175048828125
1631118293893,-0.1749267578125,0.08209228515625,0.9786376953125
1631118293900,-0.1776123046875,0.0841064453125,0.98260498046875
1631118293900,-0.1737060546875,0.08489990234375,0.98236083984375
1631118293900,-0.1737060546875,0.0814208984375,0.97637939453125
1631118294201,-0.1766357421875,0.0841064453125,0.98260498046875
1631118294201,-0.1787109375,0.082275390625,0.979248046875
1631118294220,-0.175537109375,0.08734130859375,0.9791259765625
1631118294469,-0.1767578125,0.0850830078125,0.97613525390625
1631118294470,-0.17755126953125,0.0858154296875,0.97540283203125
1631118294470,-0.176025390625,0.0882568359375,0.97796630859375
1631118294471,-0.17962646484375,0.09173583984375,0.97625732421875
1631118294471,-0.17181396484375,0.0882568359375,0.98193359375
1631118294495,-0.17620849609375,0.08746337890625,0.9813232421875
1631118294627,-0.1795654296875,0.086181640625,0.97784423828125
1631118294627,-0.17791748046875,0.0806884765625,0.97540283203125
1631118294627,-0.1761474609375,0.08087158203125,0.97705078125
1631118294737,-0.1790771484375,0.08416748046875,0.97760009765625
1631118294737,-0.18072509765625,0.082275390625,0.978759765625
1631118294737,-0.17803955078125,0.086669921875,0.977294921875
1631118294975,-0.178466796875,0.08563232421875,0.976806640625
1631118294975,-0.17547607421875,0.08660888671875,0.97833251953125
1631118294975,-0.1759033203125,0.08966064453125,0.977294921875
1631118295054,-0.1732177734375,0.0855712890625,0.97613525390625
1631118295054,-0.1763916015625,0.08294677734375,0.97900390625
1631118295055,-0.17449951171875,0.08660888671875,0.97821044921875
1631118295142,-0.181396484375,0.0865478515625,0.98052978515625
1631118295143,-0.17864990234375,0.0811767578125,0.9754638671875
1631118295143,-0.17474365234375,0.08111572265625,0.96795654296875
1631118295153,-0.173583984375,0.08984375,0.9827880859375
1631118295153,-0.173583984375,0.088134765625,0.97772216796875
1631118295157,-0.1766357421875,0.0841064453125,0.97540283203125
1631118295187,-0.1781005859375,0.080810546875,0.9805908203125
1631118295187,-0.17486572265625,0.0836181640625,0.97802734375
1631118295202,-0.1766357421875,0.0802001953125,0.97637939453125
1631118295238,-0.17578125,0.08502197265625,0.97479248046875
1631118295238,-0.17657470703125,0.08123779296875,0.97833251953125
1631118295238,-0.1776123046875,0.08111572265625,0.97662353515625
1631118295282,-0.17657470703125,0.08709716796875,0.97503662109375
1631118295282,-0.1781005859375,0.0892333984375,0.9771728515625
1631118295282,-0.171875,0.08807373046875,0.975341796875
1631118295316,-0.17218017578125,0.0897216796875,0.97735595703125
1631118295333,-0.17523193359375,0.0904541015625,0.97637939453125
1631118295333,-0.172607421875,0.09246826171875,0.97760009765625
1631118295732,-0.17327880859375,0.08575439453125,0.980224609375
1631118295739,-0.17510986328125,0.08380126953125,0.9765625
1631118295741,-0.17510986328125,0.08349609375,0.97662353515625
1631118295842,-0.17822265625,0.0804443359375,0.9769287109375
1631118295847,-0.1776123046875,0.08203125,0.97747802734375
1631118295849,-0.1754150390625,0.080078125,0.97442626953125
1631118295859,-0.17742919921875,0.0804443359375,0.97454833984375
1631118295861,-0.17816162109375,0.07904052734375,0.97796630859375
1631118295862,-0.17596435546875,0.07818603515625,0.98028564453125
1631118295953,-0.173583984375,0.081787109375,0.97900390625
1631118295956,-0.17608642578125,0.08038330078125,0.97894287109375
1631118295959,-0.17645263671875,0.08233642578125,0.97607421875
1631118296021,-0.1734619140625,0.084228515625,0.97833251953125
1631118296023,-0.176025390625,0.0859375,0.9803466796875
1631118296025,-0.17999267578125,0.08648681640625,0.97698974609375
1631118296074,-0.17913818359375,0.08740234375,0.97625732421875
1631118296076,-0.17596435546875,0.08624267578125,0.97857666015625
1631118296077,-0.17742919921875,0.0870361328125,0.97637939453125
1631118296078,-0.17529296875,0.08746337890625,0.97528076171875
1631118296081,-0.17803955078125,0.0882568359375,0.971923828125
1631118296082,-0.17413330078125,0.08740234375,0.97430419921875
1631118296162,-0.17626953125,0.0909423828125,0.9781494140625
1631118296163,-0.17535400390625,0.09210205078125,0.9793701171875
1631118296166,-0.17535400390625,0.0882568359375,0.9759521484375
1631118296243,-0.17498779296875,0.0836181640625,0.9814453125
1631118296244,-0.17340087890625,0.08807373046875,0.9798583984375
1631118296245,-0.1729736328125,0.08642578125,0.9815673828125
1631118296314,-0.17449951171875,0.0877685546875,0.98175048828125
1631118296314,-0.181396484375,0.08856201171875,0.98095703125
1631118296314,-0.17919921875,0.08489990234375,0.98370361328125
1631118296390,-0.17877197265625,0.0865478515625,0.97088623046875
1631118296391,-0.18096923828125,0.0931396484375,0.9705810546875
1631118296391,-0.1788330078125,0.0821533203125,0.96875
1631118296416,-0.17840576171875,0.09063720703125,0.97802734375
1631118296417,-0.17681884765625,0.09417724609375,0.9749755859375
1631118296419,-0.17230224609375,0.09552001953125,0.97998046875
1631118296485,-0.17779541015625,0.08074951171875,0.97467041015625
1631118296486,-0.17901611328125,0.0810546875,0.9786376953125
1631118296487,-0.1749267578125,0.08203125,0.97821044921875
1631118296616,-0.17999267578125,0.0830078125,0.9774169921875
1631118296644,-0.1727294921875,0.08831787109375,0.977294921875
1631118296644,-0.1768798828125,0.084228515625,0.97833251953125
1631118296661,-0.1756591796875,0.0904541015625,0.9757080078125
1631118296688,-0.1773681640625,0.0919189453125,0.97833251953125
1631118296688,-0.17694091796875,0.09088134765625,0.97894287109375
1631118296715,-0.17193603515625,0.08709716796875,0.97772216796875
1631118296716,-0.17181396484375,0.08734130859375,0.97637939453125
1631118296719,-0.173828125,0.08709716796875,0.97576904296875
1631118296813,-0.17242431640625,0.08636474609375,0.98046875
1631118296814,-0.17376708984375,0.08673095703125,0.97802734375
1631118296829,-0.17034912109375,0.08929443359375,0.976806640625
1631118296923,-0.1688232421875,0.08392333984375,0.98065185546875
1631118296923,-0.170654296875,0.0855712890625,0.98248291015625
1631118296924,-0.1715087890625,0.08599853515625,0.9822998046875
1631118296954,-0.17156982421875,0.0848388671875,0.980712890625
1631118296954,-0.17388916015625,0.087158203125,0.982177734375
1631118296954,-0.1739501953125,0.09033203125,0.98297119140625
1631118297106,-0.17657470703125,0.08697509765625,0.97283935546875
1631118297106,-0.1766357421875,0.08843994140625,0.9791259765625
1631118297107,-0.17706298828125,0.08282470703125,0.971923828125
1631118297288,-0.177001953125,0.0863037109375,0.9737548828125
1631118297288,-0.1749267578125,0.0865478515625,0.97418212890625
1631118297510,-0.17547607421875,0.08563232421875,0.97760009765625
1631118297510,-0.17413330078125,0.09014892578125,0.98284912109375
1631118297510,-0.17169189453125,0.0863037109375,0.98016357421875
1631118297546,-0.17578125,0.090087890625,0.9815673828125
1631118297546,-0.1778564453125,0.08746337890625,0.97381591796875
1631118297546,-0.17742919921875,0.0897216796875,0.98126220703125
1631118297594,-0.17803955078125,0.0838623046875,0.9754638671875
1631118297594,-0.17669677734375,0.0830078125,0.97833251953125
1631118297595,-0.17877197265625,0.08465576171875,0.9766845703125
1631118297950,-0.178466796875,0.086669921875,0.97747802734375
1631118297950,-0.17498779296875,0.09161376953125,0.97625732421875
1631118297952,-0.1795654296875,0.0870361328125,0.9788818359375
1631118298061,-0.17608642578125,0.0927734375,0.9769287109375
1631118298062,-0.17718505859375,0.0877685546875,0.9783935546875
1631118298062,-0.17437744140625,0.08935546875,0.976318359375
1631118298194,-0.17205810546875,0.08624267578125,0.97637939453125
1631118298215,-0.17578125,0.08538818359375,0.980224609375
1631118298215,-0.17431640625,0.08587646484375,0.97796630859375
1631118298374,-0.1766357421875,0.0838623046875,0.9774169921875
1631118298374,-0.175537109375,0.08056640625,0.977294921875
1631118298374,-0.17620849609375,0.08477783203125,0.9794921875
1631118298685,-0.1741943359375,0.0899658203125,0.9725341796875
1631118298685,-0.17279052734375,0.0880126953125,0.97979736328125
1631118298686,-0.17431640625,0.08319091796875,0.97784423828125
1631118299002,-0.1734619140625,0.08856201171875,0.9801025390625
1631118299002,-0.17425537109375,0.09039306640625,0.9788818359375
1631118299002,-0.1729736328125,0.08782958984375,0.98223876953125
1631118299203,-0.17626953125,0.0863037109375,0.97845458984375
1631118299203,-0.1771240234375,0.08935546875,0.97894287109375
1631118299203,-0.173828125,0.08660888671875,0.977783203125
1631118299286,-0.173583984375,0.09326171875,0.97503662109375
1631118299286,-0.17462158203125,0.0885009765625,0.9788818359375
1631118299287,-0.178955078125,0.09002685546875,0.97479248046875
1631118299287,-0.1751708984375,0.0902099609375,0.9808349609375
1631118299289,-0.176025390625,0.0887451171875,0.98065185546875
1631118299289,-0.17340087890625,0.08966064453125,0.97314453125
1631118299289,-0.17779541015625,0.0936279296875,0.9755859375
1631118299289,-0.17413330078125,0.09503173828125,0.97662353515625
1631118299289,-0.1737060546875,0.09283447265625,0.97772216796875
1631118299460,-0.171875,0.0880126953125,0.97650146484375
1631118299460,-0.175048828125,0.08587646484375,0.97845458984375
1631118299477,-0.174560546875,0.0863037109375,0.97674560546875
1631118299620,-0.17706298828125,0.0877685546875,0.9705810546875
1631118299621,-0.17767333984375,0.082275390625,0.97161865234375
1631118299621,-0.1776123046875,0.082763671875,0.97265625
1631118299810,-0.17626953125,0.08795166015625,0.981689453125
1631118299810,-0.1734619140625,0.087158203125,0.9810791015625
1631118299812,-0.1719970703125,0.08526611328125,0.97540283203125
1631118299872,-0.17999267578125,0.08184814453125,0.9775390625
1631118299872,-0.17816162109375,0.0858154296875,0.97894287109375
1631118299872,-0.176025390625,0.0821533203125,0.97760009765625
1631118299889,-0.1759033203125,0.083251953125,0.9747314453125
1631118299905,-0.17742919921875,0.08123779296875,0.976806640625
1631118299907,-0.18023681640625,0.085693359375,0.97869873046875
1631118299974,-0.17626953125,0.0916748046875,0.9779052734375
1631118299974,-0.17669677734375,0.09149169921875,0.97662353515625
1631118299975,-0.17559814453125,0.091796875,0.97344970703125
1631118299982,-0.18280029296875,0.09637451171875,0.97711181640625
1631118299982,-0.1761474609375,0.08892822265625,0.9749755859375
1631118299982,-0.17742919921875,0.09246826171875,0.9754638671875
1631118300274,-0.17352294921875,0.09222412109375,0.97857666015625
1631118300290,-0.17413330078125,0.09161376953125,0.97503662109375
1631118300292,-0.17718505859375,0.09515380859375,0.9732666015625
1631118300468,-0.174072265625,0.093505859375,0.98089599609375
1631118300468,-0.17498779296875,0.09136962890625,0.9818115234375
1631118300468,-0.17633056640625,0.09033203125,0.97821044921875
1631118300567,-0.18157958984375,0.09014892578125,0.9737548828125
1631118300567,-0.18017578125,0.08966064453125,0.97637939453125
1631118300567,-0.17840576171875,0.0953369140625,0.9757080078125
1631118301769,-0.17108154296875,0.089111328125,0.976806640625
1631118301769,-0.1688232421875,0.092529296875,0.97930908203125
1631118301802,-0.1763916015625,0.082275390625,0.97503662109375
1631118301804,-0.17462158203125,0.08258056640625,0.9765625
1631118301817,-0.17242431640625,0.087158203125,0.97491455078125
1631118301964,-0.1759033203125,0.0841064453125,0.974853515625
1631118301964,-0.173583984375,0.08563232421875,0.97772216796875
1631118301964,-0.17462158203125,0.08673095703125,0.97625732421875
1631118302157,-0.17626953125,0.0994873046875,0.975830078125
1631118302157,-0.1741943359375,0.09564208984375,0.9749755859375
1631118302157,-0.1771240234375,0.09442138671875,0.98114013671875
1631118302315,-0.1761474609375,0.094970703125,0.97406005859375
1631118302315,-0.1785888671875,0.09954833984375,0.973388671875
1631118302315,-0.17913818359375,0.095458984375,0.9720458984375
1631118302499,-0.187255859375,0.08990478515625,0.9759521484375
1631118302499,-0.18011474609375,0.09075927734375,0.97515869140625
1631118302500,-0.18218994140625,0.08831787109375,0.9749755859375
1631118302631,-0.1822509765625,0.0877685546875,0.9742431640625
1631118302632,-0.18212890625,0.0828857421875,0.9691162109375
1631118302635,-0.18023681640625,0.09130859375,0.97442626953125
1631118302647,-0.17596435546875,0.09735107421875,0.979736328125
1631118302647,-0.1802978515625,0.095703125,0.97833251953125
1631118302647,-0.17919921875,0.0946044921875,0.979736328125
1631118302661,-0.1790771484375,0.09027099609375,0.9764404296875
1631118302661,-0.17742919921875,0.0927734375,0.97674560546875
1631118302661,-0.17364501953125,0.09283447265625,0.9786376953125
1631118302874,-0.17950439453125,0.0849609375,0.97784423828125
1631118302874,-0.18145751953125,0.0787353515625,0.97491455078125
1631118302874,-0.18072509765625,0.08831787109375,0.9765625
1631118303047,-0.17645263671875,0.0919189453125,0.97674560546875
1631118303048,-0.17950439453125,0.087646484375,0.97491455078125
1631118303048,-0.1766357421875,0.08673095703125,0.9796142578125
1631118303098,-0.17572021484375,0.0931396484375,0.97479248046875
1631118303098,-0.17755126953125,0.09454345703125,0.97650146484375
1631118303098,-0.1776123046875,0.096435546875,0.9764404296875
1631118303431,-0.1763916015625,0.090576171875,0.9798583984375
1631118303431,-0.17413330078125,0.0904541015625,0.97503662109375
1631118303431,-0.18035888671875,0.09014892578125,0.97943115234375
1631118303632,-0.17559814453125,0.10009765625,0.9814453125
1631118303632,-0.1715087890625,0.0931396484375,0.9776611328125
1631118303633,-0.173095703125,0.0994873046875,0.97796630859375
1631118303687,-0.181884765625,0.09381103515625,0.97601318359375
1631118303692,-0.17388916015625,0.0953369140625,0.9737548828125
1631118303692,-0.17572021484375,0.0963134765625,0.97662353515625
1631118303692,-0.17498779296875,0.09368896484375,0.9793701171875
1631118303692,-0.17425537109375,0.09661865234375,0.9783935546875
1631118303706,-0.18133544921875,0.0938720703125,0.97418212890625
1631118303801,-0.1793212890625,0.09796142578125,0.97216796875
1631118303801,-0.17681884765625,0.09613037109375,0.97235107421875
1631118303801,-0.1812744140625,0.09930419921875,0.97393798828125
1631118303896,-0.180419921875,0.096923828125,0.9736328125
1631118303896,-0.17962646484375,0.0970458984375,0.9737548828125
1631118303896,-0.1798095703125,0.095947265625,0.97601318359375
1631118304053,-0.177490234375,0.09124755859375,0.97747802734375
1631118304054,-0.17608642578125,0.08935546875,0.9798583984375
1631118304054,-0.17523193359375,0.089111328125,0.98101806640625
1631118304146,-0.17718505859375,0.09283447265625,0.976806640625
1631118304146,-0.18023681640625,0.0909423828125,0.97637939453125
1631118304146,-0.176025390625,0.096435546875,0.97998046875
1631118304194,-0.17791748046875,0.0924072265625,0.97576904296875
1631118304194,-0.17657470703125,0.09381103515625,0.9818115234375
1631118304194,-0.17559814453125,0.09503173828125,0.97869873046875
1631118304215,-0.1796875,0.10028076171875,0.97564697265625
1631118304217,-0.17706298828125,0.10528564453125,0.97869873046875
1631118304220,-0.1796875,0.10772705078125,0.974609375
1631118304324,-0.17706298828125,0.10809326171875,0.9720458984375
1631118304328,-0.1781005859375,0.10467529296875,0.97308349609375
1631118304331,-0.181396484375,0.0999755859375,0.9771728515625
1631118304755,-0.18170166015625,0.10406494140625,0.9739990234375
1631118304755,-0.18402099609375,0.09881591796875,0.97821044921875
1631118304755,-0.18426513671875,0.101318359375,0.97735595703125
1631118304756,-0.1807861328125,0.0997314453125,0.97576904296875
1631118304756,-0.1861572265625,0.098876953125,0.97705078125
1631118304756,-0.1832275390625,0.10101318359375,0.97552490234375
1631118304951,-0.18609619140625,0.1058349609375,0.9752197265625
1631118304952,-0.1837158203125,0.10394287109375,0.97515869140625
1631118304952,-0.17913818359375,0.1014404296875,0.97314453125
1631118304952,-0.18505859375,0.0963134765625,0.974609375
1631118304952,-0.18426513671875,0.095947265625,0.97479248046875
1631118304953,-0.18377685546875,0.10125732421875,0.9761962890625
1631118304953,-0.1824951171875,0.1016845703125,0.97515869140625
1631118304954,-0.1829833984375,0.1019287109375,0.9730224609375
1631118304957,-0.18389892578125,0.1029052734375,0.9801025390625
1631118304957,-0.1839599609375,0.1011962890625,0.97650146484375
1631118304957,-0.18292236328125,0.1026611328125,0.9752197265625
1631118304960,-0.179443359375,0.1026611328125,0.9759521484375
1631118304963,-0.1798095703125,0.10552978515625,0.97357177734375
1631118304965,-0.18896484375,0.10455322265625,0.97344970703125
1631118304966,-0.17962646484375,0.1060791015625,0.96820068359375
1631118305043,-0.1844482421875,0.10003662109375,0.9744873046875
1631118305045,-0.18231201171875,0.09918212890625,0.97601318359375
1631118305045,-0.1844482421875,0.0985107421875,0.97406005859375
1631118305102,-0.18377685546875,0.10076904296875,0.97491455078125
1631118305104,-0.183837890625,0.0999755859375,0.9749755859375
1631118305116,-0.18096923828125,0.103759765625,0.974853515625
1631118305132,-0.18304443359375,0.10601806640625,0.974365234375
1631118305133,-0.181640625,0.10491943359375,0.976318359375
1631118305138,-0.17913818359375,0.10382080078125,0.9766845703125
1631118305260,-0.179931640625,0.10174560546875,0.97314453125
1631118305263,-0.1796875,0.09796142578125,0.97796630859375
1631118305265,-0.18109130859375,0.10174560546875,0.975341796875
1631118305310,-0.18359375,0.09619140625,0.97198486328125
1631118305311,-0.178466796875,0.098388671875,0.96697998046875
1631118305312,-0.1783447265625,0.10211181640625,0.96484375
1631118305386,-0.1806640625,0.1029052734375,0.97357177734375
1631118305388,-0.17742919921875,0.1002197265625,0.9713134765625
1631118305390,-0.17608642578125,0.0968017578125,0.975830078125
1631118305614,-0.17626953125,0.1087646484375,0.9747314453125
1631118305615,-0.17529296875,0.10357666015625,0.9761962890625
1631118305615,-0.17559814453125,0.1077880859375,0.97393798828125
1631118305696,-0.17596435546875,0.10540771484375,0.976318359375
1631118305696,-0.17474365234375,0.10211181640625,0.9791259765625
1631118305704,-0.1732177734375,0.10675048828125,0.97479248046875
1631118305706,-0.17950439453125,0.1064453125,0.97381591796875
1631118305840,-0.17822265625,0.0977783203125,0.968017578125
1631118305840,-0.178955078125,0.103515625,0.97491455078125
1631118305840,-0.17962646484375,0.09552001953125,0.97247314453125
1631118305969,-0.174560546875,0.09368896484375,0.97918701171875
1631118305987,-0.16864013671875,0.094970703125,0.9814453125
1631118305987,-0.16864013671875,0.09796142578125,0.9813232421875
1631118306007,-0.1690673828125,0.0958251953125,0.9779052734375
1631118306013,-0.1705322265625,0.08868408203125,0.97735595703125
1631118306014,-0.170166015625,0.09674072265625,0.98114013671875
1631118306223,-0.171630859375,0.09442138671875,0.9761962890625
1631118306223,-0.1678466796875,0.09295654296875,0.97650146484375
1631118306223,-0.16986083984375,0.0943603515625,0.975830078125
1631118306223,-0.16937255859375,0.0906982421875,0.97845458984375
1631118306223,-0.17193603515625,0.08929443359375,0.978515625
1631118306224,-0.17425537109375,0.0882568359375,0.976318359375
1631118306529,-0.1700439453125,0.0946044921875,0.9818115234375
1631118306530,-0.17156982421875,0.093017578125,0.9798583984375
1631118306530,-0.16937255859375,0.0926513671875,0.9794921875
1631118306548,-0.169921875,0.08856201171875,0.97650146484375
1631118306548,-0.168701171875,0.09375,0.97845458984375
1631118306553,-0.17144775390625,0.09552001953125,0.98126220703125
1631118306704,-0.17303466796875,0.0819091796875,0.9736328125
1631118306705,-0.17242431640625,0.090576171875,0.9774169921875
1631118306709,-0.17266845703125,0.090087890625,0.97698974609375
1631118306797,-0.17193603515625,0.0877685546875,0.97467041015625
1631118306797,-0.17144775390625,0.08740234375,0.9737548828125
1631118306797,-0.17413330078125,0.0865478515625,0.9771728515625
1631118306936,-0.1710205078125,0.0877685546875,0.98089599609375
1631118306936,-0.17041015625,0.0947265625,0.98046875
1631118306936,-0.1708984375,0.09051513671875,0.9805908203125
1631118307004,-0.17364501953125,0.092041015625,0.97979736328125
1631118307005,-0.1712646484375,0.09295654296875,0.98175048828125
1631118307005,-0.169921875,0.091064453125,0.976318359375
1631118307005,-0.171630859375,0.09552001953125,0.97796630859375
1631118307005,-0.171875,0.09130859375,0.974853515625
1631118307005,-0.1689453125,0.0946044921875,0.9810791015625
1631118307054,-0.177734375,0.08984375,0.9771728515625
1631118307054,-0.17425537109375,0.09027099609375,0.9747314453125
1631118307054,-0.17608642578125,0.08929443359375,0.976318359375
1631118307191,-0.177490234375,0.0914306640625,0.97613525390625
1631118307191,-0.1748046875,0.0927734375,0.9735107421875
1631118307191,-0.17559814453125,0.09478759765625,0.9786376953125
1631118307303,-0.1748046875,0.08612060546875,0.98028564453125
1631118307303,-0.172119140625,0.08685302734375,0.979248046875
1631118307304,-0.1748046875,0.08770751953125,0.97869873046875
1631118307304,-0.1744384765625,0.0870361328125,0.97576904296875
1631118307306,-0.173828125,0.0880126953125,0.97686767578125
1631118307306,-0.1746826171875,0.08587646484375,0.9771728515625
1631118307571,-0.17755126953125,0.08782958984375,0.97869873046875
1631118307586,-0.17230224609375,0.08880615234375,0.97882080078125
1631118307586,-0.1754150390625,0.0838623046875,0.9837646484375
1631118308079,-0.173095703125,0.08306884765625,0.97918701171875
1631118308079,-0.17315673828125,0.0787353515625,0.97100830078125
1631118308079,-0.17236328125,0.08465576171875,0.9759521484375
1631118308464,-0.1746826171875,0.08734130859375,0.9761962890625
1631118308464,-0.17205810546875,0.08447265625,0.9749755859375
1631118308464,-0.16656494140625,0.08538818359375,0.97991943359375
1631118308562,-0.169189453125,0.090576171875,0.9808349609375
1631118308571,-0.17041015625,0.092529296875,0.984619140625
1631118308573,-0.171630859375,0.09417724609375,0.98492431640625
1631118308654,-0.16998291015625,0.0880126953125,0.97772216796875
1631118308655,-0.171142578125,0.08355712890625,0.9794921875
1631118308655,-0.17169189453125,0.08270263671875,0.97894287109375
1631118308730,-0.16754150390625,0.08984375,0.9808349609375
1631118308730,-0.16741943359375,0.08746337890625,0.97802734375
1631118308730,-0.16973876953125,0.08770751953125,0.97796630859375
1631118309033,-0.17010498046875,0.09246826171875,0.9754638671875
1631118309034,-0.1715087890625,0.09271240234375,0.97906494140625
1631118309048,-0.17291259765625,0.09149169921875,0.97735595703125
1631118309064,-0.17041015625,0.0919189453125,0.974609375
1631118309064,-0.1700439453125,0.08935546875,0.97650146484375
1631118309064,-0.1734619140625,0.0902099609375,0.97662353515625
1631118309096,-0.17315673828125,0.089599609375,0.97552490234375
1631118309096,-0.1708984375,0.0897216796875,0.97735595703125
1631118309100,-0.17059326171875,0.093017578125,0.97808837890625
1631118309153,-0.17138671875,0.0877685546875,0.97760009765625
1631118309155,-0.171875,0.09271240234375,0.97808837890625
1631118309155,-0.17352294921875,0.08453369140625,0.9764404296875
1631118309639,-0.18072509765625,0.0880126953125,0.97894287109375
1631118309644,-0.17987060546875,0.09161376953125,0.98028564453125
1631118309646,-0.17987060546875,0.08636474609375,0.970703125
1631118309845,-0.175537109375,0.08856201171875,0.97869873046875
1631118309847,-0.17449951171875,0.09234619140625,0.98016357421875
1631118309847,-0.1766357421875,0.0928955078125,0.97967529296875
1631118309879,-0.177978515625,0.08343505859375,0.97540283203125
1631118309879,-0.1778564453125,0.08746337890625,0.974365234375
1631118309880,-0.17596435546875,0.090087890625,0.978271484375
1631118310095,-0.17913818359375,0.08551025390625,0.97662353515625
1631118310096,-0.18072509765625,0.08526611328125,0.9793701171875
1631118310097,-0.1793212890625,0.082763671875,0.97833251953125
1631118310104,-0.1805419921875,0.0914306640625,0.97296142578125
1631118310112,-0.177734375,0.0908203125,0.970703125
1631118310120,-0.1815185546875,0.08978271484375,0.97454833984375
1631118310266,-0.180419921875,0.09228515625,0.9759521484375
1631118310266,-0.17730712890625,0.09381103515625,0.97540283203125
1631118310266,-0.1795654296875,0.092529296875,0.9774169921875
1631118310358,-0.1832275390625,0.090576171875,0.97296142578125
1631118310359,-0.1795654296875,0.08685302734375,0.973876953125
1631118310364,-0.18157958984375,0.09326171875,0.97607421875
1631118310654,-0.1806640625,0.0865478515625,0.97918701171875
1631118310655,-0.17901611328125,0.0909423828125,0.9765625
1631118310655,-0.17913818359375,0.08917236328125,0.974609375
1631118310779,-0.190185546875,0.0806884765625,0.9697265625
1631118310779,-0.19146728515625,0.08343505859375,0.96484375
1631118310783,-0.1895751953125,0.08477783203125,0.97705078125
1631118310843,-0.19610595703125,0.08184814453125,0.96368408203125
1631118310843,-0.19464111328125,0.08123779296875,0.97381591796875
1631118310843,-0.1925048828125,0.08465576171875,0.9681396484375
1631118310843,-0.19329833984375,0.0821533203125,0.97515869140625
1631118310843,-0.196533203125,0.08050537109375,0.97003173828125
1631118310851,-0.19708251953125,0.0821533203125,0.96759033203125
1631118311207,-0.193603515625,0.0814208984375,0.97674560546875
1631118311207,-0.192138671875,0.0791015625,0.974853515625
1631118311207,-0.1962890625,0.08319091796875,0.974609375
1631118311441,-0.19891357421875,0.08355712890625,0.9716796875
1631118311441,-0.19378662109375,0.08209228515625,0.9736328125
1631118311441,-0.2001953125,0.0833740234375,0.97576904296875
1631118311488,-0.19537353515625,0.08721923828125,0.97705078125
1631118311488,-0.19134521484375,0.08746337890625,0.977294921875
1631118311488,-0.1929931640625,0.083984375,0.97601318359375
1631118311787,-0.19757080078125,0.0797119140625,0.97601318359375
1631118311787,-0.19580078125,0.08251953125,0.97210693359375
1631118311787,-0.197021484375,0.0794677734375,0.9697265625
1631118311850,-0.20379638671875,0.08123779296875,0.97027587890625
1631118311851,-0.2000732421875,0.081298828125,0.9725341796875
1631118311852,-0.20123291015625,0.07989501953125,0.97454833984375
1631118312249,-0.19970703125,0.0797119140625,0.972900390625
1631118312249,-0.1959228515625,0.0823974609375,0.97265625
1631118312265,-0.1978759765625,0.08123779296875,0.972412109375
1631118312738,-0.197998046875,0.08184814453125,0.9710693359375
1631118312738,-0.19708251953125,0.081298828125,0.9674072265625
1631118312738,-0.20062255859375,0.0811767578125,0.97637939453125
1631118312997,-0.19903564453125,0.07861328125,0.97930908203125
1631118312997,-0.2022705078125,0.079833984375,0.97564697265625
1631118312997,-0.19970703125,0.07989501953125,0.9739990234375
1631118313119,-0.19677734375,0.082763671875,0.9686279296875
1631118313120,-0.20098876953125,0.0804443359375,0.97283935546875
1631118313136,-0.1971435546875,0.0850830078125,0.9742431640625
1631118313237,-0.20257568359375,0.08453369140625,0.9649658203125
1631118313249,-0.2017822265625,0.0849609375,0.9691162109375
1631118313249,-0.2015380859375,0.0823974609375,0.9696044921875
1631118313252,-0.20086669921875,0.07867431640625,0.97314453125
1631118313255,-0.19610595703125,0.077880859375,0.97137451171875
1631118313255,-0.20587158203125,0.081787109375,0.9742431640625
1631118313301,-0.19927978515625,0.07830810546875,0.972412109375
1631118313303,-0.2022705078125,0.08306884765625,0.97442626953125
1631118313318,-0.2003173828125,0.0799560546875,0.9765625
1631118313670,-0.20391845703125,0.08184814453125,0.96533203125
1631118313670,-0.203369140625,0.07635498046875,0.968505859375
1631118313672,-0.20635986328125,0.074462890625,0.96173095703125
1631118313765,-0.20806884765625,0.0753173828125,0.97552490234375
1631118313766,-0.20947265625,0.07855224609375,0.9735107421875
1631118313766,-0.20709228515625,0.07623291015625,0.968505859375
1631118313815,-0.24273681640625,0.07159423828125,0.96893310546875
1631118313815,-0.236083984375,0.072265625,0.9620361328125
1631118313820,-0.2396240234375,0.0694580078125,0.96417236328125
1631118314250,-0.26690673828125,0.07513427734375,0.95806884765625
1631118314251,-0.26873779296875,0.0731201171875,0.95806884765625
1631118314253,-0.2740478515625,0.07470703125,0.95458984375
1631118314288,-0.2811279296875,0.08184814453125,0.95257568359375
1631118314290,-0.2802734375,0.08502197265625,0.9483642578125
1631118314292,-0.285400390625,0.08428955078125,0.94677734375
1631118314522,-0.30047607421875,0.0943603515625,0.93994140625
1631118314526,-0.30865478515625,0.0992431640625,0.93878173828125
1631118314527,-0.3106689453125,0.0963134765625,0.93927001953125
1631118314581,-0.317138671875,0.09466552734375,0.94140625
1631118314581,-0.3118896484375,0.09814453125,0.93780517578125
1631118314581,-0.3138427734375,0.097900390625,0.9384765625
1631118314749,-0.3583984375,0.10675048828125,0.9114990234375
1631118314750,-0.35986328125,0.1085205078125,0.9107666015625
1631118314750,-0.3582763671875,0.10736083984375,0.90911865234375
1631118314751,-0.36029052734375,0.11029052734375,0.9102783203125
1631118314751,-0.3638916015625,0.1136474609375,0.90704345703125
1631118314752,-0.361083984375,0.113037109375,0.90838623046875
1631118314829,-0.364990234375,0.11651611328125,0.91552734375
1631118314829,-0.3646240234375,0.11529541015625,0.90887451171875
1631118314830,-0.36322021484375,0.11712646484375,0.919189453125
1631118314867,-0.36456298828125,0.1148681640625,0.91815185546875
1631118314868,-0.365478515625,0.11639404296875,0.91943359375
1631118314868,-0.36798095703125,0.11663818359375,0.9176025390625
1631118314870,-0.3662109375,0.12060546875,0.90924072265625
1631118314871,-0.36395263671875,0.123291015625,0.9095458984375
1631118314871,-0.365478515625,0.1234130859375,0.90533447265625
1631118314939,-0.36572265625,0.11956787109375,0.90869140625
1631118314939,-0.36285400390625,0.1197509765625,0.90545654296875
1631118314939,-0.36474609375,0.12371826171875,0.90509033203125
1631118314989,-0.3638916015625,0.11376953125,0.92034912109375
1631118314989,-0.36676025390625,0.11505126953125,0.9200439453125
1631118314989,-0.36407470703125,0.1126708984375,0.91497802734375
1631118315048,-0.3614501953125,0.111572265625,0.92095947265625
1631118315050,-0.35626220703125,0.10888671875,0.91851806640625
1631118315051,-0.3580322265625,0.11431884765625,0.91876220703125
1631118315091,-0.35955810546875,0.11749267578125,0.924072265625
1631118315092,-0.35565185546875,0.11651611328125,0.92333984375
1631118315094,-0.35369873046875,0.11810302734375,0.9254150390625
1631118315131,-0.35076904296875,0.116455078125,0.92474365234375
1631118315133,-0.35394287109375,0.1182861328125,0.92218017578125
1631118315134,-0.3553466796875,0.12188720703125,0.9208984375
1631118315138,-0.3531494140625,0.11846923828125,0.91607666015625
1631118315140,-0.35650634765625,0.11322021484375,0.91448974609375
1631118315140,-0.36444091796875,0.11883544921875,0.91265869140625
1631118315350,-0.35455322265625,0.11102294921875,0.920654296875
1631118315352,-0.35546875,0.110107421875,0.92236328125
1631118315352,-0.35968017578125,0.11077880859375,0.9222412109375
1631118315363,-0.3560791015625,0.121337890625,0.9156494140625
1631118315364,-0.3568115234375,0.1158447265625,0.91815185546875
1631118315382,-0.359619140625,0.1187744140625,0.91632080078125
1631118315429,-0.36102294921875,0.11590576171875,0.9102783203125
1631118315429,-0.36309814453125,0.12310791015625,0.91497802734375
1631118315429,-0.35858154296875,0.11859130859375,0.918212890625
1631118315523,-0.36175537109375,0.11328125,0.90850830078125
1631118315523,-0.36212158203125,0.11285400390625,0.90985107421875
1631118315523,-0.3592529296875,0.11578369140625,0.91119384765625
1631118315684,-0.36126708984375,0.115966796875,0.9178466796875
1631118315690,-0.36260986328125,0.11444091796875,0.9161376953125
1631118315690,-0.36456298828125,0.1170654296875,0.9200439453125
1631118315715,-0.3631591796875,0.114501953125,0.91632080078125
1631118315715,-0.36346435546875,0.11517333984375,0.9149169921875
1631118315715,-0.365966796875,0.11273193359375,0.9171142578125
1631118315886,-0.36260986328125,0.11492919921875,0.912109375
1631118315886,-0.362060546875,0.1116943359375,0.9119873046875
1631118315886,-0.36309814453125,0.11846923828125,0.9151611328125
1631118315907,-0.36090087890625,0.1214599609375,0.911865234375
1631118315910,-0.36322021484375,0.11663818359375,0.9140625
1631118315910,-0.36053466796875,0.11785888671875,0.9163818359375
1631118315937,-0.3636474609375,0.11383056640625,0.9161376953125
1631118315938,-0.36181640625,0.114990234375,0.91912841796875
1631118315938,-0.3602294921875,0.11907958984375,0.91363525390625
1631118316048,-0.3594970703125,0.12371826171875,0.918701171875
1631118316048,-0.36138916015625,0.11572265625,0.91668701171875
1631118316048,-0.36175537109375,0.11810302734375,0.91876220703125
1631118316318,-0.35955810546875,0.125,0.91461181640625
1631118316318,-0.35955810546875,0.12469482421875,0.91400146484375
1631118316319,-0.3614501953125,0.1263427734375,0.9140625
1631118316445,-0.3621826171875,0.11712646484375,0.92047119140625
1631118316445,-0.35791015625,0.11810302734375,0.91864013671875
1631118316452,-0.3597412109375,0.1199951171875,0.914306640625
1631118316480,-0.36224365234375,0.11895751953125,0.91748046875
1631118316480,-0.3602294921875,0.1197509765625,0.91961669921875
1631118316480,-0.361328125,0.1201171875,0.91680908203125
1631118316527,-0.3603515625,0.11572265625,0.90911865234375
1631118316527,-0.36114501953125,0.11578369140625,0.9130859375
1631118316549,-0.362548828125,0.119384765625,0.92138671875
1631118316559,-0.35382080078125,0.1251220703125,0.91998291015625
1631118316559,-0.3563232421875,0.119384765625,0.919677734375
1631118316560,-0.35931396484375,0.12103271484375,0.91900634765625
1631118316561,-0.35491943359375,0.1197509765625,0.91717529296875
1631118316570,-0.3585205078125,0.1214599609375,0.91131591796875
1631118316573,-0.35345458984375,0.12384033203125,0.91510009765625
1631118316718,-0.35650634765625,0.1199951171875,0.92138671875
1631118316736,-0.35870361328125,0.11419677734375,0.916748046875
1631118316736,-0.35809326171875,0.11663818359375,0.91717529296875
1631118316855,-0.36083984375,0.115478515625,0.9168701171875
1631118316855,-0.359375,0.1136474609375,0.91424560546875
1631118316868,-0.35675048828125,0.1173095703125,0.916259765625
1631118317034,-0.35723876953125,0.11834716796875,0.91937255859375
1631118317037,-0.354248046875,0.1185302734375,0.91961669921875
1631118317037,-0.353515625,0.119873046875,0.92120361328125
1631118317037,-0.35345458984375,0.12261962890625,0.9185791015625
1631118317055,-0.3509521484375,0.1212158203125,0.9173583984375
1631118317065,-0.35125732421875,0.1163330078125,0.9176025390625
1631118317066,-0.35150146484375,0.116943359375,0.92059326171875
1631118317066,-0.3486328125,0.11297607421875,0.9219970703125
1631118317070,-0.3514404296875,0.11688232421875,0.92010498046875
1631118317103,-0.3515625,0.111083984375,0.92230224609375
1631118317103,-0.35040283203125,0.11083984375,0.92376708984375
1631118317122,-0.3519287109375,0.11199951171875,0.92327880859375
1631118317278,-0.35137939453125,0.1116943359375,0.92352294921875
1631118317293,-0.35382080078125,0.11334228515625,0.92095947265625
1631118317293,-0.35595703125,0.11578369140625,0.92376708984375
1631118317434,-0.34674072265625,0.1109619140625,0.91571044921875
1631118317434,-0.35235595703125,0.1151123046875,0.91668701171875
1631118317436,-0.35504150390625,0.1099853515625,0.91595458984375
1631118317555,-0.3486328125,0.11627197265625,0.917724609375
1631118317566,-0.34906005859375,0.115234375,0.92071533203125
1631118317566,-0.343994140625,0.111572265625,0.92254638671875
1631118317660,-0.3408203125,0.11505126953125,0.9244384765625
1631118317660,-0.34368896484375,0.10894775390625,0.9256591796875
1631118317662,-0.34027099609375,0.10894775390625,0.923095703125
1631118317662,-0.34478759765625,0.1162109375,0.922119140625
1631118317662,-0.345703125,0.1102294921875,0.92047119140625
1631118317679,-0.3433837890625,0.1109619140625,0.92852783203125
1631118317904,-0.34063720703125,0.111328125,0.92755126953125
1631118317906,-0.3397216796875,0.114501953125,0.92816162109375
1631118317906,-0.3411865234375,0.114990234375,0.92950439453125
1631118317936,-0.34112548828125,0.111083984375,0.92242431640625
1631118317936,-0.3408203125,0.112548828125,0.92327880859375
1631118317938,-0.34149169921875,0.11029052734375,0.9241943359375
1631118317985,-0.3349609375,0.11492919921875,0.92437744140625
1631118317985,-0.33880615234375,0.11395263671875,0.9256591796875
1631118317986,-0.33953857421875,0.1148681640625,0.9281005859375
1631118318197,-0.3377685546875,0.10980224609375,0.92724609375
1631118318197,-0.33721923828125,0.10699462890625,0.92767333984375
1631118318197,-0.3394775390625,0.1068115234375,0.92584228515625
1631118318326,-0.34130859375,0.102294921875,0.93194580078125
1631118318326,-0.3350830078125,0.1036376953125,0.929931640625
1631118318326,-0.3389892578125,0.1063232421875,0.92999267578125
1631118318957,-0.33270263671875,0.10968017578125,0.93585205078125
1631118318957,-0.32879638671875,0.10870361328125,0.9273681640625
1631118318972,-0.3304443359375,0.10638427734375,0.9342041015625
1631118319035,-0.3284912109375,0.1080322265625,0.931640625
1631118319053,-0.33050537109375,0.10382080078125,0.93212890625
1631118319054,-0.3316650390625,0.1033935546875,0.92779541015625
1631118319234,-0.32696533203125,0.0994873046875,0.93572998046875
1631118319235,-0.331787109375,0.09881591796875,0.934326171875
1631118319237,-0.3271484375,0.10009765625,0.93328857421875
1631118319297,-0.32757568359375,0.103759765625,0.93304443359375
1631118319297,-0.3272705078125,0.1005859375,0.928955078125
1631118319297,-0.3277587890625,0.100830078125,0.9346923828125
1631118319521,-0.3250732421875,0.10186767578125,0.9332275390625
1631118319521,-0.32452392578125,0.1016845703125,0.93212890625
1631118319521,-0.3250732421875,0.10107421875,0.933349609375
1631118319537,-0.32208251953125,0.102783203125,0.9334716796875
1631118319537,-0.3223876953125,0.1009521484375,0.931884765625
1631118319538,-0.32470703125,0.10223388671875,0.93170166015625
1631118319538,-0.321533203125,0.09979248046875,0.9327392578125
1631118319538,-0.32373046875,0.1026611328125,0.9322509765625
1631118319540,-0.3214111328125,0.1007080078125,0.93121337890625
1631118319600,-0.32366943359375,0.0931396484375,0.935302734375
1631118319602,-0.3212890625,0.10137939453125,0.931640625
1631118319603,-0.3243408203125,0.09417724609375,0.93701171875
1631118319620,-0.32196044921875,0.1011962890625,0.93267822265625
1631118319636,-0.32696533203125,0.1033935546875,0.92803955078125
1631118319637,-0.32269287109375,0.10400390625,0.930419921875
1631118319670,-0.32989501953125,0.1021728515625,0.93499755859375
1631118319672,-0.32818603515625,0.08929443359375,0.92730712890625
1631118319672,-0.3262939453125,0.10137939453125,0.93353271484375
1631118319673,-0.3272705078125,0.089111328125,0.93060302734375
1631118319677,-0.3267822265625,0.09149169921875,0.9305419921875
1631118319683,-0.324951171875,0.10546875,0.93316650390625
1631118319691,-0.32550048828125,0.09918212890625,0.92889404296875
1631118319696,-0.32598876953125,0.10223388671875,0.92919921875
1631118319697,-0.32196044921875,0.10308837890625,0.92657470703125
1631118319762,-0.324462890625,0.1019287109375,0.92962646484375
1631118319762,-0.32513427734375,0.099609375,0.93292236328125
1631118319762,-0.32696533203125,0.10028076171875,0.9295654296875
1631118319978,-0.326171875,0.10565185546875,0.92852783203125
1631118319981,-0.32550048828125,0.10357666015625,0.9268798828125
1631118319984,-0.32403564453125,0.1024169921875,0.92919921875
1631118320125,-0.322998046875,0.09259033203125,0.93389892578125
1631118320125,-0.32318115234375,0.09814453125,0.93658447265625
1631118320131,-0.32208251953125,0.10015869140625,0.9345703125
1631118320436,-0.32476806640625,0.10369873046875,0.93243408203125
1631118320439,-0.3251953125,0.1053466796875,0.93218994140625
1631118320441,-0.31939697265625,0.10272216796875,0.93280029296875
1631118320770,-0.32147216796875,0.10015869140625,0.9324951171875
1631118320787,-0.31890869140625,0.1019287109375,0.9298095703125
1631118320788,-0.3223876953125,0.100341796875,0.92974853515625
1631118320834,-0.32098388671875,0.10333251953125,0.9285888671875
1631118320834,-0.32257080078125,0.1024169921875,0.92913818359375
1631118320835,-0.32196044921875,0.10028076171875,0.9334716796875
1631118320924,-0.32342529296875,0.1014404296875,0.93023681640625
1631118320924,-0.32330322265625,0.0994873046875,0.93511962890625
1631118320924,-0.31707763671875,0.09814453125,0.9334716796875
1631118321191,-0.32183837890625,0.09912109375,0.93505859375
1631118321191,-0.31939697265625,0.10064697265625,0.93756103515625
1631118321192,-0.3218994140625,0.10345458984375,0.9339599609375
1631118321288,-0.32183837890625,0.10040283203125,0.93310546875
1631118321304,-0.320556640625,0.099609375,0.93206787109375
1631118321304,-0.3262939453125,0.09857177734375,0.93170166015625
1631118321389,-0.32293701171875,0.09423828125,0.92596435546875
1631118321390,-0.32855224609375,0.09478759765625,0.9283447265625
1631118321398,-0.32623291015625,0.10101318359375,0.93377685546875
1631118321418,-0.318115234375,0.09100341796875,0.93927001953125
1631118321418,-0.31988525390625,0.093505859375,0.94024658203125
1631118321420,-0.31591796875,0.093017578125,0.938720703125
1631118321469,-0.3218994140625,0.10272216796875,0.92938232421875
1631118321470,-0.32275390625,0.10394287109375,0.92852783203125
1631118321470,-0.32135009765625,0.1060791015625,0.9293212890625
1631118321484,-0.3173828125,0.09906005859375,0.939208984375
1631118321484,-0.31341552734375,0.09381103515625,0.9356689453125
1631118321504,-0.31903076171875,0.09344482421875,0.9310302734375
1631118321504,-0.316650390625,0.0938720703125,0.9342041015625
1631118321505,-0.31854248046875,0.094970703125,0.93597412109375
1631118321505,-0.31854248046875,0.09686279296875,0.93310546875
1631118321505,-0.3170166015625,0.0968017578125,0.9332275390625
1631118321505,-0.314697265625,0.0977783203125,0.9326171875
1631118321505,-0.31787109375,0.0928955078125,0.93670654296875
1631118321535,-0.31182861328125,0.09234619140625,0.93377685546875
1631118321538,-0.31951904296875,0.0980224609375,0.93511962890625
1631118321541,-0.31805419921875,0.0997314453125,0.9395751953125
1631118321600,-0.30303955078125,0.0980224609375,0.9385986328125
1631118321600,-0.30029296875,0.0987548828125,0.9432373046875
1631118321616,-0.30670166015625,0.09814453125,0.93963623046875
1631118321662,-0.30322265625,0.09979248046875,0.93951416015625
1631118321662,-0.3055419921875,0.104736328125,0.94097900390625
1631118321663,-0.30267333984375,0.10028076171875,0.94183349609375
1631118321865,-0.30145263671875,0.08935546875,0.9449462890625
1631118321866,-0.303955078125,0.08526611328125,0.946044921875
1631118321866,-0.30133056640625,0.08831787109375,0.94842529296875
1631118321984,-0.3040771484375,0.08648681640625,0.94464111328125
1631118321986,-0.302490234375,0.09075927734375,0.94384765625
1631118321990,-0.29962158203125,0.09228515625,0.94097900390625
1631118322089,-0.299072265625,0.09759521484375,0.94427490234375
1631118322091,-0.30157470703125,0.10089111328125,0.95086669921875
1631118322092,-0.3035888671875,0.1036376953125,0.95379638671875
1631118322164,-0.30712890625,0.11297607421875,0.95147705078125
1631118322167,-0.301025390625,0.1146240234375,0.9493408203125
1631118322170,-0.3001708984375,0.1182861328125,0.9385986328125
1631118322257,-0.2940673828125,0.12762451171875,0.93157958984375
1631118322259,-0.2908935546875,0.1298828125,0.94000244140625
1631118322262,-0.292236328125,0.13031005859375,0.93975830078125
1631118322302,-0.28729248046875,0.132568359375,0.93798828125
1631118322304,-0.28973388671875,0.1319580078125,0.93218994140625
1631118322306,-0.2828369140625,0.1376953125,0.91888427734375
1631118322361,-0.27740478515625,0.14105224609375,0.91412353515625
1631118322362,-0.2728271484375,0.14288330078125,0.91400146484375
1631118322363,-0.27545166015625,0.14385986328125,0.9241943359375
1631118322627,-0.251708984375,0.2266845703125,0.94427490234375
1631118322627,-0.26025390625,0.222900390625,0.94757080078125
1631118322627,-0.2586669921875,0.22222900390625,0.94354248046875
1631118322724,-0.2672119140625,0.20709228515625,0.95098876953125
1631118322724,-0.26885986328125,0.20587158203125,0.9534912109375
1631118322724,-0.27386474609375,0.2222900390625,0.95111083984375
1631118322755,-0.26287841796875,0.191650390625,0.94805908203125
1631118322777,-0.25494384765625,0.18408203125,0.94378662109375
1631118322778,-0.24017333984375,0.18292236328125,0.9534912109375
1631118322805,-0.222412109375,0.1702880859375,0.95648193359375
1631118322805,-0.23065185546875,0.1622314453125,0.972900390625
1631118322805,-0.23529052734375,0.176025390625,0.9580078125
1631118322921,-0.24609375,0.12103271484375,0.94970703125
1631118322921,-0.2418212890625,0.15557861328125,0.9769287109375
1631118322921,-0.23992919921875,0.14178466796875,0.9644775390625
1631118323019,-0.28070068359375,0.0560302734375,0.95086669921875
1631118323019,-0.2681884765625,0.070068359375,0.9866943359375
1631118323019,-0.28521728515625,0.079345703125,1.0390625
1631118323022,-0.2449951171875,0.1102294921875,0.9337158203125
1631118323022,-0.2564697265625,0.10821533203125,0.9627685546875
1631118323022,-0.26922607421875,0.1016845703125,0.99530029296875
1631118323038,-0.3150634765625,0.0638427734375,0.87451171875
1631118323038,-0.28179931640625,0.05560302734375,0.92889404296875
1631118323038,-0.28271484375,0.05810546875,0.89923095703125
1631118323038,-0.2938232421875,0.06524658203125,0.89410400390625
1631118323038,-0.2965087890625,0.0596923828125,0.89080810546875
1631118323046,-0.3173828125,0.0611572265625,0.87530517578125
1631118323052,-0.315185546875,0.10687255859375,0.96356201171875
1631118323054,-0.29937744140625,0.11456298828125,0.93524169921875
1631118323054,-0.32366943359375,0.05767822265625,0.8790283203125
1631118323054,-0.30767822265625,0.0670166015625,0.88153076171875
1631118323069,-0.28887939453125,0.079833984375,0.89630126953125
1631118323069,-0.310791015625,0.10247802734375,0.91455078125
1631118323295,-0.26171875,0.1357421875,1.02410888671875
1631118323297,-0.2569580078125,0.14508056640625,1.0028076171875
1631118323298,-0.27105712890625,0.1572265625,0.99749755859375
1631118323351,-0.282470703125,0.16259765625,0.98712158203125
1631118323353,-0.2779541015625,0.18505859375,0.9351806640625
1631118323357,-0.27337646484375,0.22979736328125,0.94085693359375
1631118323394,-0.26202392578125,0.23675537109375,0.9158935546875
1631118323395,-0.2476806640625,0.2308349609375,0.90985107421875
1631118323396,-0.23583984375,0.22100830078125,0.91278076171875
1631118323433,-0.17279052734375,0.20416259765625,0.87896728515625
1631118323437,-0.15509033203125,0.1976318359375,0.8798828125
1631118323437,-0.1385498046875,0.1976318359375,0.91595458984375
1631118323487,-0.125244140625,0.20135498046875,0.9503173828125
1631118323488,-0.11517333984375,0.189208984375,0.98333740234375
1631118323488,-0.10968017578125,0.16339111328125,1.002685546875
1631118323506,-0.0972900390625,0.140869140625,0.999267578125
1631118323508,-0.09356689453125,0.11602783203125,1.00494384765625
1631118323509,-0.08447265625,0.09417724609375,1.0018310546875
1631118323620,-0.08416748046875,0.0479736328125,1.00830078125
1631118323621,-0.0860595703125,0.0299072265625,0.98907470703125
1631118323621,-0.07781982421875,0.084228515625,0.993896484375
1631118323653,-0.08819580078125,0.0277099609375,0.950439453125
1631118323654,-0.0836181640625,0.0338134765625,0.927001953125
1631118323669,-0.06787109375,0.03985595703125,0.972900390625
1631118323670,-0.09674072265625,0.0264892578125,0.9913330078125
1631118323671,-0.0794677734375,0.03472900390625,0.934814453125
1631118323675,-0.0460205078125,0.04461669921875,0.94854736328125
1631118323687,-0.014892578125,0.081787109375,0.9627685546875
1631118323688,-0.01800537109375,0.0540771484375,0.90093994140625
1631118323689,-0.0032958984375,0.090576171875,1.003662109375
1631118323700,-0.00067138671875,0.09271240234375,1.014404296875
1631118323716,0.0052490234375,0.1060791015625,0.9671630859375
1631118323717,-0.0001220703125,0.104248046875,0.95928955078125
1631118323717,0.0205078125,0.0992431640625,1.0086669921875
1631118323720,0.01116943359375,0.09490966796875,0.97149658203125
1631118323721,0.00372314453125,0.09722900390625,0.98486328125
1631118323825,0.03497314453125,0.077880859375,1.03521728515625
1631118323825,0.03729248046875,0.08819580078125,1.0008544921875
1631118323826,0.0321044921875,0.07183837890625,1.04022216796875
1631118323955,0.0413818359375,0.07275390625,1.03814697265625
1631118323955,0.01654052734375,0.102783203125,1.06951904296875
1631118323955,0.03533935546875,0.1055908203125,1.0506591796875
1631118324118,0.01702880859375,0.116943359375,1.052978515625
1631118324118,0.03094482421875,0.122802734375,1.08831787109375
1631118324119,0.0086669921875,0.107421875,1.02227783203125
1631118324139,-0.00286865234375,0.0875244140625,1.02880859375
1631118324140,0.0074462890625,0.10321044921875,1.0352783203125
1631118324140,0.00396728515625,0.09375,1.0325927734375
1631118324184,-0.00396728515625,0.06982421875,1.03668212890625
1631118324184,-0.00738525390625,0.081787109375,1.0152587890625
1631118324187,-0.04608154296875,0.0601806640625,1.0516357421875
1631118324200,-0.06048583984375,0.04913330078125,1.07611083984375
1631118324200,-0.03424072265625,0.05511474609375,1.0906982421875
1631118324204,-0.0435791015625,0.0535888671875,1.0869140625
1631118324440,-0.07958984375,0.051025390625,1.05548095703125
1631118324440,-0.0958251953125,0.05517578125,1.02105712890625
1631118324440,-0.111572265625,0.05780029296875,0.9912109375
1631118324456,-0.14971923828125,0.06756591796875,0.97161865234375
1631118324457,-0.13214111328125,0.0623779296875,0.98333740234375
1631118324458,-0.15570068359375,0.07476806640625,0.95458984375
1631118324535,-0.16497802734375,0.08050537109375,0.955078125
1631118324535,-0.2166748046875,0.08929443359375,0.94195556640625
1631118324535,-0.19775390625,0.0811767578125,0.9564208984375
1631118324535,-0.1937255859375,0.0849609375,0.96673583984375
1631118324535,-0.177001953125,0.0841064453125,0.9532470703125
1631118324535,-0.20404052734375,0.08026123046875,0.93731689453125
1631118324583,-0.23455810546875,0.09918212890625,0.95159912109375
1631118324587,-0.2467041015625,0.107177734375,0.91851806640625
1631118324588,-0.2432861328125,0.109375,0.932861328125
1631118324688,-0.27044677734375,0.11285400390625,0.93145751953125
1631118324688,-0.293701171875,0.10821533203125,0.917236328125
1631118324688,-0.2847900390625,0.10516357421875,0.92822265625
1631118324688,-0.27593994140625,0.109619140625,0.91925048828125
1631118324688,-0.25811767578125,0.10931396484375,0.92401123046875
1631118324688,-0.30242919921875,0.11151123046875,0.9208984375
1631118324705,-0.300048828125,0.10662841796875,0.9027099609375
1631118324705,-0.30145263671875,0.10205078125,0.91796875
1631118324708,-0.30023193359375,0.107421875,0.8963623046875
1631118324782,-0.29705810546875,0.12628173828125,0.9490966796875
1631118324784,-0.29833984375,0.1259765625,0.961181640625
1631118324785,-0.28753662109375,0.12884521484375,0.96435546875
1631118324789,-0.2784423828125,0.12420654296875,0.97900390625
1631118324789,-0.27069091796875,0.1217041015625,0.97100830078125
1631118324796,-0.27325439453125,0.11517333984375,0.96844482421875
1631118324902,-0.29608154296875,0.11932373046875,0.935302734375
1631118324903,-0.2801513671875,0.11328125,0.8819580078125
1631118324903,-0.2935791015625,0.113525390625,0.91180419921875
1631118324935,-0.2528076171875,0.0955810546875,0.95166015625
1631118324936,-0.26776123046875,0.113037109375,0.87109375
1631118324936,-0.2528076171875,0.097412109375,0.89654541015625
1631118325045,-0.24835205078125,0.09246826171875,1.0040283203125
1631118325045,-0.2476806640625,0.08807373046875,0.986083984375
1631118325045,-0.23565673828125,0.0909423828125,0.992431640625
1631118325218,-0.23602294921875,0.09149169921875,0.99627685546875
1631118325218,-0.23187255859375,0.08734130859375,0.9879150390625
1631118325219,-0.24261474609375,0.09356689453125,0.98724365234375
1631118325365,-0.27130126953125,0.10565185546875,0.96240234375
1631118325365,-0.2574462890625,0.0965576171875,0.9720458984375
1631118325366,-0.2825927734375,0.10540771484375,0.94696044921875
1631118325396,-0.2716064453125,0.1043701171875,0.9244384765625
1631118325407,-0.26385498046875,0.09588623046875,0.9637451171875
1631118325408,-0.27117919921875,0.09783935546875,0.9488525390625
1631118325408,-0.339111328125,0.11346435546875,0.916015625
1631118325408,-0.26715087890625,0.1031494140625,0.900634765625
1631118325411,-0.27496337890625,0.10888671875,0.8597412109375
1631118325586,-0.26556396484375,0.093017578125,0.9710693359375
1631118325586,-0.2647705078125,0.09185791015625,0.9722900390625
1631118325586,-0.26885986328125,0.0875244140625,0.9791259765625
1631118325660,-0.2760009765625,0.09332275390625,0.9775390625
1631118325660,-0.2889404296875,0.097412109375,0.9783935546875
1631118325660,-0.29681396484375,0.091552734375,0.95855712890625
1631118325868,-0.30517578125,0.09576416015625,0.94830322265625
1631118325868,-0.3072509765625,0.0943603515625,0.94219970703125
1631118325868,-0.31256103515625,0.09564208984375,0.93304443359375
1631118325984,-0.31597900390625,0.09442138671875,0.92724609375
1631118325985,-0.31109619140625,0.09417724609375,0.9222412109375
1631118325986,-0.31072998046875,0.09710693359375,0.91552734375
1631118326182,-0.27325439453125,0.1361083984375,0.96160888671875
1631118326182,-0.2655029296875,0.1380615234375,0.97052001953125
1631118326183,-0.28424072265625,0.1158447265625,0.917236328125
1631118326184,-0.274169921875,0.1295166015625,0.94964599609375
1631118326184,-0.27203369140625,0.1417236328125,0.9774169921875
1631118326184,-0.2791748046875,0.11895751953125,0.93280029296875
1631118326219,-0.262939453125,0.1336669921875,0.9522705078125
1631118326222,-0.2679443359375,0.14642333984375,0.97894287109375
1631118326222,-0.26544189453125,0.1375732421875,0.96826171875
1631118326278,-0.26318359375,0.13677978515625,0.93927001953125
1631118326278,-0.259765625,0.1434326171875,0.9407958984375
1631118326301,-0.256103515625,0.14227294921875,0.9393310546875
1631118326342,-0.25762939453125,0.14215087890625,0.95538330078125
1631118326356,-0.261474609375,0.15252685546875,0.95721435546875
1631118326356,-0.25665283203125,0.15606689453125,0.9609375
1631118326481,-0.2672119140625,0.1351318359375,0.94921875
1631118326481,-0.2686767578125,0.129638671875,0.9478759765625
1631118326522,-0.26580810546875,0.135498046875,0.9505615234375
1631118326580,-0.291015625,0.14080810546875,0.94366455078125
1631118326583,-0.29010009765625,0.1375732421875,0.94293212890625
1631118326585,-0.2869873046875,0.13507080078125,0.94793701171875
1631118326852,-0.30426025390625,0.14593505859375,0.9332275390625
1631118326861,-0.30023193359375,0.1488037109375,0.931640625
1631118326865,-0.30810546875,0.14581298828125,0.93402099609375
1631118326899,-0.2982177734375,0.1497802734375,0.9332275390625
1631118326899,-0.3011474609375,0.1466064453125,0.94287109375
1631118326899,-0.298583984375,0.14788818359375,0.9405517578125
1631118326929,-0.2928466796875,0.15032958984375,0.93988037109375
1631118326929,-0.29620361328125,0.14697265625,0.9398193359375
1631118326929,-0.2987060546875,0.1458740234375,0.94097900390625
1631118327070,-0.2969970703125,0.1492919921875,0.9371337890625
1631118327072,-0.2978515625,0.1456298828125,0.93572998046875
1631118327072,-0.29412841796875,0.14935302734375,0.939697265625
1631118327093,-0.2952880859375,0.14154052734375,0.933837890625
1631118327093,-0.29461669921875,0.14215087890625,0.93353271484375
1631118327102,-0.29315185546875,0.1363525390625,0.939697265625
1631118327185,-0.2913818359375,0.13262939453125,0.935302734375
1631118327185,-0.2879638671875,0.1336669921875,0.93597412109375
1631118327185,-0.29107666015625,0.132568359375,0.94183349609375
1631118327185,-0.29449462890625,0.1343994140625,0.9423828125
1631118327185,-0.294189453125,0.1343994140625,0.9376220703125
1631118327185,-0.2928466796875,0.13104248046875,0.9439697265625
1631118327422,-0.27764892578125,0.1273193359375,0.94952392578125
1631118327422,-0.27996826171875,0.12750244140625,0.94219970703125
1631118327422,-0.2843017578125,0.1285400390625,0.9376220703125
1631118327471,-0.277587890625,0.13238525390625,0.9501953125
1631118327471,-0.272216796875,0.12896728515625,0.9569091796875
1631118327471,-0.28131103515625,0.13079833984375,0.94732666015625
1631118327580,-0.26806640625,0.1263427734375,0.94952392578125
1631118327580,-0.26568603515625,0.12640380859375,0.9459228515625
1631118327582,-0.269775390625,0.13055419921875,0.96331787109375
1631118327685,-0.26708984375,0.1285400390625,0.94390869140625
1631118327687,-0.2607421875,0.126220703125,0.95465087890625
1631118327688,-0.263427734375,0.1290283203125,0.93817138671875
1631118327920,-0.26568603515625,0.128173828125,0.95294189453125
1631118327920,-0.2626953125,0.12811279296875,0.95111083984375
1631118327920,-0.26318359375,0.126220703125,0.95245361328125
1631118327951,-0.26409912109375,0.1192626953125,0.94915771484375
1631118327952,-0.2618408203125,0.12738037109375,0.94854736328125
1631118327958,-0.2633056640625,0.12786865234375,0.94989013671875
1631118327984,-0.258544921875,0.11920166015625,0.95635986328125
1631118327986,-0.25726318359375,0.11944580078125,0.9505615234375
1631118327990,-0.2623291015625,0.1221923828125,0.946044921875
1631118327990,-0.26080322265625,0.11627197265625,0.9443359375
1631118327990,-0.260498046875,0.1173095703125,0.95367431640625
1631118327990,-0.25787353515625,0.1177978515625,0.94757080078125
1631118328106,-0.25433349609375,0.11639404296875,0.95196533203125
1631118328106,-0.255859375,0.1121826171875,0.95343017578125
1631118328106,-0.255859375,0.10980224609375,0.9517822265625
1631118328459,-0.2557373046875,0.10443115234375,0.95233154296875
1631118328459,-0.254150390625,0.10516357421875,0.953125
1631118328464,-0.25726318359375,0.1036376953125,0.95458984375
1631118328498,-0.2637939453125,0.110595703125,0.9508056640625
1631118328499,-0.26275634765625,0.11029052734375,0.952880859375
1631118328499,-0.2645263671875,0.112548828125,0.95703125
1631118328545,-0.262451171875,0.10955810546875,0.949951171875
1631118328545,-0.26361083984375,0.10723876953125,0.9476318359375
1631118328545,-0.2640380859375,0.1072998046875,0.9498291015625
1631118328752,-0.26177978515625,0.11004638671875,0.95458984375
1631118328753,-0.26507568359375,0.108642578125,0.95367431640625
1631118328753,-0.26654052734375,0.11029052734375,0.95111083984375
1631118328820,-0.26776123046875,0.1126708984375,0.9517822265625
1631118328820,-0.2657470703125,0.11285400390625,0.95635986328125
1631118328820,-0.2650146484375,0.109619140625,0.95208740234375
1631118328917,-0.26654052734375,0.115478515625,0.94793701171875
1631118328917,-0.265625,0.11529541015625,0.94677734375
1631118328922,-0.26483154296875,0.1143798828125,0.955078125
1631118328927,-0.26177978515625,0.10089111328125,0.953125
1631118328928,-0.2626953125,0.11334228515625,0.94921875
1631118328929,-0.263916015625,0.11236572265625,0.95294189453125
1631118328929,-0.2620849609375,0.1033935546875,0.9559326171875
1631118328934,-0.26531982421875,0.10919189453125,0.95794677734375
1631118328943,-0.269287109375,0.11517333984375,0.94769287109375
1631118329046,-0.2567138671875,0.1031494140625,0.9534912109375
1631118329046,-0.257080078125,0.1026611328125,0.95782470703125
1631118329046,-0.25933837890625,0.10003662109375,0.94927978515625
1631118329119,-0.25518798828125,0.10498046875,0.95684814453125
1631118329119,-0.25408935546875,0.1036376953125,0.96331787109375
1631118329124,-0.25408935546875,0.1075439453125,0.95849609375
1631118329310,-0.2567138671875,0.10650634765625,0.9586181640625
1631118329310,-0.25164794921875,0.1053466796875,0.95947265625
1631118329310,-0.2547607421875,0.10699462890625,0.959228515625
1631118329422,-0.2568359375,0.10107421875,0.95050048828125
1631118329422,-0.25518798828125,0.10296630859375,0.95294189453125
1631118329423,-0.25970458984375,0.0963134765625,0.95916748046875
1631118329586,-0.2578125,0.10003662109375,0.95172119140625
1631118329586,-0.259765625,0.0972900390625,0.956787109375
1631118329586,-0.2584228515625,0.0997314453125,0.95648193359375
1631118329586,-0.260009765625,0.09796142578125,0.9522705078125
1631118329602,-0.2608642578125,0.0986328125,0.9583740234375
1631118329602,-0.2633056640625,0.0982666015625,0.953125
1631118329669,-0.26220703125,0.103759765625,0.953369140625
1631118329671,-0.26153564453125,0.0997314453125,0.9547119140625
1631118329671,-0.26300048828125,0.10064697265625,0.9599609375
1631118329819,-0.26318359375,0.10174560546875,0.95343017578125
1631118329824,-0.26226806640625,0.10198974609375,0.951416015625
1631118329833,-0.26397705078125,0.1048583984375,0.95013427734375
1631118329895,-0.26324462890625,0.1031494140625,0.9552001953125
1631118329895,-0.261474609375,0.10211181640625,0.95440673828125
1631118329895,-0.264404296875,0.09918212890625,0.9559326171875
1631118330032,-0.261962890625,0.10211181640625,0.96044921875
1631118330032,-0.2618408203125,0.09857177734375,0.9520263671875
1631118330032,-0.267822265625,0.100341796875,0.9544677734375
1631118330032,-0.2686767578125,0.09716796875,0.95172119140625
1631118330032,-0.26739501953125,0.1005859375,0.95733642578125
1631118330032,-0.2646484375,0.10552978515625,0.94891357421875
1631118330032,-0.267578125,0.10748291015625,0.94989013671875
1631118330032,-0.26312255859375,0.10009765625,0.9539794921875
1631118330032,-0.27056884765625,0.10003662109375,0.94683837890625
1631118330068,-0.2684326171875,0.10400390625,0.94647216796875
1631118330071,-0.26898193359375,0.1077880859375,0.94659423828125
1631118330073,-0.26947021484375,0.10443115234375,0.95001220703125
1631118330161,-0.2685546875,0.1051025390625,0.95281982421875
1631118330161,-0.2674560546875,0.10540771484375,0.9532470703125
1631118330163,-0.267822265625,0.10418701171875,0.95062255859375
1631118330241,-0.27105712890625,0.10247802734375,0.95330810546875
1631118330242,-0.27398681640625,0.1029052734375,0.95147705078125
1631118330242,-0.272216796875,0.0992431640625,0.95318603515625
1631118330383,-0.26727294921875,0.10174560546875,0.9569091796875
1631118330383,-0.26910400390625,0.10107421875,0.955078125
1631118330404,-0.2685546875,0.1070556640625,0.95001220703125
1631118330406,-0.2724609375,0.10455322265625,0.94696044921875
1631118330406,-0.27301025390625,0.10693359375,0.94683837890625
1631118330406,-0.2691650390625,0.0992431640625,0.956298828125
1631118330411,-0.2716064453125,0.10137939453125,0.95391845703125
1631118330413,-0.273681640625,0.10626220703125,0.95733642578125
1631118330421,-0.2684326171875,0.10125732421875,0.95513916015625
1631118330484,-0.27117919921875,0.09716796875,0.9451904296875
1631118330484,-0.27081298828125,0.1048583984375,0.94384765625
1631118330484,-0.2681884765625,0.10321044921875,0.943359375
1631118330561,-0.26739501953125,0.11077880859375,0.95751953125
1631118330561,-0.26751708984375,0.106201171875,0.946044921875
1631118330562,-0.2706298828125,0.1046142578125,0.94952392578125
1631118330624,-0.27197265625,0.10076904296875,0.95172119140625
1631118330624,-0.26922607421875,0.1082763671875,0.95196533203125
1631118330624,-0.2711181640625,0.10687255859375,0.949951171875
1631118330936,-0.27154541015625,0.1004638671875,0.94781494140625
1631118330936,-0.2723388671875,0.10369873046875,0.95269775390625
1631118330938,-0.27154541015625,0.10443115234375,0.95245361328125
1631118330952,-0.27447509765625,0.0989990234375,0.94671630859375
1631118330954,-0.27197265625,0.1005859375,0.952880859375
1631118330954,-0.2696533203125,0.1015625,0.95025634765625
1631118331269,-0.27008056640625,0.10040283203125,0.9505615234375
1631118331269,-0.26995849609375,0.09967041015625,0.95037841796875
1631118331269,-0.27099609375,0.10369873046875,0.95245361328125
1631118331335,-0.26934814453125,0.10333251953125,0.953369140625
1631118331335,-0.2725830078125,0.10791015625,0.949462890625
1631118331335,-0.27166748046875,0.105224609375,0.951171875
1631118331387,-0.2738037109375,0.10906982421875,0.94976806640625
1631118331394,-0.273681640625,0.10894775390625,0.9495849609375
1631118331394,-0.2723388671875,0.1107177734375,0.950439453125
1631118331466,-0.277099609375,0.1099853515625,0.94842529296875
1631118331467,-0.2718505859375,0.10986328125,0.94830322265625
1631118331467,-0.271240234375,0.11041259765625,0.94854736328125
1631118331512,-0.2708740234375,0.10906982421875,0.94635009765625
1631118331513,-0.268798828125,0.11297607421875,0.94927978515625
1631118331513,-0.2720947265625,0.1087646484375,0.94683837890625
1631118331604,-0.2730712890625,0.10107421875,0.951416015625
1631118331604,-0.27288818359375,0.1070556640625,0.94940185546875
1631118331604,-0.27154541015625,0.1065673828125,0.9532470703125
1631118331686,-0.27197265625,0.10003662109375,0.9481201171875
1631118331686,-0.27001953125,0.1002197265625,0.954833984375
1631118331687,-0.27197265625,0.0975341796875,0.94671630859375
1631118331844,-0.271240234375,0.09783935546875,0.94647216796875
1631118331863,-0.27447509765625,0.09698486328125,0.94952392578125
1631118331863,-0.27154541015625,0.10455322265625,0.949951171875
1631118331863,-0.27191162109375,0.10784912109375,0.95538330078125
1631118331864,-0.27081298828125,0.10638427734375,0.95526123046875
1631118331864,-0.2725830078125,0.095458984375,0.951416015625
1631118332061,-0.27093505859375,0.10284423828125,0.95147705078125
1631118332061,-0.269775390625,0.1041259765625,0.95208740234375
1631118332061,-0.276611328125,0.10284423828125,0.95068359375
1631118332149,-0.27386474609375,0.1025390625,0.9505615234375
1631118332150,-0.271240234375,0.10565185546875,0.9482421875
1631118332150,-0.27166748046875,0.10400390625,0.95037841796875
1631118332220,-0.2738037109375,0.10589599609375,0.9471435546875
1631118332228,-0.2735595703125,0.10614013671875,0.94830322265625
1631118332231,-0.27276611328125,0.10882568359375,0.94866943359375
1631118332232,-0.270751953125,0.1038818359375,0.9478759765625
1631118332233,-0.27435302734375,0.10638427734375,0.94921875
1631118332233,-0.27227783203125,0.1021728515625,0.94561767578125
1631118332312,-0.2703857421875,0.10284423828125,0.947998046875
1631118332312,-0.2734375,0.104248046875,0.95245361328125
1631118332312,-0.27117919921875,0.1005859375,0.947998046875
1631118332454,-0.27703857421875,0.104736328125,0.95013427734375
1631118332455,-0.27392578125,0.1002197265625,0.944091796875
1631118332455,-0.274169921875,0.1087646484375,0.95159912109375
1631118332455,-0.2728271484375,0.10498046875,0.95318603515625
1631118332455,-0.27850341796875,0.108642578125,0.95294189453125
1631118332455,-0.27203369140625,0.10589599609375,0.953857421875
1631118332636,-0.269775390625,0.10992431640625,0.9549560546875
1631118332641,-0.2716064453125,0.10992431640625,0.95928955078125
1631118332642,-0.27447509765625,0.1043701171875,0.94903564453125
1631118332649,-0.2750244140625,0.10357666015625,0.944091796875
1631118332650,-0.2747802734375,0.0992431640625,0.9488525390625
1631118332669,-0.2760009765625,0.1041259765625,0.94952392578125
1631118332732,-0.27642822265625,0.10162353515625,0.94891357421875
1631118332732,-0.2733154296875,0.104248046875,0.950927734375
1631118332732,-0.27685546875,0.1021728515625,0.94671630859375
1631118332951,-0.27679443359375,0.10809326171875,0.946533203125
1631118332952,-0.27789306640625,0.103759765625,0.95196533203125
1631118332953,-0.2762451171875,0.1046142578125,0.9476318359375
1631118333002,-0.2774658203125,0.103759765625,0.9482421875
1631118333002,-0.274169921875,0.103271484375,0.94952392578125
1631118333004,-0.27667236328125,0.10430908203125,0.948486328125
1631118333144,-0.279541015625,0.1063232421875,0.948486328125
1631118333145,-0.2760009765625,0.10772705078125,0.94830322265625
1631118333146,-0.28033447265625,0.1064453125,0.9444580078125
1631118333146,-0.27471923828125,0.10894775390625,0.95013427734375
1631118333167,-0.2764892578125,0.10626220703125,0.95111083984375
1631118333168,-0.28106689453125,0.10772705078125,0.947998046875
1631118333224,-0.27935791015625,0.1038818359375,0.94500732421875
1631118333224,-0.2822265625,0.10260009765625,0.9449462890625
1631118333225,-0.28448486328125,0.10345458984375,0.9461669921875
1631118333371,-0.27972412109375,0.10260009765625,0.9454345703125
1631118333371,-0.28302001953125,0.1031494140625,0.946533203125
1631118333371,-0.28076171875,0.1019287109375,0.94732666015625
1631118333535,-0.28515625,0.10394287109375,0.95184326171875
1631118333535,-0.285888671875,0.1011962890625,0.951171875
1631118333536,-0.2799072265625,0.09942626953125,0.94427490234375
1631118333655,-0.279296875,0.10638427734375,0.946044921875
1631118333655,-0.28057861328125,0.10107421875,0.94183349609375
1631118333655,-0.2796630859375,0.103271484375,0.94329833984375
1631118333701,-0.28338623046875,0.10089111328125,0.951171875
1631118333704,-0.2762451171875,0.094482421875,0.947021484375
1631118333705,-0.28271484375,0.09765625,0.94696044921875
1631118333732,-0.28125,0.10101318359375,0.9473876953125
1631118333732,-0.27862548828125,0.10223388671875,0.9498291015625
1631118333732,-0.2825927734375,0.09967041015625,0.946533203125
1631118333748,-0.28375244140625,0.1016845703125,0.94635009765625
1631118333748,-0.28240966796875,0.1046142578125,0.947021484375
1631118333749,-0.28216552734375,0.1041259765625,0.9490966796875
1631118333941,-0.28253173828125,0.10028076171875,0.94482421875
1631118333943,-0.2833251953125,0.10076904296875,0.94598388671875
1631118333944,-0.28033447265625,0.10064697265625,0.94610595703125
1631118333953,-0.28253173828125,0.10357666015625,0.94598388671875
1631118333954,-0.28033447265625,0.1021728515625,0.94635009765625
1631118333955,-0.283447265625,0.10064697265625,0.94317626953125
1631118334121,-0.286376953125,0.10382080078125,0.9481201171875
1631118334140,-0.2801513671875,0.1011962890625,0.9466552734375
1631118334141,-0.2821044921875,0.10498046875,0.94744873046875
1631118334275,-0.28497314453125,0.0982666015625,0.9498291015625
1631118334275,-0.28631591796875,0.09991455078125,0.94964599609375
1631118334276,-0.28289794921875,0.09912109375,0.95013427734375
1631118334368,-0.28009033203125,0.09783935546875,0.946533203125
1631118334370,-0.28289794921875,0.09576416015625,0.9478759765625
1631118334370,-0.2830810546875,0.1011962890625,0.9405517578125
1631118334721,-0.28192138671875,0.10089111328125,0.9500732421875
1631118334721,-0.28167724609375,0.10235595703125,0.95245361328125
1631118334721,-0.2828369140625,0.0992431640625,0.955078125
1631118334754,-0.28082275390625,0.0960693359375,0.9471435546875
1631118334754,-0.28369140625,0.10028076171875,0.953369140625
1631118334754,-0.2852783203125,0.0970458984375,0.948486328125
1631118334769,-0.28070068359375,0.0955810546875,0.9461669921875
1631118334770,-0.28216552734375,0.093017578125,0.94769287109375
1631118334770,-0.28314208984375,0.095703125,0.9517822265625
1631118334854,-0.2821044921875,0.091796875,0.9532470703125
1631118334854,-0.28289794921875,0.1014404296875,0.94830322265625
1631118334854,-0.28265380859375,0.098876953125,0.94976806640625
1631118335070,-0.282958984375,0.1033935546875,0.94964599609375
1631118335073,-0.281982421875,0.10101318359375,0.949951171875
1631118335087,-0.28076171875,0.101806640625,0.95013427734375
1631118335277,-0.28070068359375,0.09552001953125,0.95135498046875
1631118335294,-0.28143310546875,0.0970458984375,0.94964599609375
1631118335447,-0.27838134765625,0.09588623046875,0.95257568359375
1631118335447,-0.28033447265625,0.0972900390625,0.95123291015625
1631118335447,-0.2796630859375,0.09710693359375,0.949462890625
1631118335634,-0.2730712890625,0.09869384765625,0.95452880859375
1631118335634,-0.2777099609375,0.094970703125,0.95196533203125
1631118335635,-0.27581787109375,0.092041015625,0.95050048828125
1631118335635,-0.2789306640625,0.09381103515625,0.9512939453125
1631118335636,-0.27691650390625,0.099365234375,0.95233154296875
1631118335636,-0.278564453125,0.0975341796875,0.95294189453125
1631118335654,-0.27630615234375,0.08929443359375,0.94952392578125
1631118335673,-0.27667236328125,0.0911865234375,0.95599365234375
1631118335678,-0.27972412109375,0.09466552734375,0.949462890625
1631118335678,-0.278076171875,0.09161376953125,0.951171875
1631118335678,-0.2762451171875,0.09735107421875,0.94915771484375
1631118335678,-0.27947998046875,0.09063720703125,0.9517822265625
1631118335705,-0.274169921875,0.093994140625,0.9415283203125
1631118335705,-0.27764892578125,0.09442138671875,0.9630126953125
1631118335705,-0.28118896484375,0.097412109375,0.961669921875
1631118335705,-0.27911376953125,0.0916748046875,0.9530029296875
1631118335705,-0.29656982421875,0.11224365234375,0.9736328125
1631118335705,-0.28814697265625,0.1007080078125,0.959228515625
1631118335738,-0.27484130859375,0.10321044921875,0.94110107421875
1631118335738,-0.2803955078125,0.10015869140625,0.94891357421875
1631118335752,-0.25970458984375,0.10955810546875,0.94097900390625
1631118335936,-0.2076416015625,0.10235595703125,0.97149658203125
1631118335940,-0.20538330078125,0.09429931640625,0.96087646484375
1631118335940,-0.21728515625,0.111328125,0.94976806640625
1631118335975,-0.20526123046875,0.07861328125,0.9771728515625
1631118335991,-0.19268798828125,0.06231689453125,0.9935302734375
1631118335991,-0.1781005859375,0.0262451171875,1.0093994140625
1631118335991,-0.1759033203125,0.02679443359375,1.00030517578125
1631118335991,-0.18853759765625,0.05010986328125,0.96734619140625
1631118336003,-0.17547607421875,0.02252197265625,1.00360107421875
1631118336011,-0.17547607421875,0.02288818359375,1.01177978515625
1631118336014,-0.175537109375,0.02618408203125,1.009521484375
1631118336022,-0.1727294921875,0.02191162109375,1.00738525390625
1631118336167,-0.17352294921875,0.03558349609375,0.99176025390625
1631118336170,-0.17022705078125,0.03692626953125,0.99609375
1631118336173,-0.17138671875,0.03497314453125,0.98480224609375
1631118336258,-0.17620849609375,0.035888671875,0.9891357421875
1631118336260,-0.17694091796875,0.036865234375,0.99334716796875
1631118336262,-0.177734375,0.03717041015625,0.97821044921875
1631118336432,-0.16510009765625,0.04278564453125,0.98193359375
1631118336432,-0.1640625,0.0418701171875,0.974609375
1631118336432,-0.16693115234375,0.03692626953125,0.98052978515625
1631118336886,-0.15423583984375,0.0281982421875,0.99835205078125
1631118336886,-0.15411376953125,0.02581787109375,0.995361328125
1631118336887,-0.16357421875,0.02935791015625,0.9849853515625
1631118337155,-0.160400390625,0.023681640625,0.9918212890625
1631118337168,-0.1641845703125,0.026123046875,0.99298095703125
1631118337168,-0.16387939453125,0.02569580078125,0.9898681640625
1631118337219,-0.17626953125,0.0426025390625,0.99017333984375
1631118337219,-0.1715087890625,0.03729248046875,0.9942626953125
1631118337219,-0.17010498046875,0.02862548828125,0.9935302734375
1631118337399,-0.17083740234375,0.0390625,0.99102783203125
1631118337400,-0.17449951171875,0.0357666015625,0.99755859375
1631118337400,-0.1695556640625,0.03424072265625,0.9910888671875
1631118337460,-0.17144775390625,0.03497314453125,0.97552490234375
1631118337460,-0.1640625,0.03424072265625,0.97808837890625
1631118337476,-0.16522216796875,0.02850341796875,0.98419189453125
1631118337618,-0.18231201171875,0.02020263671875,1.0115966796875
1631118337618,-0.17498779296875,0.024169921875,1.01275634765625
1631118337619,-0.16558837890625,0.0238037109375,1.0035400390625
1631118337815,-0.20184326171875,0.03857421875,0.9921875
1631118337815,-0.213134765625,0.05169677734375,0.96673583984375
1631118337815,-0.19482421875,0.02490234375,1.0
1631118337817,-0.21209716796875,0.06695556640625,0.94610595703125
1631118337817,-0.21124267578125,0.08428955078125,0.93414306640625
1631118337833,-0.18359375,0.02008056640625,0.99566650390625
1631118337895,-0.2564697265625,0.116455078125,0.95074462890625
1631118337896,-0.27154541015625,0.122802734375,0.94793701171875
1631118337896,-0.26727294921875,0.11798095703125,0.9549560546875
1631118338142,-0.234619140625,0.16851806640625,0.92950439453125
1631118338147,-0.24334716796875,0.1724853515625,0.92291259765625
1631118338168,-0.25823974609375,0.16900634765625,0.92919921875
1631118338277,-0.21588134765625,0.138671875,0.96160888671875
1631118338280,-0.2166748046875,0.1405029296875,0.9652099609375
1631118338280,-0.2152099609375,0.13970947265625,0.96368408203125
1631118338354,-0.21728515625,0.14385986328125,0.96612548828125
1631118338355,-0.22039794921875,0.14007568359375,0.971923828125
1631118338356,-0.220458984375,0.14410400390625,0.9708251953125
1631118338397,-0.22283935546875,0.13958740234375,0.97088623046875
1631118338397,-0.22412109375,0.13671875,0.9754638671875
1631118338397,-0.22418212890625,0.1370849609375,0.97210693359375
1631118338427,-0.239013671875,0.1195068359375,0.96270751953125
1631118338440,-0.23779296875,0.11431884765625,0.9554443359375
1631118338440,-0.2369384765625,0.112060546875,0.96148681640625
1631118338465,-0.24432373046875,0.12432861328125,0.94940185546875
1631118338465,-0.242431640625,0.12408447265625,0.94927978515625
1631118338470,-0.2445068359375,0.1260986328125,0.943359375
1631118338506,-0.2449951171875,0.1077880859375,0.96575927734375
1631118338507,-0.244140625,0.11138916015625,0.9610595703125
1631118338509,-0.246337890625,0.10821533203125,0.968017578125
1631118338537,-0.24151611328125,0.09814453125,0.966064453125
1631118338537,-0.24481201171875,0.10296630859375,0.96612548828125
1631118338537,-0.24188232421875,0.09930419921875,0.956787109375
1631118338684,-0.24139404296875,0.103271484375,0.95733642578125
1631118338684,-0.2401123046875,0.101806640625,0.95880126953125
1631118338684,-0.23583984375,0.10272216796875,0.9605712890625
1631118338739,-0.23992919921875,0.1082763671875,0.96435546875
1631118338743,-0.24169921875,0.10968017578125,0.96612548828125
1631118338745,-0.23663330078125,0.11053466796875,0.965576171875
1631118338922,-0.24188232421875,0.11163330078125,0.9617919921875
1631118338923,-0.2427978515625,0.1129150390625,0.95989990234375
1631118338924,-0.2421875,0.11297607421875,0.96429443359375
1631118338959,-0.248779296875,0.1063232421875,0.95782470703125
1631118338960,-0.24798583984375,0.1085205078125,0.95709228515625
1631118338960,-0.249267578125,0.10650634765625,0.95703125
1631118339094,-0.2535400390625,0.1044921875,0.962890625
1631118339097,-0.25286865234375,0.10162353515625,0.953369140625
1631118339098,-0.25604248046875,0.09991455078125,0.9527587890625
1631118339142,-0.25726318359375,0.0947265625,0.9552001953125
1631118339144,-0.2542724609375,0.08746337890625,0.9569091796875
1631118339145,-0.2545166015625,0.08465576171875,0.95233154296875
1631118339163,-0.257080078125,0.08660888671875,0.955322265625
1631118339164,-0.2581787109375,0.085693359375,0.953857421875
1631118339165,-0.261474609375,0.08636474609375,0.95941162109375
1631118339196,-0.2611083984375,0.08966064453125,0.9610595703125
1631118339196,-0.25958251953125,0.0859375,0.955078125
1631118339197,-0.2615966796875,0.0848388671875,0.95489501953125
1631118339580,-0.25653076171875,0.07861328125,0.95361328125
1631118339580,-0.26220703125,0.07720947265625,0.9605712890625
1631118339580,-0.26007080078125,0.07720947265625,0.9630126953125
1631118339648,-0.254150390625,0.0687255859375,0.9608154296875
1631118339648,-0.25726318359375,0.07293701171875,0.9573974609375
