timestamp,ax,ay,az
1631632780769,-0.833687,0.180438,0.402661
1631632780778,-0.848144,0.186965,0.406016
1631632780788,-0.859978,0.194712,0.409859
1631632780798,-0.862845,0.199592,0.41907
1631632780807,-0.853878,0.194529,0.415105
1631632780817,-0.8544269999999999,0.183915,0.41321399999999997
1631632780826,-0.868701,0.17202,0.43249
1631632780836,-0.878522,0.151951,0.449204
1631632780846,-0.894382,0.125477,0.458903
1631632780855,-0.913536,0.102114,0.473726
1631632780865,-0.930311,0.08418,0.488732
1631632780874,-0.9344589999999999,0.068869,0.496601
1631632780884,-0.945561,0.038796,0.498614
1631632780894,-0.951905,0.008539999999999999,0.498797
1631632780903,-0.9456829999999999,-0.020618,0.49324599999999996
1631632780913,-0.937692,-0.053863,0.47665399999999997
1631632780922,-0.945256,-0.086071,0.46646699999999996
1631632780932,-0.9563579999999999,-0.111874,0.472323
1631632780942,-0.958676,-0.131577,0.472018
1631632780951,-0.961299,-0.157685,0.463783
1631632780961,-0.950502,-0.188551,0.447679
1631632780970,-0.923906,-0.226371,0.43005
1631632780980,-0.906216,-0.261446,0.404735
1631632780990,-0.9031049999999999,-0.290726,0.389668
1631632780999,-0.896761,-0.312686,0.389546
1631632781009,-0.885659,-0.31890799999999997,0.384788
1631632781018,-0.874557,-0.33336499999999997,0.373869
1631632781028,-0.870409,-0.35197,0.37002599999999997
1631632781038,-0.867969,-0.37881,0.372344
1631632781047,-0.860649,-0.40485699999999997,0.367464
1631632781057,-0.843447,-0.423889,0.35807
1631632781066,-0.8242929999999999,-0.44212799999999997,0.343613
1631632613008,-0.9372039999999999,-0.078141,0.266509
1631632613018,-0.936411,-0.078324,0.266509
1631632613028,-0.935191,-0.077958,0.265777
1631632613037,-0.933788,-0.078446,0.26596
1631632613047,-0.9335439999999999,-0.077592,0.265289
1631632613056,-0.934032,-0.077653,0.26596
1631632613066,-0.934276,-0.078141,0.266509
1631632613076,-0.935191,-0.076982,0.266875
1631632613085,-0.934886,-0.07686,0.267241
1631632613095,-0.935008,-0.07679899999999999,0.26839999999999997
1631632613104,-0.935557,-0.077836,0.269132
1631632613114,-0.9350689999999999,-0.078202,0.269071
1631632613124,-0.9347639999999999,-0.0793,0.268156
1631632613133,-0.932751,-0.079483,0.269071
1631632613143,-0.9329339999999999,-0.078934,0.270047
1631632613152,-0.932751,-0.078324,0.270108
1631632613162,-0.933727,-0.079544,0.27144999999999997
1631632613172,-0.9333,-0.08113,0.270657
1631632613181,-0.932812,-0.082289,0.269864
1631632613191,-0.9320189999999999,-0.083387,0.269559
1631632613200,-0.931897,-0.083875,0.269254
1631632613210,-0.932812,-0.08497299999999999,0.271572
1631632613220,-0.932751,-0.08418,0.270657
1631632613229,-0.933666,-0.084302,0.27205999999999997
1631632613239,-0.934398,-0.08326499999999999,0.272304
1631632613248,-0.934886,-0.083814,0.27358499999999997
1631632613258,-0.9365939999999999,-0.084119,0.27388999999999997
1631632613268,-0.935557,-0.084729,0.274134
1631632613277,-0.934093,-0.084912,0.27266999999999997
1631632613287,-0.933727,-0.085644,0.27022999999999997
1631632613296,-0.93391,-0.085339,0.26961999999999997
1631632613306,-0.933666,-0.083753,0.26961999999999997
1631632613316,-0.9341539999999999,-0.081801,0.271267
1631632613325,-0.935191,-0.08003199999999999,0.274012
1631632613335,-0.9347639999999999,-0.07747,0.275781
1631632613344,-0.934398,-0.075579,0.275598
1631632613354,-0.932385,-0.076006,0.273707
1631632613364,-0.931226,-0.076555,0.27083999999999997
1631632613373,-0.929945,-0.078934,0.269681
1631632613383,-0.931348,-0.08033699999999999,0.269437
1631632613392,-0.9323239999999999,-0.081191,0.270352
1631632613402,-0.933605,-0.080459,0.270901
1631632613412,-0.93574,-0.079666,0.270962
1631632613421,-0.93574,-0.080398,0.27022999999999997
1631632613431,-0.935496,-0.079483,0.269193
1631632613440,-0.9359839999999999,-0.077531,0.268827
1631632613450,-0.935862,-0.076677,0.268827
1631632613460,-0.935862,-0.076128,0.268522
1631632613469,-0.935191,-0.075457,0.267607
1631632613479,-0.935008,-0.074908,0.267363
1631632613488,-0.9344589999999999,-0.07503,0.268278
1631632613498,-0.9347639999999999,-0.075762,0.268583
1631632613508,-0.934337,-0.076616,0.26900999999999997
1631632613517,-0.93452,-0.079239,0.268949
1631632613527,-0.933605,-0.079056,0.268522
1631632613536,-0.932202,-0.076982,0.267302
1631632613546,-0.932568,-0.07625,0.26779
1631632613556,-0.9323239999999999,-0.077165,0.267119
1631632613565,-0.9338489999999999,-0.077836,0.267485
1631632613575,-0.934825,-0.077897,0.267973
1631632613584,-0.93574,-0.07649399999999999,0.269864
1631632613594,-0.93635,-0.076433,0.269681
1631632613604,-0.936167,-0.07649399999999999,0.268156
1631632613613,-0.935313,-0.07679899999999999,0.267119
1631632613623,-0.935435,-0.077897,0.266021
1631632613632,-0.935801,-0.076677,0.266448
1631632613642,-0.935313,-0.076433,0.265899
1631632613652,-0.936472,-0.076921,0.264618
1631632613661,-0.937082,-0.075945,0.264862
1631632613671,-0.939156,-0.075762,0.264496
1631632613680,-0.939644,-0.075213,0.26535
1631632613690,-0.940071,-0.074542,0.265777
1631632613700,-0.940132,-0.075091,0.266021
1631632613709,-0.937692,-0.074237,0.26535
1631632613719,-0.937387,-0.072041,0.264862
1631632613728,-0.938668,-0.072529,0.265777
1631632613738,-0.939217,-0.071004,0.266387
1631632613748,-0.939949,-0.07124799999999999,0.267912
1631632613757,-0.939827,-0.071126,0.267546
1631632613767,-0.938302,-0.071858,0.266326
1631632613776,-0.93635,-0.071858,0.265777
1631632613786,-0.935496,-0.071492,0.266143
1631632613796,-0.935191,-0.071858,0.266448
1631632613805,-0.9350689999999999,-0.072102,0.267302
1631632613815,-0.93513,-0.072834,0.267973
1631632613824,-0.934581,-0.07356599999999999,0.267851
1631632613834,-0.934398,-0.07381,0.267546
1631632613844,-0.93513,-0.074908,0.268827
1631632613853,-0.935252,-0.075396,0.269132
1631632613863,-0.935191,-0.07618899999999999,0.268278
1631632613872,-0.934642,-0.076433,0.267973
1631632613882,-0.934886,-0.076677,0.269254
1631632613892,-0.935252,-0.07618899999999999,0.269193
1631632613901,-0.935313,-0.076311,0.271084
1631632613911,-0.935496,-0.075884,0.27053499999999997
1631632613920,-0.9359839999999999,-0.075518,0.271633
1631632613930,-0.935618,-0.075152,0.27205999999999997
1631632613940,-0.935313,-0.074847,0.271206
1631632613949,-0.932446,-0.07564,0.27083999999999997
1631632613959,-0.930738,-0.07503,0.269986
1631632613968,-0.930006,-0.074908,0.269986
1631632613978,-0.92964,-0.075884,0.270291
1631632613988,-0.93086,-0.077836,0.268827
1631632613997,-0.93208,-0.078324,0.269864
1631632614007,-0.934398,-0.07942199999999999,0.270962
1631632614016,-0.935618,-0.07911699999999999,0.271633
1631632614026,-0.936228,-0.078812,0.271816
1631632614036,-0.937143,-0.078263,0.271816
1631632614045,-0.93513,-0.07564,0.270291
1631632614055,-0.9341539999999999,-0.074542,0.27053499999999997
1631632614064,-0.935923,-0.07326099999999999,0.272304
1631632614074,-0.935557,-0.070516,0.273768
1631632614084,-0.935801,-0.07015,0.274683
1631632614093,-0.9344589999999999,-0.068381,0.274805
1631632614103,-0.934032,-0.066734,0.27205999999999997
1631632614112,-0.9338489999999999,-0.06649,0.271938
1631632614122,-0.9323239999999999,-0.066063,0.273097
1631632614132,-0.931775,-0.065148,0.274927
1631632614141,-0.932507,-0.066063,0.276452
1631632614151,-0.931958,-0.067527,0.274866
1631632614160,-0.93147,-0.067344,0.273341
1631632614170,-0.9317139999999999,-0.06588,0.273768
1631632614180,-0.933056,-0.067161,0.274012
1631632614189,-0.9353739999999999,-0.066002,0.275659
1631632614199,-0.9356789999999999,-0.065697,0.274134
1631632614208,-0.93391,-0.066856,0.272243
1631632614218,-0.932995,-0.065758,0.270474
1631632614228,-0.935252,-0.066307,0.271084
1631632614237,-0.937082,-0.066429,0.273158
1631632614247,-0.936777,-0.062769,0.276086
1631632614256,-0.937448,-0.054412,0.278526
1631632614266,-0.9384239999999999,-0.047885,0.28041699999999997
1631632614276,-0.939766,-0.047092,0.279868
1631632614285,-0.939156,-0.048312,0.277855
1631632614295,-0.93818,-0.048799999999999996,0.277855
1631632614304,-0.936106,-0.051362,0.274744
1631632614314,-0.933971,-0.053924,0.272548
1631632614324,-0.9326289999999999,-0.050996,0.27266999999999997
1631632614333,-0.935008,-0.047092,0.275476
1631632614343,-0.932263,-0.038369,0.278343
1631632614352,-0.93513,-0.034587,0.279685
1631632614362,-0.936716,-0.031293,0.279258
1631632614372,-0.9333,-0.027694,0.278465
1631632614381,-0.934398,-0.02318,0.277428
1631632614391,-0.930738,-0.021228,0.274805
1631632614400,-0.929701,-0.02196,0.274134
1631632614410,-0.931836,-0.020923,0.276452
1631632614420,-0.930677,-0.021167,0.273524
1631632614429,-0.930616,-0.019032,0.272426
1631632614439,-0.933056,-0.017263,0.275598
1631632614448,-0.936472,-0.014884,0.278282
1631632614458,-0.936472,-0.013237,0.279136
1631632614468,-0.937448,-0.01281,0.278038
1631632614477,-0.937265,-0.012199999999999999,0.276879
1631632614487,-0.9356789999999999,-0.01342,0.274866
1631632614496,-0.936472,-0.012993,0.274317
1631632614506,-0.936533,-0.011163,0.274744
1631632614516,-0.9381189999999999,-0.008418,0.275842
1631632614525,-0.937875,-0.0048189999999999995,0.276757
1631632614535,-0.940376,-0.002562,0.277123
1631632614544,-0.942206,-0.000976,0.276391
1631632614554,-0.9435479999999999,-0.000793,0.275781
1631632614564,-0.942267,0.000915,0.276208
1631632614573,-0.942694,0.002013,0.275598
1631632614583,-0.945195,0.004209,0.278587
1631632614592,-0.9444629999999999,0.005612,0.279441
1631632614602,-0.94672,0.007625,0.280966
1631632614612,-0.94489,0.010735999999999999,0.28121
1631632614621,-0.943792,0.012383,0.281576
1631632614631,-0.941291,0.014884,0.280539
1631632614640,-0.938851,0.016774999999999998,0.278282
1631632614650,-0.938363,0.020679,0.279014
1631632614660,-0.939034,0.020801,0.280234
1631632614669,-0.940071,0.020496,0.281759
1631632614679,-0.939461,0.020374,0.280478
1631632614688,-0.939705,0.02013,0.279014
1631632614698,-0.939156,0.021045,0.278038
1631632614708,-0.94001,0.021471999999999998,0.276574
1631632614717,-0.941779,0.024278,0.275354
1631632614727,-0.9435479999999999,0.025863999999999998,0.274988
1631632614736,-0.948001,0.02928,0.276025
1631632614746,-0.950197,0.031598,0.276208
1631632614756,-0.947452,0.033001,0.273707
1631632614765,-0.942572,0.033062,0.267851
1631632614775,-0.939278,0.035136,0.263398
1631632614784,-0.944524,0.039223,0.264252
1631632614794,-0.9453779999999999,0.04209,0.26291
1631632614804,-0.9606279999999999,0.044225,0.271816
1631632614813,-0.953857,0.047275,0.271084
1631632614823,-0.9526979999999999,0.047092,0.278282
1631632614832,-0.960262,0.048251,0.274927
1631632614842,-0.963678,0.049227,0.276086
1631632614852,-0.961482,0.05246,0.273097
1631632614861,-0.970876,0.047885,0.274744
1631632614871,-0.968253,0.043554,0.2745
1631632614880,-0.9810019999999999,0.033001,0.279624
1631632614890,-0.987773,0.02684,0.289201
1631632614900,-1.001193,0.022935999999999998,0.29243399999999997
1631632614909,-0.9955809999999999,0.026047,0.28914
1631632614919,-0.9937509999999999,0.026474,0.283223
1631632614928,-0.9852719999999999,0.034892,0.287066
1631632614938,-0.986614,0.047335999999999996,0.300181
1631632614948,-0.9852719999999999,0.057034999999999995,0.308843
1631632614957,-0.99308,0.059597,0.316834
1631632614967,-1.003694,0.056974,0.326106
1631632614976,-1.014674,0.050752,0.33488999999999997
1631632614986,-1.012966,0.043798,0.335561
1631632614996,-0.99796,0.041236,0.326289
1631632615005,-0.973316,0.044896,0.317017
1631632615015,-0.975573,0.049349,0.318725
1631632615024,-0.9250039999999999,0.06893,0.32147
1631632615034,-0.914939,0.087596,0.323788
1631632615044,-0.885354,0.11022699999999999,0.335622
1631632615053,-0.884134,0.117913,0.343003
1631632615063,-0.8760209999999999,0.124806,0.352641
1631632615072,-0.8461919999999999,0.143228,0.355508
1631632615082,-0.8504619999999999,0.142069,0.363072
1631632615092,-0.842593,0.154086,0.378017
1631632615101,-0.832955,0.173362,0.392596
1631632615111,-0.8297829999999999,0.18995399999999998,0.405284
1631632615120,-0.827465,0.1891,0.41229899999999997
1631632615130,-0.828929,0.199592,0.423645
1631632615140,-0.830881,0.21551299999999998,0.43493
1631632615149,-0.825879,0.22691999999999998,0.442555
1631632615159,-0.811056,0.235948,0.4453
1631632615168,-0.797575,0.23771699999999998,0.43938299999999997
1631632615178,-0.783301,0.234789,0.436394
1631632615188,-0.7601209999999999,0.230275,0.434747
1631632615197,-0.7503,0.22143,0.438651
1631632615207,-0.7555459999999999,0.210328,0.450546
1631632615216,-0.765184,0.20075099999999999,0.459574
1631632615226,-0.766953,0.187514,0.458232
1631632615236,-0.763659,0.171227,0.449387
1631632615245,-0.766465,0.160186,0.449631
1631632615255,-0.770491,0.152256,0.458171
1631632615264,-0.769637,0.138287,0.458781
1631632615274,-0.7759199999999999,0.121512,0.459574
1631632615284,-0.790682,0.119255,0.46726
1631632615293,-0.80032,0.118157,0.478911
1631632615303,-0.799405,0.111569,0.48007
1631632615312,-0.798856,0.106628,0.482998
1631632615322,-0.797209,0.099857,0.480802
1631632615332,-0.795318,0.093208,0.474397
1631632615341,-0.802333,0.084546,0.477447
1631632615351,-0.814045,0.068808,0.48739
1631632615360,-0.824842,0.049958999999999996,0.496662
1631632615370,-0.831125,0.025436999999999998,0.49977299999999997
1631632615380,-0.840092,0.0071979999999999995,0.503616
1631632615389,-0.8553419999999999,-0.008539999999999999,0.510082
1631632615399,-0.87047,-0.022387,0.515999
1631632615408,-0.8784609999999999,-0.036844,0.521062
1631632615418,-0.870958,-0.047945999999999996,0.520818
1631632615428,-0.854976,-0.058377,0.50691
1631632615437,-0.837286,-0.067832,0.493307
1631632615447,-0.822524,-0.083021,0.475922
1631632615456,-0.817766,-0.105408,0.464576
1631632615466,-0.826062,-0.132553,0.462014
1631632615476,-0.841922,-0.14804699999999998,0.465369
1631632615485,-0.858514,-0.155794,0.47085899999999997
1631632615495,-0.868884,-0.158966,0.46787
1631632615504,-0.850584,-0.151768,0.46097699999999997
1631632615514,-0.857599,-0.147864,0.454389
1631632615524,-0.841068,-0.17885199999999998,0.444202
1631632615533,-0.8474119999999999,-0.225944,0.439261
1631632615543,-0.86254,-0.266814,0.445727
1631632615552,-0.876387,-0.281576,0.452986
1631632615562,-0.889624,-0.28121,0.456768
1631632615572,-0.881328,-0.269132,0.44652
1631632615581,-0.869189,-0.248453,0.433771
1631632615591,-0.850584,-0.219173,0.42919599999999997
1631632615600,-0.83509,-0.197823,0.42919599999999997
1631632615610,-0.823622,-0.195017,0.434015
1631632615620,-0.81191,-0.20984,0.436516
1631632615629,-0.8623569999999999,-0.236009,0.448228
1631632615639,-0.850706,-0.24942899999999998,0.48061899999999996
1631632615648,-0.834297,-0.240584,0.479338
1631632615658,-0.833016,-0.245342,0.481961
1631632615668,-0.817888,-0.237534,0.478301
1631632615677,-0.8714459999999999,-0.262544,0.467748
1631632615687,-0.808738,-0.223504,0.479948
1631632615696,-0.779336,-0.215574,0.482022
1631632615706,-0.780434,-0.224663,0.479826
1631632615716,-0.791536,-0.211914,0.482266
1631632615725,-0.745664,-0.186477,0.466345
1631632615735,-1.013088,-0.225822,0.463356
1631632615744,-1.022482,-0.248575,0.462136
1631632615754,-0.926163,-0.22386999999999999,0.453108
1631632615764,-0.8571719999999999,-0.200812,0.45994
1631632615773,-0.829051,-0.185196,0.46524699999999997
1631632615783,-0.822646,-0.205021,0.479155
1631632615792,-0.862784,-0.225517,0.478545
1631632615802,-0.859978,-0.225334,0.482266
1631632615812,-0.853695,-0.228628,0.473848
1631632615821,-0.839055,-0.222772,0.47451899999999997
1631632615831,-0.8282579999999999,-0.212829,0.470188
1631632615840,-0.824842,-0.207156,0.46665
1631632615850,-0.828075,-0.197457,0.467443
1631632615860,-0.834785,-0.192882,0.46555199999999997
1631632615869,-0.835212,-0.190991,0.46238
1631632615879,-0.838994,-0.190381,0.46543
1631632615888,-0.839726,-0.19025899999999998,0.46341699999999997
1631632615898,-0.856806,-0.197579,0.459696
1631632615908,-0.873459,-0.192638,0.470676
1631632615917,-0.873703,-0.18379299999999998,0.47726399999999997
1631632615927,-0.865346,-0.176534,0.473482
1631632615936,-0.857416,-0.173728,0.468541
1631632615946,-0.859185,-0.159881,0.47092
1631632615956,-0.86071,-0.15006,0.468114
1631632615965,-0.86681,-0.150914,0.455182
1631632615975,-0.876448,-0.148108,0.46707699999999996
1631632615984,-0.879559,-0.139995,0.452742
1631632615994,-0.8516819999999999,-0.134627,0.453779
1631632616004,-0.8605269999999999,-0.132004,0.443714
1631632616013,-0.827099,-0.102602,0.439566
1631632616023,-0.886208,-0.103578,0.428037
1631632616032,-0.915427,-0.10174799999999999,0.43602799999999997
1631632616042,-0.842959,-0.035318999999999996,0.41778899999999997
1631632616052,-1.074576,-0.17812,0.429379
1631632616061,-0.7537159999999999,0.025803,0.345565
1631632616071,-0.9776469999999999,-0.13908,0.405101
1631632616080,-0.738954,0.071309,0.35953399999999996
1631632616090,-0.8863909999999999,-0.048617,0.392779
1631632616100,-0.907192,-0.023729,0.368928
1631632616109,-0.890783,-0.0055509999999999995,0.365268
1631632616119,-0.918477,-0.045566999999999996,0.34892
1631632616128,-0.934215,-0.053924,0.36911099999999997
1631632616138,-0.900299,-0.027023,0.358741
1631632616148,-0.832589,0.033062,0.334097
1631632616157,-0.875228,0.025131999999999998,0.365085
1631632616167,-1.046394,-0.156709,0.356545
1631632616176,-0.755424,0.151463,0.344894
1631632616186,-0.913658,0.013786,0.377895
1631632616196,-0.848449,-0.02745,0.353617
1631632616205,-0.900543,0.008601,0.315675
1631632616215,-0.98637,-0.046604,0.365329
1631632616224,-0.9201239999999999,0.010858,0.338001
1631632616234,-0.901397,0.010065,0.342088
1631632616244,-0.902251,0.008173999999999999,0.34202699999999997
1631632616253,-0.895907,0.011224,0.338001
1631632616263,-0.984418,-0.027389,0.336049
1631632616272,-0.883768,0.027389,0.34507699999999997
1631632616282,-0.879925,0.009455,0.325801
1631632616292,-0.915122,0.006405,0.307989
1631632616301,-0.87718,0.000793,0.32787499999999997
1631632616311,-0.895236,-0.003355,0.329461
1631632616320,-0.908168,-0.006405,0.323117
1631632616330,-0.913353,-0.017263,0.315126
1631632616340,-0.91866,-0.001281,0.31842
1631632616349,-0.9356789999999999,-0.025559,0.330498
1631632616359,-0.902922,-0.019275999999999998,0.32287299999999997
1631632616368,-0.906887,-0.011041,0.32817999999999997
1631632616378,-0.933178,-0.01891,0.335439
1631632616388,-0.900482,-0.023667999999999998,0.306403
1631632616397,-0.9082899999999999,0.014029999999999999,0.287371
1631632616407,-0.918843,-0.014029999999999999,0.301279
1631632616416,-0.879254,-0.139934,0.313296
1631632616426,-0.889807,-0.051179,0.296521
1631632616436,-0.906033,-0.028609,0.306525
1631632616445,-0.912682,-0.03538,0.309209
1631632616455,-0.922808,-0.048434,0.301828
1631632616464,-0.929762,-0.059292,0.296948
1631632616474,-0.947635,-0.078446,0.30872099999999997
1631632616484,-0.955809,-0.07911699999999999,0.315553
1631632616493,-0.970998,-0.077348,0.312625
1631632616503,-0.932873,-0.075335,0.301157
1631632616512,-0.947696,-0.095526,0.31055099999999997
1631632616522,-0.936045,-0.11712,0.318237
1631632616532,-0.922381,-0.149694,0.340868
1631632616541,-0.870165,-0.224724,0.36417
1631632616551,-0.8708359999999999,-0.20618,0.361181
1631632616560,-0.8714459999999999,-0.124074,0.351482
1631632616570,-0.860283,-0.112667,0.331474
1631632616580,-0.869128,-0.130296,0.332999
1631632616589,-0.907253,-0.16043,0.35319
1631632616599,-0.874069,-0.130052,0.347395
1631632616608,-0.774822,-0.110654,0.335195
1631632616618,-1.147715,-0.144021,0.326472
1631632616628,-0.962336,-0.11834,0.336171
1631632616637,-0.927017,-0.10065,0.317749
1631632616647,-0.926041,-0.106872,0.310734
1631632616656,-0.935801,-0.114314,0.30811099999999997
1631632616666,-0.940498,-0.008539999999999999,0.269559
1631632616676,-0.936533,-0.087779,0.286883
1631632616685,-0.920551,-0.090341,0.282735
1631632616695,-0.905606,-0.07503,0.257176
1631632616704,-0.942572,-0.081618,0.271206
1631632616714,-0.963861,-0.073993,0.276635
1631632616724,-0.962824,-0.066246,0.268949
1631632616733,-0.960079,-0.043127,0.250344
1631632616743,-0.97478,-0.002379,0.231678
1631632616752,-0.993385,-0.004209,0.227591
1631632616762,-0.987712,-0.048494999999999996,0.227652
1631632616772,-0.9657519999999999,-0.058072,0.22508999999999998
1631632616781,-0.94367,-0.026900999999999998,0.215086
1631632616791,-0.925065,-0.03294,0.224236
1631632616800,-0.937265,-0.039528,0.234423
1631632616810,-0.93879,-0.044102999999999996,0.23424
1631632616820,-0.9338489999999999,-0.060451,0.222406
1631632616829,-0.939888,-0.049958999999999996,0.217587
1631632616839,-0.934398,-0.064294,0.21246299999999999
1631632616848,-0.9481229999999999,-0.062647,0.21490299999999998
1631632616858,-0.963434,-0.03294,0.208559
1631632616868,-0.9797819999999999,-0.032513,0.216367
1631632616877,-0.9730719999999999,-0.032208,0.21411
1631632616887,-0.9627629999999999,-0.010492,0.205631
1631632616896,-0.9548329999999999,-0.003477,0.20008
1631632616906,-0.96075,0.008173999999999999,0.201544
1631632616916,-0.946842,-0.0042699999999999995,0.202764
1631632616925,-0.932812,-0.014761999999999999,0.19794499999999998
1631632616935,-0.94367,-0.017629,0.198372
1631632616944,-0.952271,-0.017811999999999998,0.198006
1631632616954,-0.961116,-0.014395999999999999,0.190991
1631632616964,-0.96746,-0.010858,0.184037
1631632616973,-0.973255,-0.0064659999999999995,0.185257
1631632616983,-0.97417,-0.0048189999999999995,0.18727
1631632616992,-0.959164,-0.007503,0.180255
1631632617002,-0.954467,-0.0070149999999999995,0.180682
1631632617012,-0.95587,-0.004209,0.17671699999999999
1631632617021,-0.9516,-0.0070149999999999995,0.174826
1631632617031,-0.95648,-0.0008539999999999999,0.174094
1631632617040,-0.963922,0.000305,0.174216
1631632617050,-0.9560529999999999,0.003172,0.167079
1631632617060,-0.9508679999999999,-0.001647,0.163419
1631632617069,-0.953064,-0.009028,0.165371
1631632617079,-0.951112,-0.009333,0.165066
1631632617088,-0.952637,-0.012931999999999999,0.161711
1631632617098,-0.9505629999999999,-0.01647,0.163053
1631632617108,-0.963129,-0.020984,0.169092
1631632617117,-0.953369,-0.026168999999999998,0.174521
1631632617127,-0.946537,-0.036173,0.18361
1631632617136,-0.967399,-0.030866,0.201605
1631632617146,-0.954589,-0.012199999999999999,0.1769
1631632617156,-0.9577,-0.011163,0.131089
1631632617165,-0.998204,-0.014152,0.16591999999999998
1631632617175,-0.960262,-0.072956,0.190686
1631632617184,-0.956602,-0.057462,0.194407
1631632617194,-0.9663619999999999,-0.036417,0.19215
1631632617204,-0.963617,-0.040931,0.20136099999999998
1631632617213,-0.978318,-0.025254,0.20721699999999998
1631632617223,-0.973194,-0.020801,0.199958
1631632617232,-0.946842,-0.028487,0.19983599999999999
1631632617242,-0.891027,-0.051727999999999996,0.18812399999999999
1631632617252,-0.908778,-0.015311,0.145607
1631632617261,-1.182363,0.066917,0.150182
1631632617271,-0.99674,-0.044286,0.17177599999999998
1631632617280,-0.992104,0.022203999999999998,0.18995399999999998
1631632617290,-0.951539,0.026168999999999998,0.203862
1631632617300,-0.940254,0.032147,0.215452
1631632617309,-0.980453,0.024888,0.236375
1631632617319,-0.9320189999999999,0.022692,0.229238
1631632617328,-0.979904,-0.018422,0.250954
1631632617338,-0.901397,0.047824,0.206119
1631632617348,-0.909266,0.055570999999999995,0.230824
1631632617357,-0.9182939999999999,0.059047999999999996,0.24540299999999998
1631632617367,-0.912438,0.050508,0.234118
1631632617376,-0.927566,0.037942,0.223077
1631632617386,-0.93574,0.042822,0.214354
1631632617396,-0.930921,0.045628,0.224907
1631632617405,-0.980514,0.070455,0.20782699999999998
1631632617415,-0.959164,0.050752,0.205021
1631632617424,-0.956175,0.070089,0.196359
1631632617434,-0.9706319999999999,0.063135,0.198555
1631632617444,-0.9505629999999999,0.029096999999999998,0.201788
1631632617453,-0.930921,0.018788,0.221491
1631632617463,-0.940559,0.011467999999999999,0.233325
1631632617472,-0.9384239999999999,0.023546,0.236741
1631632617482,-0.928908,0.037149,0.230275
1631632617492,-0.938058,0.03721,0.235399
1631632617501,-0.9292739999999999,0.002928,0.263093
1631632617511,-0.9240889999999999,-0.019215,0.271267
1631632617520,-0.933056,-0.028853,0.278221
1631632617530,-0.940254,-0.02684,0.281515
1631632617540,-0.9767319999999999,-0.025071,0.299022
1631632617549,-0.956541,-0.012383,0.310795
1631632617559,-0.971425,-0.038491,0.330254
1631632617568,-0.909693,-0.09235399999999999,0.355996
1631632617578,-0.863943,-0.092598,0.378566
1631632617588,-0.8565619999999999,-0.106628,0.395951
1631632617597,-0.8614419999999999,-0.109739,0.401563
1631632617607,-0.8714459999999999,-0.119194,0.422425
1631632617616,-0.8522919999999999,-0.148169,0.451461
1631632617626,-0.823866,-0.164578,0.446947
1631632617636,-0.819413,-0.169519,0.455121
1631632617645,-0.833626,-0.177815,0.471591
1631632617655,-0.841068,-0.195444,0.505141
1631632617664,-0.82777,-0.192455,0.505934
1631632617674,-0.796599,-0.224358,0.523197
1631632617684,-0.779763,-0.24662299999999998,0.523502
1631632617693,-0.783606,-0.26718,0.526247
1631632617703,-0.762683,-0.27694,0.523624
1631632617712,-0.7558509999999999,-0.29487399999999997,0.52948
1631632617722,-0.746152,-0.31354,0.534848
1631632617732,-0.7345619999999999,-0.329583,0.537349
1631632617741,-0.735416,-0.32043299999999997,0.551196
1631632617751,-0.666486,-0.305427,0.521672
1631632617760,-0.597007,-0.305183,0.51423
1631632617770,-0.654774,-0.30866,0.569435
1631632617780,-0.743773,-0.354898,0.598471
1631632617789,-0.683566,-0.34568699999999997,0.57645
1631632617799,-0.670878,-0.351665,0.546804
1631632617808,-0.530578,-0.203618,0.421022
1631632617818,-0.714737,-0.17885199999999998,0.266387
1631632617828,-1.505358,-0.219417,0.480192
1631632617837,-1.189378,-0.168848,0.492453
1631632617847,-0.981856,-0.12456199999999999,0.37515
1631632617856,-0.9520879999999999,-0.120414,0.35136
1631632617866,-0.848205,-0.091683,0.31842
1631632617876,-1.377746,-0.220271,0.361486
1631632617885,-0.944219,-0.103395,0.316895
1631632617895,-0.929457,-0.11041,0.313906
1631632617904,-0.8781559999999999,-0.11992599999999999,0.341295
1631632617914,-1.041758,-0.160491,0.341783
1631632617924,-1.076894,-0.194773,0.402539
1631632617933,-0.827892,-0.135847,0.386008
1631632617943,-0.928786,-0.168726,0.38356799999999996
1631632617952,-1.00467,-0.198189,0.401746
1631632617962,-0.8174,-0.150243,0.380762
1631632617972,-0.851743,-0.145302,0.37637
1631632617981,-0.915122,-0.153171,0.400465
1631632617991,-0.812825,-0.119804,0.400343
1631632618000,-0.8596119999999999,-0.118218,0.40821199999999996
1631632618010,-0.872605,-0.113948,0.422608
1631632618020,-0.829966,-0.092537,0.409798
1631632618029,-0.8357,-0.077653,0.410957
1631632618039,-0.83631,-0.057462,0.417667
1631632618048,-0.8343579999999999,-0.035318999999999996,0.430782
1631632618058,-0.8282579999999999,-0.017506999999999998,0.442372
1631632618068,-0.821243,0.002379,0.44865499999999997
1631632618077,-0.824781,0.013297999999999999,0.455609
1631632618087,-0.824659,0.02196,0.46189199999999997
1631632618096,-0.819596,0.027023,0.459513
1631632618106,-0.815448,0.034526,0.452803
1631632618116,-0.815753,0.042517,0.453169
1631632618125,-0.814472,0.051667,0.455914
1631632618135,-0.812276,0.060207,0.458354
1631632618144,-0.812642,0.068381,0.46677199999999996
1631632618154,-0.808067,0.078446,0.478606
1631632618164,-0.803187,0.08820599999999999,0.48836599999999997
1631632618173,-0.795013,0.092964,0.497577
1631632618183,-0.795989,0.091866,0.505446
1631632618192,-0.79544,0.09436699999999999,0.511241
1631632618202,-0.795196,0.097661,0.513925
1631632618212,-0.79605,0.10187,0.515877
1631632618221,-0.791719,0.10467599999999999,0.515328
1631632618231,-0.7884249999999999,0.108824,0.515755
1631632618240,-0.787693,0.114314,0.517524
1631632618250,-0.775676,0.119133,0.519293
1631632618260,-0.769454,0.127368,0.521794
1631632618269,-0.772809,0.139141,0.530334
1631632618279,-0.784948,0.14823,0.531981
1631632618288,-0.809043,0.147925,0.519964
1631632618298,-0.828014,0.142374,0.510448
1631632618308,-0.8364929999999999,0.142435,0.502152
1631632618317,-0.840275,0.14310599999999998,0.508801
1631632618327,-0.85095,0.144448,0.551135
1631632618336,-0.849913,0.12834399999999999,0.580354
1631632618346,-0.843935,0.12023099999999999,0.581086
1631632618356,-0.840031,0.114131,0.5718139999999999
1631632618365,-0.825696,0.11041,0.544913
1631632618375,-0.80276,0.107848,0.499224
1631632618384,-0.790011,0.10790899999999999,0.475007
1631632618394,-0.7908649999999999,0.106567,0.465125
1631632618404,-0.797819,0.102419,0.46219699999999997
1631632618413,-0.8081889999999999,0.10174799999999999,0.465918
1631632618423,-0.813252,0.10492,0.470188
1631632618432,-0.817095,0.10900699999999999,0.479826
1631632618442,-0.82289,0.108092,0.48745099999999997
1631632618452,-0.819108,0.101077,0.485072
1631632618461,-0.8571719999999999,0.085095,0.475068
1631632618471,-0.818071,0.083692,0.46097699999999997
1631632618480,-0.807762,0.087474,0.449692
1631632618490,-0.8145939999999999,0.091195,0.449692
1631632618500,-0.843081,0.087596,0.46158699999999997
1631632618509,-0.837225,0.08820599999999999,0.471225
1631632618519,-0.8513769999999999,0.083387,0.47763
1631632618528,-0.862174,0.079483,0.48470599999999997
1631632618538,-0.8596119999999999,0.082167,0.487085
1631632618548,-0.880413,0.078873,0.49050099999999996
1631632618557,-0.862113,0.083814,0.488427
1631632618567,-0.8757159999999999,0.082777,0.48348599999999997
1631632618576,-0.87291,0.083692,0.47756899999999997
1631632618586,-0.86742,0.08851099999999999,0.468663
1631632618596,-0.873947,0.092476,0.467016
1631632618605,-0.884744,0.090463,0.4697
1631632618615,-0.885415,0.091622,0.468175
1631632618624,-0.884683,0.09113399999999999,0.464698
1631632618634,-0.892247,0.08906,0.46177
1631632618644,-0.881328,0.091927,0.457927
1631632618653,-0.887367,0.09272,0.452803
1631632618663,-0.893406,0.09333,0.450912
1631632618672,-0.8793759999999999,0.097112,0.444324
1631632618682,-0.87657,0.099003,0.441457
1631632618692,-0.8805959999999999,0.096319,0.436455
1631632618701,-0.881999,0.094794,0.439566
1631632618711,-0.8784609999999999,0.09235399999999999,0.44225
1631632618720,-0.885049,0.084363,0.444507
1631632618730,-0.891454,0.072834,0.44286
1631632618740,-0.886574,0.068076,0.444934
1631632618749,-0.889868,0.058804,0.45261999999999997
1631632618759,-0.884317,0.058316,0.462014
1631632618768,-0.880474,0.059292,0.468053
1631632618778,-0.86803,0.060511999999999996,0.467443
1631632618788,-0.875472,0.052765,0.46372199999999997
1631632618797,-0.8605269999999999,0.049044,0.459086
1631632618807,-0.861076,0.045445,0.455487
1631632618816,-0.850889,0.044652,0.45536499999999996
1631632618826,-0.85522,0.042822,0.454511
1631632618836,-0.848266,0.04392,0.456402
1631632618845,-0.860954,0.038979,0.456768
1631632618855,-0.854976,0.0366,0.45627999999999996
1631632618864,-0.85034,0.032269,0.44773999999999997
1631632618874,-0.864004,0.023851,0.442372
1631632618884,-0.8553419999999999,0.024095,0.44164
1631632618893,-0.867176,0.024949,0.44121299999999997
1631632618903,-0.8629669999999999,0.024704999999999998,0.4453
1631632618912,-0.86925,0.025315,0.447008
1631632618922,-0.873398,0.02562,0.450363
1631632618932,-0.868823,0.030073,0.453108
1631632618941,-0.870104,0.031659,0.455304
1631632618951,-0.865041,0.033184,0.456707
1631632618960,-0.879742,0.03111,0.458293
1631632618970,-0.865285,0.031354,0.459208
1631632618980,-0.878888,0.03111,0.46006199999999997
1631632618989,-0.871934,0.032208,0.462136
1631632618999,-0.87352,0.036417,0.459208
1631632619008,-0.872422,0.038796,0.461038
1631632619018,-0.867847,0.045871999999999996,0.459391
1631632619028,-0.865834,0.04819,0.460001
1631632619037,-0.867969,0.052582,0.459635
1631632619047,-0.8644919999999999,0.055632,0.46250199999999997
1631632619056,-0.85644,0.056608,0.460306
1631632619066,-0.8632719999999999,0.052643,0.46006199999999997
1631632619076,-0.8596119999999999,0.050081,0.45811
1631632619085,-0.860771,0.047030999999999996,0.455243
1631632619095,-0.849669,0.046299,0.450729
1631632619104,-0.8620519999999999,0.039528,0.447557
1631632619114,-0.855159,0.037087999999999996,0.444385
1631632619124,-0.857416,0.03294,0.440359
1631632619133,-0.860588,0.027816,0.440847
1631632619143,-0.860161,0.024949,0.44151799999999997
1631632619152,-0.856623,0.027267,0.443104
1631632619162,-0.868945,0.02562,0.448838
1631632619172,-0.864858,0.02684,0.44865499999999997
1631632619181,-0.872117,0.02135,0.448899
1631632619191,-0.870714,0.018178,0.448777
1631632619200,-0.876753,0.013542,0.449387
1631632619210,-0.874435,0.011224,0.449448
1631632619220,-0.872483,0.009394,0.446703
1631632619229,-0.8741909999999999,0.0070149999999999995,0.447252
1631632619239,-0.872544,0.010553,0.45048499999999997
1631632619248,-0.874862,0.009821,0.45505999999999996
1631632619258,-0.869738,0.011041,0.45597499999999996
1631632619268,-0.8632719999999999,0.012261,0.453108
1631632619277,-0.859978,0.010492,0.452742
1631632619287,-0.853695,0.010126,0.450668
1631632619296,-0.860588,0.0050019999999999995,0.452742
1631632619306,-0.864858,0.000793,0.456524
1631632619316,-0.869555,-0.002806,0.46238
1631632619325,-0.873825,-0.009455,0.46707699999999996
1631632619335,-0.871568,-0.011101999999999999,0.468236
1631632619344,-0.869616,-0.014518,0.46768699999999996
1631632619354,-0.8632719999999999,-0.012444,0.46646699999999996
1631632619364,-0.8596119999999999,-0.011773,0.466894
1631632619373,-0.857294,-0.012261,0.466833
1631632619383,-0.853695,-0.010675,0.46665
1631632619392,-0.853146,-0.010369999999999999,0.46726
1631632619402,-0.852048,-0.009089,0.467016
1631632619412,-0.851865,-0.009333,0.467199
1631632619421,-0.853268,-0.008173999999999999,0.468541
1631632619431,-0.8541219999999999,-0.005124,0.47031
1631632619440,-0.85461,-0.003477,0.469761
1631632619450,-0.8532069999999999,-0.002196,0.469334
1631632619460,-0.851926,0.000976,0.467443
1631632619469,-0.852048,0.003721,0.46543
1631632619479,-0.853756,0.005673,0.46421
1631632619488,-0.854488,0.007259,0.461648
1631632619498,-0.854915,0.006588,0.458415
1631632619508,-0.85522,0.004941,0.456768
1631632619517,-0.858148,0.005978,0.457134
1631632619527,-0.860649,0.00549,0.454084
1631632619536,-0.8620519999999999,0.0062829999999999995,0.452986
1631632619546,-0.863821,0.0059169999999999995,0.452742
1631632619556,-0.866139,0.005856,0.450729
1631632619565,-0.864004,0.006405,0.448594
1631632619575,-0.86803,0.005124,0.445422
1631632619584,-0.868091,0.005978,0.445971
1631632619594,-0.865712,0.009516,0.445483
1631632619604,-0.871385,0.008235,0.445422
1631632619613,-0.865224,0.012931999999999999,0.4453
1631632619623,-0.8738859999999999,0.012565999999999999,0.443165
1631632619632,-0.883219,0.010431,0.444873
1631632619642,-0.867359,0.016347999999999998,0.443531
1631632619652,-0.884134,0.011285,0.443775
1631632619661,-0.879437,0.014152,0.446032
1631632619671,-0.877912,0.016042999999999998,0.444324
1631632619680,-0.884195,0.014457,0.444141
1631632619690,-0.875838,0.016774999999999998,0.443287
1631632619700,-0.883158,0.015677,0.444324
1631632619709,-0.879254,0.018117,0.444507
1631632619719,-0.877485,0.017995,0.445178
1631632619728,-0.881877,0.01647,0.446947
1631632619738,-0.87413,0.018605,0.44652
1631632619748,-0.87962,0.019093,0.445788
1631632619757,-0.8790709999999999,0.019398,0.445971
1631632619767,-0.87413,0.020252,0.442799
1631632619776,-0.8781559999999999,0.018178,0.443531
1631632619786,-0.871019,0.019275999999999998,0.44365299999999996
1631632619796,-0.87413,0.017079999999999998,0.443165
1631632619805,-0.873032,0.014152,0.445605
1631632619815,-0.872422,0.013542,0.447252
1631632619824,-0.873825,0.011285,0.44956999999999997
1631632619834,-0.867969,0.011833999999999999,0.448533
1631632619844,-0.867908,0.011285,0.44987499999999997
1631632619853,-0.865346,0.011467999999999999,0.450668
1631632619863,-0.862418,0.01342,0.450424
1631632619872,-0.863943,0.013115,0.451888
1631632619882,-0.8620519999999999,0.013297999999999999,0.45261999999999997
1631632619892,-0.8632719999999999,0.011163,0.454694
1631632619901,-0.863455,0.011407,0.45475499999999996
1631632619911,-0.862174,0.008905999999999999,0.456402
1631632619920,-0.863821,0.00366,0.454633
1631632619930,-0.8623569999999999,0.00061,0.453352
1631632619940,-0.862845,-0.000183,0.455853
1631632619949,-0.8635769999999999,0.001281,0.457988
1631632619959,-0.86437,0.00183,0.45884199999999997
1631632619968,-0.86376,0.000244,0.45566999999999996
1631632619978,-0.86193,-0.001403,0.45261999999999997
1631632619988,-0.861076,-0.003721,0.448899
1631632619997,-0.863394,-0.006222,0.44743499999999997
1631632620007,-0.863394,-0.009271999999999999,0.444934
1631632620016,-0.866566,-0.012322,0.444507
1631632620026,-0.869982,-0.013969,0.446337
1631632620036,-0.873703,-0.014945,0.448594
1631632620045,-0.876387,-0.014335,0.450302
1631632620055,-0.8772409999999999,-0.013725,0.449997
1631632620064,-0.877607,-0.010735999999999999,0.44834999999999997
1631632620074,-0.878034,-0.008357,0.448838
1631632620084,-0.87535,-0.005246,0.448716
1631632620093,-0.873642,-0.003111,0.448106
1631632620103,-0.872544,-0.000976,0.448411
1631632620112,-0.871385,0.000793,0.447374
1631632620122,-0.869616,0.002623,0.446276
1631632620132,-0.867969,0.003965,0.44469
1631632620141,-0.86681,0.005856,0.445361
1631632620151,-0.867725,0.0070149999999999995,0.446947
1631632620160,-0.869128,0.00793,0.447679
1631632620170,-0.869189,0.008784,0.44895999999999997
1631632620180,-0.867847,0.007869,0.44773999999999997
1631632620189,-0.8732759999999999,0.005124,0.449387
1631632620199,-0.868457,0.005307,0.448716
1631632620208,-0.869433,0.005124,0.449143
1631632620218,-0.868335,0.005673,0.449753
1631632620228,-0.866078,0.005307,0.44743499999999997
1631632620237,-0.866139,0.005612,0.446886
1631632620247,-0.864431,0.006344,0.447984
1631632620256,-0.86681,0.005307,0.448472
1631632620266,-0.866566,0.004697,0.449387
1631632620276,-0.865895,0.004941,0.44926499999999997
1631632620285,-0.866078,0.004209,0.448594
1631632620295,-0.86559,0.005307,0.448777
1631632620304,-0.866322,0.0051849999999999995,0.449631
1631632620314,-0.866993,0.004148,0.45170499999999997
1631632620324,-0.868823,0.004026,0.454267
1631632620333,-0.869433,0.0030499999999999998,0.45444999999999997
1631632620343,-0.868823,0.0026839999999999998,0.455426
1631632620352,-0.869189,0.002074,0.455121
1631632620362,-0.868274,0.001952,0.454023
1631632620372,-0.868335,0.002196,0.454572
1631632620381,-0.866078,0.001281,0.454877
1631632620391,-0.86681,0.001098,0.455487
1631632620400,-0.866566,0.00061,0.455426
1631632620410,-0.866566,0.00042699999999999997,0.454877
1631632620420,-0.865712,-0.001647,0.45261999999999997
1631632620429,-0.864736,-0.0013419999999999999,0.45231499999999997
1631632620439,-0.86498,-0.001281,0.45322999999999997
1631632620448,-0.864919,-0.001464,0.452498
1631632620458,-0.863394,-0.002013,0.450851
1631632620468,-0.862113,-0.00183,0.449204
1631632620477,-0.860466,0.001098,0.447984
1631632620487,-0.8632719999999999,0.0032329999999999998,0.448777
1631632620496,-0.866566,0.0035989999999999998,0.453169
1631632620506,-0.868152,0.004758,0.454023
1631632620516,-0.868884,0.0051849999999999995,0.454206
1631632620525,-0.869067,0.0055509999999999995,0.453657
1631632620535,-0.868579,0.006161,0.452254
1631632620544,-0.867786,0.0060999999999999995,0.451888
1631632620554,-0.867603,0.006954,0.451278
1631632620564,-0.866932,0.006344,0.45139999999999997
1631632620573,-0.867908,0.006344,0.450302
1631632620583,-0.868945,0.0048189999999999995,0.452132
1631632620592,-0.867237,0.00366,0.451522
1631632620602,-0.871507,0.001403,0.452437
1631632620612,-0.866566,0.002257,0.452132
1631632620621,-0.870714,0.000976,0.452071
1631632620631,-0.867054,-0.000122,0.452681
1631632620640,-0.865895,0.0015249999999999999,0.45322999999999997
1631632620650,-0.86742,0.002257,0.45566999999999996
1631632620660,-0.863333,0.004148,0.45353499999999997
1631632620669,-0.863089,0.0015249999999999999,0.448838
1631632620679,-0.860466,0.0017079999999999999,0.447252
1631632620688,-0.862723,-0.000366,0.446276
1631632620698,-0.8641869999999999,-0.003904,0.445483
1631632620708,-0.866505,-0.004026,0.446703
1631632620717,-0.869372,-0.00488,0.448472
1631632620727,-0.870348,-0.0040869999999999995,0.45078999999999997
1631632620736,-0.8711409999999999,-0.003904,0.450973
1631632620746,-0.8717509999999999,-0.0032329999999999998,0.451156
1631632620756,-0.871568,-0.002989,0.449814
1631632620765,-0.870165,-0.000732,0.44926499999999997
1631632620775,-0.869311,0.000549,0.447008
1631632620784,-0.867847,0.000366,0.442006
1631632620794,-0.868579,0.000122,0.44225
1631632620804,-0.869189,0.000976,0.443104
1631632620813,-0.870592,0.002806,0.444446
1631632620823,-0.872788,0.0037819999999999998,0.446215
1631632620832,-0.8744959999999999,0.004575,0.447008
1631632620842,-0.873093,0.004209,0.447069
1631632620852,-0.8714459999999999,0.003111,0.444751
1631632620861,-0.87047,0.0046359999999999995,0.44347
1631632620871,-0.8723609999999999,0.0060999999999999995,0.445178
1631632620880,-0.8714459999999999,0.006527,0.4453
1631632620890,-0.87169,0.005673,0.444324
1631632620900,-0.8720559999999999,0.004148,0.444324
1631632620909,-0.87108,0.0053679999999999995,0.444019
1631632620919,-0.871873,0.006588,0.444934
1631632620928,-0.871507,0.006893,0.444507
1631632620938,-0.869067,0.006771,0.442006
1631632620948,-0.868945,0.006893,0.442494
1631632620957,-0.868213,0.0057339999999999995,0.44182299999999997
1631632620967,-0.868457,0.005978,0.441457
1631632620976,-0.87047,0.0044529999999999995,0.440969
1631632620986,-0.871629,0.003355,0.440176
1631632620996,-0.873398,0.0035989999999999998,0.440359
1631632621005,-0.875594,0.004392,0.440847
1631632621015,-0.8760209999999999,0.006161,0.441091
1631632621024,-0.875472,0.005673,0.442494
1631632621034,-0.878583,0.0057339999999999995,0.442921
1631632621044,-0.8708359999999999,0.007808,0.440542
1631632621053,-0.8760209999999999,0.0057339999999999995,0.44060299999999997
1631632621063,-0.871873,0.0075639999999999995,0.43981
1631632621072,-0.874923,0.00671,0.440725
1631632621082,-0.8751059999999999,0.0066489999999999995,0.44090799999999997
1631632621092,-0.873825,0.006039,0.441945
1631632621101,-0.874557,0.006588,0.442006
1631632621111,-0.873032,0.008905999999999999,0.440542
1631632621120,-0.873459,0.0073809999999999995,0.44042
1631632621130,-0.8705309999999999,0.008601,0.440969
1631632621140,-0.872849,0.007808,0.440969
1631632621149,-0.869128,0.0071979999999999995,0.439322
1631632621159,-0.870897,0.006222,0.441152
1631632621168,-0.872117,0.006893,0.442067
1631632621178,-0.8714459999999999,0.008418,0.441884
1631632621188,-0.871202,0.008662,0.441945
1631632621197,-0.869555,0.009028,0.441945
1631632621207,-0.8708359999999999,0.009516,0.44212799999999997
1631632621216,-0.869555,0.009882,0.443836
1631632621226,-0.8708359999999999,0.009271999999999999,0.443409
1631632621236,-0.86986,0.007442,0.441762
1631632621245,-0.871385,0.0053679999999999995,0.441396
1631632621255,-0.8711409999999999,0.0046359999999999995,0.44164
1631632621264,-0.871019,0.005124,0.44060299999999997
1631632621274,-0.871568,0.004941,0.44060299999999997
1631632621284,-0.871995,0.005246,0.442555
1631632621293,-0.872849,0.005795,0.445056
1631632621303,-0.873093,0.005978,0.444934
1631632621312,-0.872788,0.005673,0.444019
1631632621322,-0.871202,0.00488,0.442982
1631632621332,-0.870653,0.0060999999999999995,0.44225
1631632621341,-0.869616,0.004758,0.441884
1631632621351,-0.868518,0.0059169999999999995,0.442006
1631632621360,-0.869067,0.006161,0.441884
1631632621370,-0.868152,0.0071979999999999995,0.443714
1631632621380,-0.862723,0.006527,0.44347
1631632621389,-0.862601,0.0077469999999999995,0.441457
1631632621399,-0.862296,0.0051849999999999995,0.439444
1631632621408,-0.86315,0.004392,0.43755299999999997
1631632621418,-0.86742,0.00366,0.437614
1631632621428,-0.8711409999999999,0.003843,0.44060299999999997
1631632621437,-0.874618,0.005063,0.44347
1631632621447,-0.876265,0.0046359999999999995,0.445178
1631632621456,-0.876875,0.005246,0.44652
1631632621466,-0.8760209999999999,0.00488,0.446093
1631632621476,-0.8726659999999999,0.0032329999999999998,0.44456799999999996
1631632621485,-0.871812,0.00244,0.44151799999999997
1631632621495,-0.870592,0.002196,0.440481
1631632621504,-0.869555,0.001281,0.43907799999999997
1631632621514,-0.869006,0.001037,0.436577
1631632621524,-0.869799,0.002562,0.439261
1631632621533,-0.872544,0.002257,0.440786
1631632621543,-0.8714459999999999,0.002379,0.44243299999999997
1631632621552,-0.873154,0.0035989999999999998,0.44347
1631632621562,-0.876082,0.0051849999999999995,0.4453
1631632621572,-0.877119,0.005246,0.445971
1631632621581,-0.878522,0.005063,0.446032
1631632621591,-0.877912,0.004392,0.44456799999999996
1631632621600,-0.8784,0.0034159999999999998,0.443226
1631632621610,-0.87596,0.00122,0.441701
1631632621620,-0.87291,0.00244,0.440969
1631632621629,-0.8738859999999999,0.002562,0.440969
1631632621639,-0.873032,0.0034159999999999998,0.440115
1631632621648,-0.872422,0.003294,0.439749
1631632621658,-0.870714,0.003355,0.439139
1631632621668,-0.871324,0.003477,0.440176
1631632621677,-0.871202,0.0044529999999999995,0.440481
1631632621687,-0.871629,0.003721,0.440481
1631632621696,-0.8723,0.0053679999999999995,0.44121299999999997
1631632621706,-0.8729709999999999,0.0062829999999999995,0.44121299999999997
1631632621716,-0.874008,0.0071979999999999995,0.440786
1631632621725,-0.874679,0.007808,0.44273799999999996
1631632621735,-0.872544,0.009821,0.442067
1631632621744,-0.871507,0.009882,0.441091
1631632621754,-0.8705309999999999,0.009699,0.440237
1631632621764,-0.871324,0.00915,0.43968799999999997
1631632621773,-0.872788,0.010431,0.441091
1631632621783,-0.874679,0.010309,0.44225
1631632621792,-0.874008,0.009577,0.441396
1631632621802,-0.874862,0.009394,0.442067
1631632621812,-0.876814,0.010431,0.44273799999999996
1631632621821,-0.875899,0.010003999999999999,0.44273799999999996
1631632621831,-0.874923,0.009333,0.44182299999999997
1631632621840,-0.87291,0.008905999999999999,0.43968799999999997
1631632621850,-0.8714459999999999,0.008784,0.43907799999999997
1631632621860,-0.8699209999999999,0.009699,0.438224
1631632621869,-0.8699209999999999,0.010309,0.437614
1631632621879,-0.869555,0.010248,0.43724799999999997
1631632621888,-0.87169,0.010735999999999999,0.43846799999999997
1631632621898,-0.871995,0.010553,0.43859
1631632621908,-0.87352,0.010797,0.439139
1631632621917,-0.874984,0.010735999999999999,0.439566
1631632621927,-0.873947,0.009089,0.43938299999999997
1631632621936,-0.874557,0.008539999999999999,0.438956
1631632621946,-0.874313,0.007503,0.43755299999999997
1631632621956,-0.876143,0.0073809999999999995,0.438041
1631632621965,-0.876814,0.00671,0.438651
1631632621975,-0.8763259999999999,0.006161,0.440359
1631632621984,-0.874435,0.006344,0.4392
1631632621994,-0.87413,0.0060999999999999995,0.440237
1631632622004,-0.874618,0.006039,0.440664
1631632622013,-0.874069,0.0057339999999999995,0.44121299999999997
1631632622023,-0.873337,0.003111,0.440115
1631632622032,-0.8726659999999999,0.002013,0.440664
1631632622042,-0.8714459999999999,0.00061,0.439139
1631632622052,-0.869799,-0.000183,0.437614
1631632622061,-0.86864,-0.000549,0.434808
1631632622071,-0.869799,0.000549,0.438712
1631632622080,-0.86986,0.00366,0.44395799999999996
1631632622090,-0.870043,0.004209,0.44456799999999996
1631632622100,-0.868884,0.001952,0.441457
1631632622109,-0.868274,-0.000244,0.43859
1631632622119,-0.869616,-0.003355,0.437004
1631632622128,-0.871934,-0.0060999999999999995,0.436089
1631632622138,-0.87291,-0.007137,0.437431
1631632622148,-0.874313,-0.0070149999999999995,0.44029799999999997
1631632622157,-0.8772409999999999,-0.00671,0.443165
1631632622167,-0.879132,-0.0046359999999999995,0.445727
1631632622176,-0.878949,-0.002562,0.444995
1631632622186,-0.877058,-0.001098,0.443531
1631632622196,-0.8741909999999999,-0.001281,0.44212799999999997
1631632622205,-0.871568,-0.00042699999999999997,0.43907799999999997
1631632622215,-0.870287,0.0008539999999999999,0.43846799999999997
1631632622224,-0.869555,0.0008539999999999999,0.43846799999999997
1631632622234,-0.869738,0.002196,0.440054
1631632622244,-0.869738,0.0026839999999999998,0.44103
1631632622253,-0.870348,0.003538,0.442067
1631632622263,-0.8702259999999999,0.002806,0.442372
1631632622272,-0.868152,0.002257,0.440786
1631632622282,-0.869982,0.000244,0.441701
1631632622292,-0.872239,-0.001586,0.439749
1631632622301,-0.873825,-0.002562,0.441274
1631632622311,-0.869738,-0.0025009999999999998,0.442616
1631632622320,-0.873642,-0.0050019999999999995,0.442311
1631632622330,-0.871324,-0.0028669999999999998,0.443165
1631632622340,-0.872849,-0.0026839999999999998,0.44365299999999996
1631632622349,-0.872544,-0.004026,0.44334799999999996
1631632622359,-0.870775,-0.003294,0.442677
1631632622368,-0.873093,-0.005307,0.44164
1631632622378,-0.870958,-0.0050019999999999995,0.441091
1631632622388,-0.871263,-0.005978,0.441152
1631632622397,-0.871202,-0.005063,0.441152
1631632622407,-0.871019,-0.005063,0.440542
1631632622416,-0.872239,-0.006039,0.438956
1631632622426,-0.87169,-0.005246,0.4392
1631632622436,-0.872239,-0.002928,0.439505
1631632622445,-0.8720559999999999,-0.002074,0.43999299999999997
1631632622455,-0.873947,-0.001952,0.441152
1631632622464,-0.877119,-0.001647,0.441762
1631632622474,-0.876692,-0.001098,0.441579
1631632622484,-0.87779,-0.001037,0.441762
1631632622493,-0.8778509999999999,-0.00061,0.44164
1631632622503,-0.877485,0.000122,0.441701
1631632622512,-0.876875,0.000183,0.440481
1631632622522,-0.875228,-0.00042699999999999997,0.439505
1631632622532,-0.8744959999999999,-0.0011589999999999999,0.43737
1631632622541,-0.873459,0.000122,0.43785799999999997
1631632622551,-0.873093,0.000793,0.438224
1631632622560,-0.873093,0.001281,0.438651
1631632622570,-0.873215,0.001098,0.439017
1631632622580,-0.87291,0.002074,0.43938299999999997
1631632622589,-0.8726659999999999,0.00183,0.439627
1631632622599,-0.87108,0.001403,0.439566
1631632622608,-0.8711409999999999,0.0008539999999999999,0.43846799999999997
1631632622618,-0.871019,0.000122,0.438834
1631632622628,-0.870165,-6.1e-05,0.438041
1631632622637,-0.870653,-0.000915,0.43877299999999997
1631632622647,-0.871812,-0.000366,0.439444
1631632622656,-0.872727,-0.000976,0.441762
1631632622666,-0.871812,-0.0017079999999999999,0.441396
1631632622676,-0.8723,-0.003172,0.442372
1631632622685,-0.871873,-0.004209,0.443104
1631632622695,-0.8723,-0.0057339999999999995,0.442982
1631632622704,-0.873093,-0.007442,0.443287
1631632622714,-0.871873,-0.009516,0.441701
1631632622724,-0.87169,-0.010369999999999999,0.44121299999999997
1631632622733,-0.8714459999999999,-0.011529,0.441335
1631632622743,-0.870958,-0.011833999999999999,0.440969
1631632622752,-0.870348,-0.00976,0.442494
1631632622762,-0.871507,-0.008479,0.445849
1631632622772,-0.8711409999999999,-0.006405,0.447862
1631632622781,-0.870592,-0.006527,0.446215
1631632622791,-0.8702259999999999,-0.006893,0.443165
1631632622800,-0.869555,-0.007808,0.44212799999999997
1631632622810,-0.870775,-0.009882,0.44182299999999997
1631632622820,-0.871812,-0.011529,0.442189
1631632622829,-0.873337,-0.011224,0.443531
1631632622839,-0.87474,-0.01159,0.444507
1631632622848,-0.874679,-0.01098,0.4453
1631632622858,-0.874984,-0.010003999999999999,0.447008
1631632622868,-0.8741909999999999,-0.00915,0.44591
1631632622877,-0.871629,-0.0073809999999999995,0.44408
1631632622887,-0.871568,-0.005673,0.444873
1631632622896,-0.870104,-0.0044529999999999995,0.44365299999999996
1631632622906,-0.869494,-0.003904,0.443531
1631632622916,-0.870043,-0.0035989999999999998,0.444019
1631632622925,-0.869189,-0.0034159999999999998,0.443592
1631632622935,-0.86925,-0.0021349999999999997,0.44334799999999996
1631632622944,-0.869372,-0.003111,0.443531
1631632622954,-0.869738,-0.0035989999999999998,0.443775
1631632622964,-0.869494,-0.004148,0.444751
1631632622973,-0.869006,-0.0046359999999999995,0.44426299999999996
1631632622983,-0.870348,-0.003721,0.44304299999999996
1631632622992,-0.871812,-0.003843,0.443287
1631632623002,-0.8699209999999999,-0.004392,0.443836
1631632623012,-0.870348,-0.003904,0.444873
1631632623021,-0.871629,-0.00244,0.446093
1631632623031,-0.869738,-0.001037,0.445544
1631632623040,-0.871263,-0.001281,0.446215
1631632623050,-0.87169,-0.0013419999999999999,0.447313
1631632623060,-0.870592,-0.001647,0.447191
1631632623069,-0.870165,-0.0011589999999999999,0.447008
1631632623079,-0.869006,-0.0013419999999999999,0.446703
1631632623088,-0.869799,-0.002257,0.447679
1631632623098,-0.869799,-0.00244,0.446581
1631632623108,-0.868335,-0.002806,0.445727
1631632623117,-0.868579,-0.000976,0.44712999999999997
1631632623127,-0.867969,-0.000793,0.448106
1631632623136,-0.866261,0.00042699999999999997,0.447374
1631632623146,-0.866688,0.000366,0.447252
1631632623156,-0.867603,0.000244,0.447496
1631632623165,-0.867908,-0.000244,0.448289
1631632623175,-0.86803,-0.000305,0.448228
1631632623184,-0.869738,-0.00042699999999999997,0.449082
1631632623194,-0.869738,-0.0008539999999999999,0.448777
1631632623204,-0.86925,-0.001098,0.449143
1631632623213,-0.868762,-0.000366,0.448106
1631632623223,-0.869189,-0.00042699999999999997,0.44804499999999997
1631632623232,-0.868457,-0.00061,0.448411
1631632623242,-0.868274,-0.0015249999999999999,0.447984
1631632623252,-0.868091,-0.000976,0.447862
1631632623261,-0.868945,0.000488,0.44834999999999997
1631632623271,-0.868274,-0.000366,0.446642
1631632623280,-0.866566,-0.00183,0.446581
1631632623290,-0.865895,-0.0008539999999999999,0.446703
1631632623300,-0.867481,0.00061,0.446581
1631632623309,-0.867847,-0.000305,0.44591
1631632623319,-0.869128,-0.0015249999999999999,0.445117
1631632623328,-0.870165,-0.000915,0.446764
1631632623338,-0.869738,0.0008539999999999999,0.446947
1631632623348,-0.869616,0.002928,0.447862
1631632623357,-0.872483,0.003843,0.44987499999999997
1631632623367,-0.870165,0.0046359999999999995,0.450912
1631632623376,-0.870043,0.004209,0.448533
1631632623386,-0.871568,0.000366,0.449448
1631632623396,-0.867481,-0.000366,0.449082
1631632623405,-0.8720559999999999,-0.003477,0.450668
1631632623415,-0.866444,-0.0050019999999999995,0.44804499999999997
1631632623424,-0.868274,-0.005246,0.450363
1631632623434,-0.867298,-0.004697,0.452803
1631632623444,-0.866139,-0.00366,0.452498
1631632623453,-0.866871,-0.004026,0.452742
1631632623463,-0.863028,-0.004148,0.450546
1631632623472,-0.8632719999999999,-0.0070149999999999995,0.446764
1631632623482,-0.862784,-0.008905999999999999,0.446337
1631632623492,-0.8644919999999999,-0.01098,0.44773999999999997
1631632623501,-0.868762,-0.011712,0.451278
1631632623511,-0.86986,-0.010369999999999999,0.453352
1631632623520,-0.872422,-0.010919,0.455304
1631632623530,-0.871873,-0.011407,0.455731
1631632623540,-0.870653,-0.010675,0.45414499999999997
1631632623549,-0.8702259999999999,-0.011101999999999999,0.45444999999999997
1631632623559,-0.868396,-0.009637999999999999,0.45292499999999997
1631632623568,-0.866566,-0.009637999999999999,0.449631
1631632623578,-0.867237,-0.00915,0.449631
1631632623588,-0.866383,-0.009637999999999999,0.450241
1631632623597,-0.868152,-0.007442,0.452376
1631632623607,-0.868274,-0.0073809999999999995,0.454267
1631632623616,-0.86864,-0.006771,0.456341
1631632623626,-0.865773,-0.004941,0.455426
1631632623636,-0.864675,-0.004758,0.454572
1631632623645,-0.8620519999999999,-0.006344,0.450668
1631632623655,-0.861381,-0.0057339999999999995,0.450363
1631632623664,-0.8635769999999999,-0.006588,0.452681
1631632623674,-0.863394,-0.00793,0.45383999999999997
1631632623684,-0.86132,-0.006954,0.45414499999999997
1631632623693,-0.866017,-0.005612,0.45536499999999996
1631632623703,-0.861625,-0.003538,0.45353499999999997
1631632623712,-0.864248,-0.004209,0.452681
1631632623722,-0.8626619999999999,-0.0037819999999999998,0.453596
1631632623732,-0.863699,-0.005246,0.452376
1631632623741,-0.863516,-0.0055509999999999995,0.452803
1631632623751,-0.863516,-0.005856,0.453108
1631632623760,-0.865468,-0.006893,0.453047
1631632623770,-0.864126,-0.005978,0.452376
1631632623780,-0.8647969999999999,-0.005307,0.45048499999999997
1631632623789,-0.86498,-0.0053679999999999995,0.450058
1631632623799,-0.86681,-0.0048189999999999995,0.45139999999999997
1631632623808,-0.868396,-0.005246,0.451217
1631632623818,-0.868579,-0.005307,0.451827
1631632623828,-0.8720559999999999,-0.0055509999999999995,0.453169
1631632623837,-0.870653,-0.0057339999999999995,0.453474
1631632623847,-0.871873,-0.0051849999999999995,0.452803
1631632623856,-0.8714459999999999,-0.004514,0.451827
1631632623866,-0.868884,-0.00549,0.44895999999999997
1631632623876,-0.86803,-0.0057339999999999995,0.447557
1631632623885,-0.866078,-0.0068319999999999995,0.4453
1631632623895,-0.8651019999999999,-0.0060999999999999995,0.446337
1631632623904,-0.864736,-0.007259,0.446703
1631632623914,-0.865163,-0.008173999999999999,0.447191
1631632623924,-0.868579,-0.00793,0.446764
1631632623933,-0.869677,-0.0068319999999999995,0.448777
1631632623943,-0.871507,-0.00549,0.44865499999999997
1631632623952,-0.8714459999999999,-0.005978,0.448411
1631632623962,-0.869555,-0.006039,0.447008
1631632623972,-0.868457,-0.006527,0.446703
1631632623981,-0.869372,-0.007259,0.44682499999999997
1631632623991,-0.871019,-0.00732,0.446947
1631632624000,-0.871629,-0.0075639999999999995,0.446886
1631632624010,-0.8720559999999999,-0.006954,0.448289
1631632624020,-0.870348,-0.007442,0.446947
1631632624029,-0.87169,-0.007442,0.446703
1631632624039,-0.870287,-0.006039,0.44834999999999997
1631632624048,-0.872239,-0.006344,0.44682499999999997
1631632624058,-0.8726659999999999,-0.0066489999999999995,0.449082
1631632624068,-0.871385,-0.0077469999999999995,0.449326
1631632624077,-0.87596,-0.008418,0.449753
1631632624087,-0.872117,-0.007076,0.449326
1631632624096,-0.8738859999999999,-0.0068319999999999995,0.451278
1631632624106,-0.873459,-0.006222,0.454267
1631632624116,-0.872178,-0.00244,0.454511
1631632624125,-0.867847,-0.0011589999999999999,0.449387
1631632624135,-0.865041,-0.0025009999999999998,0.44682499999999997
1631632624144,-0.861015,-0.0023179999999999997,0.44273799999999996
1631632624154,-0.862601,-0.004392,0.440786
1631632624164,-0.862479,-0.007625,0.442372
1631632624173,-0.86498,-0.0068319999999999995,0.445788
1631632624183,-0.868579,-0.006222,0.44804499999999997
1631632624192,-0.867725,-0.0042699999999999995,0.450912
1631632624202,-0.869433,-0.003172,0.450851
1631632624212,-0.869982,-0.002196,0.451888
1631632624221,-0.868579,-0.0011589999999999999,0.450424
1631632624231,-0.87047,-0.00183,0.448167
1631632624240,-0.868152,-0.002196,0.448106
1631632624250,-0.86803,-0.001952,0.447679
1631632624260,-0.869372,-0.003538,0.44865499999999997
1631632624269,-0.866566,-0.00366,0.446764
1631632624279,-0.867969,-0.005063,0.446703
1631632624288,-0.865956,-0.0046359999999999995,0.447008
1631632624298,-0.867115,-0.0057339999999999995,0.44743499999999997
1631632624308,-0.867969,-0.00549,0.447496
1631632624317,-0.866688,-0.005856,0.447008
1631632624327,-0.866688,-0.007137,0.446764
1631632624336,-0.866505,-0.008296,0.44682499999999997
1631632624346,-0.86681,-0.007991,0.445056
1631632624356,-0.869433,-0.007991,0.446886
1631632624365,-0.86986,-0.008479,0.446764
1631632624375,-0.869799,-0.008052,0.446764
1631632624384,-0.868274,-0.007259,0.446642
1631632624394,-0.86803,-0.008601,0.446337
1631632624404,-0.867847,-0.008723,0.445788
1631632624413,-0.868091,-0.008173999999999999,0.444934
1631632624423,-0.868945,-0.008539999999999999,0.445544
1631632624432,-0.870165,-0.0071979999999999995,0.444995
1631632624442,-0.870653,-0.006588,0.445361
1631632624452,-0.86986,-0.008052,0.445666
1631632624461,-0.87047,-0.007137,0.442982
1631632624471,-0.871507,-0.008235,0.442372
1631632624480,-0.871812,-0.008235,0.44212799999999997
1631632624490,-0.87291,-0.009028,0.443287
1631632624500,-0.872727,-0.009089,0.444751
1631632624509,-0.874984,-0.008601,0.445971
1631632624519,-0.876448,-0.007991,0.445788
1631632624528,-0.874679,-0.007808,0.44469
1631632624538,-0.8744959999999999,-0.006588,0.446642
1631632624548,-0.872788,-0.005063,0.447191
1631632624557,-0.8717509999999999,-0.0057339999999999995,0.451766
1631632624567,-0.8711409999999999,-0.0060999999999999995,0.446032
1631632624576,-0.868213,-0.007686,0.438834
1631632624586,-0.866139,-0.0066489999999999995,0.43615
1631632624596,-0.866688,-0.0073809999999999995,0.436455
1631632624605,-0.869067,-0.006893,0.43816299999999997
1631632624615,-0.869799,-0.0073809999999999995,0.439932
1631632624624,-0.870958,-0.007076,0.440481
1631632624634,-0.87047,-0.0066489999999999995,0.441091
1631632624644,-0.871568,-0.0064659999999999995,0.44212799999999997
1631632624653,-0.872422,-0.004758,0.443897
1631632624663,-0.8720559999999999,-0.0048189999999999995,0.444385
1631632624672,-0.872849,-0.004026,0.4453
1631632624682,-0.873703,-0.0040869999999999995,0.44591
1631632624692,-0.87413,-0.0037819999999999998,0.447313
1631632624701,-0.873947,-0.0050019999999999995,0.446337
1631632624711,-0.872117,-0.0057339999999999995,0.445178
1631632624720,-0.8720559999999999,-0.005612,0.446215
1631632624730,-0.8708359999999999,-0.007076,0.445117
1631632624740,-0.871507,-0.008052,0.444141
1631632624749,-0.8720559999999999,-0.008845,0.445544
1631632624759,-0.8726659999999999,-0.008967,0.448411
1631632624768,-0.873825,-0.008662,0.450912
1631632624778,-0.8732759999999999,-0.008235,0.451217
1631632624788,-0.872117,-0.008662,0.44865499999999997
1631632624797,-0.871934,-0.00976,0.446398
1631632624807,-0.87291,-0.011773,0.445422
1631632624816,-0.873154,-0.013847,0.44426299999999996
1631632624826,-0.8744959999999999,-0.015616,0.445605
1631632624836,-0.8751059999999999,-0.015799,0.447313
1631632624845,-0.875289,-0.01525,0.448289
1631632624855,-0.8748009999999999,-0.013542,0.449082
1631632624864,-0.873642,-0.011101999999999999,0.44773999999999997
1631632624874,-0.871812,-0.008357,0.447374
1631632624884,-0.86925,-0.007076,0.445605
1631632624893,-0.867237,-0.004148,0.44395799999999996
1631632624903,-0.865712,-0.002196,0.44334799999999996
1631632624912,-0.865041,-0.001464,0.44304299999999996
1631632624922,-0.8647969999999999,-0.000183,0.442799
1631632624932,-0.864248,0.001281,0.443287
1631632624941,-0.864919,0.0021349999999999997,0.443226
1631632624951,-0.865163,0.003294,0.44334799999999996
1631632624960,-0.864736,0.0044529999999999995,0.443104
1631632624970,-0.8647969999999999,0.0048189999999999995,0.442067
1631632624980,-0.8662,0.00488,0.44225
1631632624989,-0.865529,0.004941,0.441884
1631632624999,-0.865224,0.006893,0.44212799999999997
1631632625008,-0.866322,0.007686,0.441701
1631632625018,-0.864614,0.007686,0.439627
1631632625028,-0.864736,0.007686,0.43981
1631632625037,-0.865041,0.0073809999999999995,0.439139
1631632625047,-0.866139,0.006893,0.438346
1631632625056,-0.867664,0.005673,0.438285
1631632625066,-0.8702259999999999,0.00488,0.438285
1631632625076,-0.871507,0.004148,0.438224
1631632625085,-0.874008,0.0034159999999999998,0.438712
1631632625095,-0.875594,0.001464,0.438529
1631632625104,-0.8772409999999999,0.0032329999999999998,0.438895
1631632625114,-0.878278,0.002989,0.4392
1631632625124,-0.8784,0.003294,0.441091
1631632625133,-0.880108,0.0046359999999999995,0.440847
1631632625143,-0.87962,0.0040869999999999995,0.44164
1631632625152,-0.879803,0.005124,0.44121299999999997
1631632625162,-0.879193,0.005795,0.44029799999999997
1631632625172,-0.87901,0.005795,0.44042
1631632625181,-0.877607,0.005978,0.440725
1631632625191,-0.87596,0.0062829999999999995,0.44029799999999997
1631632625200,-0.875533,0.005795,0.439505
1631632625210,-0.874252,0.0059169999999999995,0.43846799999999997
1631632625220,-0.873947,0.005673,0.438224
1631632625229,-0.874313,0.005673,0.439139
1631632625239,-0.87413,0.005429,0.437797
1631632625248,-0.87474,0.005612,0.43816299999999997
1631632625258,-0.875167,0.005124,0.438895
1631632625268,-0.8738859999999999,0.005063,0.437797
1631632625277,-0.873093,0.006405,0.436577
1631632625287,-0.871568,0.005612,0.43633299999999997
1631632625296,-0.871995,0.005063,0.435662
1631632625306,-0.872483,0.0055509999999999995,0.436089
1631632625316,-0.8723609999999999,0.005795,0.436394
1631632625325,-0.872544,0.005856,0.43694299999999997
1631632625335,-0.872849,0.00671,0.43663799999999997
1631632625344,-0.873032,0.0068319999999999995,0.436577
1631632625354,-0.87474,0.005612,0.437004
1631632625364,-0.874618,0.004758,0.43676
1631632625373,-0.87474,0.003294,0.436272
1631632625383,-0.874862,0.002562,0.43572299999999997
1631632625392,-0.874252,6.1e-05,0.434686
1631632625402,-0.874862,0.001037,0.43572299999999997
1631632625412,-0.8751059999999999,0.003843,0.436882
1631632625421,-0.874618,0.0057339999999999995,0.439871
1631632625431,-0.874435,0.0051849999999999995,0.43907799999999997
1631632625440,-0.8726659999999999,0.005246,0.437126
1631632625450,-0.8708359999999999,0.003294,0.433649
1631632625460,-0.871202,0.0008539999999999999,0.431514
1631632625469,-0.873337,-0.0025009999999999998,0.430843
1631632625479,-0.8757159999999999,-0.005307,0.431514
1631632625488,-0.875533,-0.006222,0.432734
1631632625498,-0.8781559999999999,-0.0057339999999999995,0.434137
1631632625508,-0.88023,-0.004758,0.435845
1631632625517,-0.8818159999999999,-0.002562,0.437919
1631632625527,-0.8821209999999999,-0.001952,0.438102
1631632625536,-0.882182,-0.000915,0.439017
1631632625546,-0.881145,-0.001586,0.43737
1631632625556,-0.87962,-0.001769,0.435479
1631632625565,-0.8784,-0.002379,0.435235
1631632625575,-0.876082,-0.001769,0.43541799999999997
1631632625584,-0.876692,-0.00244,0.43724799999999997
1631632625594,-0.876204,-0.002013,0.437614
1631632625604,-0.875655,-0.00244,0.437919
1631632625613,-0.874862,-0.0034159999999999998,0.438285
1631632625623,-0.874374,-0.003965,0.437187
1631632625632,-0.87291,-0.004331,0.435052
1631632625642,-0.874618,-0.005795,0.437309
1631632625652,-0.874862,-0.005856,0.437004
1631632625661,-0.8726659999999999,-0.006039,0.436455
1631632625671,-0.873825,-0.004148,0.438224
1631632625680,-0.873825,-0.003477,0.439932
1631632625690,-0.8748009999999999,-0.0034159999999999998,0.44090799999999997
1631632625700,-0.875167,-0.0037819999999999998,0.441152
1631632625709,-0.872605,-0.004575,0.438834
1631632625719,-0.870165,-0.0030499999999999998,0.436577
1631632625728,-0.869616,-0.0013419999999999999,0.43554
1631632625738,-0.867786,0.000366,0.435052
1631632625748,-0.868274,0.001769,0.434503
1631632625757,-0.867969,0.001952,0.435296
1631632625767,-0.867847,0.002196,0.43554
1631632625776,-0.869006,0.001281,0.435052
1631632625786,-0.868884,0.0018909999999999999,0.434381
1631632625796,-0.869189,0.002928,0.434198
1631632625805,-0.871568,0.0035989999999999998,0.434625
1631632625815,-0.874374,0.00366,0.43511299999999997
1631632625824,-0.875228,0.00366,0.43554
1631632625834,-0.876448,0.0046359999999999995,0.43511299999999997
1631632625844,-0.8760209999999999,0.0060999999999999995,0.433283
1631632625853,-0.876692,0.00732,0.433405
1631632625863,-0.878339,0.0073809999999999995,0.432063
1631632625872,-0.879315,0.007076,0.431087
1631632625882,-0.8793759999999999,0.006893,0.430538
1631632625892,-0.880108,0.00732,0.430538
1631632625901,-0.880718,0.007686,0.430233
1631632625911,-0.881877,0.0075639999999999995,0.43041599999999997
1631632625920,-0.8830359999999999,0.0060999999999999995,0.43163599999999996
1631632625930,-0.8818159999999999,0.004514,0.431514
1631632625940,-0.881938,0.004026,0.43133099999999996
1631632625949,-0.88206,0.004514,0.431148
1631632625959,-0.8821209999999999,0.0048189999999999995,0.431392
1631632625968,-0.877973,0.0044529999999999995,0.42980599999999997
1631632625978,-0.879437,0.004331,0.429623
1631632625988,-0.874069,0.007442,0.428952
1631632625997,-0.876997,0.008235,0.430843
1631632626007,-0.875594,0.0073809999999999995,0.43041599999999997
1631632626016,-0.87535,0.0051849999999999995,0.429745
1631632626026,-0.8787659999999999,0.0053679999999999995,0.433527
1631632626036,-0.877424,0.005124,0.434503
1631632626045,-0.880474,0.0034159999999999998,0.435296
1631632626055,-0.877912,0.003294,0.43572299999999997
1631632626064,-0.8781559999999999,0.004941,0.437126
1631632626074,-0.876387,0.006222,0.438956
1631632626084,-0.873154,0.009028,0.436394
1631632626093,-0.870897,0.008235,0.43371
1631632626103,-0.867908,0.007686,0.430599
1631632626112,-0.868213,0.0055509999999999995,0.428342
1631632626122,-0.868518,0.00366,0.428647
1631632626132,-0.871019,0.0025009999999999998,0.42944
1631632626141,-0.875777,0.001403,0.432368
1631632626151,-0.876448,0.001037,0.433039
1631632626160,-0.878034,0.002196,0.434137
1631632626170,-0.87901,0.002623,0.435174
1631632626180,-0.880352,0.0021349999999999997,0.435906
1631632626189,-0.87962,0.0017079999999999999,0.43602799999999997
1631632626199,-0.8796809999999999,0.000915,0.43493
1631632626208,-0.878522,0.000366,0.432429
1631632626218,-0.878339,-0.0018909999999999999,0.429989
1631632626228,-0.877302,-0.002806,0.429562
1631632626237,-0.877302,-0.001403,0.43066
1631632626247,-0.8790709999999999,-0.001586,0.434259
1631632626256,-0.8802909999999999,-0.000793,0.435906
1631632626266,-0.878888,-0.000366,0.435357
1631632626276,-0.878034,-0.0006709999999999999,0.43633299999999997
1631632626285,-0.876143,-0.000549,0.435052
1631632626295,-0.87474,-0.0006709999999999999,0.434503
1631632626304,-0.87474,-0.000732,0.432856
1631632626314,-0.8732759999999999,-0.002257,0.432307
1631632626324,-0.875838,-0.00122,0.433649
1631632626333,-0.873398,-0.001098,0.434808
1631632626343,-0.8766309999999999,-0.001281,0.43432
1631632626352,-0.871812,-0.0011589999999999999,0.433222
1631632626362,-0.875289,-0.001403,0.432734
1631632626372,-0.873093,-0.002196,0.43371
1631632626381,-0.87352,-0.00244,0.432063
1631632626391,-0.8741909999999999,-0.002928,0.432734
1631632626400,-0.872727,-0.0030499999999999998,0.431514
1631632626410,-0.87535,-0.003172,0.43066
1631632626420,-0.874557,-0.0008539999999999999,0.43163599999999996
1631632626429,-0.8769359999999999,0.0,0.433039
1631632626439,-0.877668,0.00061,0.433771
1631632626448,-0.876875,0.001952,0.433039
1631632626458,-0.878522,0.0026839999999999998,0.433954
1631632626468,-0.876387,0.002928,0.434442
1631632626477,-0.877302,0.003904,0.433588
1631632626487,-0.8751059999999999,0.004209,0.4331
1631632626496,-0.8766309999999999,0.0040869999999999995,0.432612
1631632626506,-0.874923,0.003111,0.431087
1631632626516,-0.874435,0.00244,0.43041599999999997
1631632626525,-0.876448,0.0017079999999999999,0.43188
1631632626535,-0.876387,0.0032329999999999998,0.43249
1631632626544,-0.877302,0.002989,0.432368
1631632626554,-0.8772409999999999,0.003172,0.432917
1631632626564,-0.87779,0.004209,0.433161
1631632626573,-0.87779,0.00488,0.432429
1631632626583,-0.87596,0.0060999999999999995,0.43133099999999996
1631632626592,-0.877424,0.004941,0.431453
1631632626602,-0.8748009999999999,0.005307,0.430965
1631632626612,-0.87535,0.0034159999999999998,0.42944
1631632626621,-0.873093,0.002806,0.42919599999999997
1631632626631,-0.874008,0.0040869999999999995,0.430904
1631632626640,-0.874862,0.004209,0.43188
1631632626650,-0.8744959999999999,0.0028669999999999998,0.431697
1631632626660,-0.876875,0.00183,0.434259
1631632626669,-0.87718,0.001403,0.434442
1631632626679,-0.877912,0.001403,0.433283
1631632626688,-0.87657,0.000488,0.432612
1631632626698,-0.875777,-0.00061,0.432368
1631632626708,-0.876448,-0.00183,0.432734
1631632626717,-0.8769359999999999,-0.002074,0.432978
1631632626727,-0.8766309999999999,0.000244,0.434137
1631632626736,-0.8760209999999999,0.001952,0.435601
1631632626746,-0.8763259999999999,0.003294,0.436089
1631632626756,-0.8744959999999999,0.003111,0.435052
1631632626765,-0.87352,0.00183,0.43163599999999996
1631632626775,-0.873154,-0.000183,0.429318
1631632626784,-0.873947,-0.003294,0.42761
1631632626794,-0.876082,-0.0048189999999999995,0.42889099999999997
1631632626804,-0.878949,-0.004514,0.430477
1631632626813,-0.880962,-0.0040869999999999995,0.432124
1631632626823,-0.880962,-0.0025009999999999998,0.433405
1631632626832,-0.882304,-0.002013,0.435052
1631632626842,-0.882487,0.000244,0.43371
1631632626852,-0.88145,0.001403,0.432673
1631632626861,-0.87962,0.0023179999999999997,0.432185
1631632626871,-0.878339,0.0044529999999999995,0.430294
1631632626880,-0.876997,0.0051849999999999995,0.430355
1631632626890,-0.877119,0.006954,0.43005
1631632626900,-0.875838,0.006405,0.43041599999999997
1631632626909,-0.875045,0.006222,0.430843
1631632626919,-0.873032,0.006954,0.42980599999999997
1631632626928,-0.873032,0.005429,0.430172
1631632626938,-0.874008,0.00488,0.429989
1631632626948,-0.874679,0.002562,0.429013
1631632626957,-0.876082,0.002257,0.42919599999999997
1631632626967,-0.877607,0.001098,0.429684
1631632626976,-0.875594,-0.000549,0.42919599999999997
1631632626986,-0.8763259999999999,0.00042699999999999997,0.43194099999999996
1631632626996,-0.877607,0.000549,0.432673
1631632627005,-0.87657,0.000183,0.432612
1631632627015,-0.8760209999999999,0.00122,0.432429
1631632627024,-0.875655,0.0006709999999999999,0.432002
1631632627034,-0.875777,-0.001037,0.430599
1631632627044,-0.8766309999999999,-0.0021349999999999997,0.429684
1631632627053,-0.876143,-0.002379,0.429562
1631632627063,-0.8772409999999999,-0.002623,0.429928
1631632627072,-0.877119,-0.0023179999999999997,0.430782
1631632627082,-0.876997,-0.003904,0.42944
1631632627092,-0.877302,-0.003355,0.429623
1631632627101,-0.878827,-0.0044529999999999995,0.43072099999999997
1631632627111,-0.8790709999999999,-0.0044529999999999995,0.430538
1631632627120,-0.878827,-0.003721,0.429989
1631632627130,-0.880108,-0.003538,0.430599
1631632627140,-0.880657,-0.003538,0.431453
1631632627149,-0.8805959999999999,-0.004697,0.43127
1631632627159,-0.880474,-0.003355,0.43066
1631632627168,-0.880535,-0.003904,0.430172
1631632627178,-0.880108,-0.0032329999999999998,0.430904
1631632627188,-0.8784609999999999,-0.002379,0.430599
1631632627197,-0.878095,-0.002806,0.43041599999999997
1631632627207,-0.878095,-0.002745,0.43072099999999997
1631632627216,-0.87718,-0.002013,0.43163599999999996
1631632627226,-0.876753,-0.001281,0.43072099999999997
1631632627236,-0.876753,-0.00183,0.431575
1631632627245,-0.876692,-0.00183,0.430172
1631632627255,-0.8751059999999999,-0.0028669999999999998,0.430294
1631632627264,-0.874374,-0.003355,0.428464
1631632627274,-0.875045,-0.004148,0.428708
1631632627284,-0.8760209999999999,-0.0055509999999999995,0.429013
1631632627293,-0.876387,-0.005856,0.430172
1631632627303,-0.877058,-0.0066489999999999995,0.429745
1631632627312,-0.8784609999999999,-0.0053679999999999995,0.430782
1631632627322,-0.8784,-0.004331,0.431819
1631632627332,-0.879803,-0.003965,0.433039
1631632627341,-0.879254,-0.002623,0.433954
1631632627351,-0.878095,-0.002928,0.432307
1631632627360,-0.875899,-0.002806,0.432795
1631632627370,-0.876143,-0.004514,0.431514
1631632627380,-0.875533,-0.0050019999999999995,0.429867
1631632627389,-0.875899,-0.0059169999999999995,0.429318
1631632627399,-0.876082,-0.0070149999999999995,0.429379
1631632627408,-0.876204,-0.008539999999999999,0.429562
1631632627418,-0.878949,-0.007808,0.430965
1631632627428,-0.881267,-0.006771,0.435906
1631632627437,-0.88084,-0.0053679999999999995,0.43633299999999997
1631632627447,-0.879925,-0.005124,0.433222
1631632627456,-0.876753,-0.0059169999999999995,0.428769
1631632627466,-0.874008,-0.007686,0.426329
1631632627476,-0.875167,-0.00976,0.423584
1631632627485,-0.8751059999999999,-0.012688,0.424804
1631632627495,-0.877363,-0.012993,0.426634
1631632627504,-0.880169,-0.012688,0.429135
1631632627514,-0.881633,-0.011467999999999999,0.431209
1631632627524,-0.882975,-0.009455,0.431087
1631632627533,-0.8833409999999999,-0.008296,0.431758
1631632627543,-0.8805959999999999,-0.0068319999999999995,0.429684
1631632627552,-0.879437,-0.005063,0.428769
1631632627562,-0.877607,-0.00366,0.427915
1631632627572,-0.8772409999999999,-0.002989,0.429013
1631632627581,-0.876692,-0.002562,0.42889099999999997
1631632627591,-0.875838,-0.002562,0.427244
1631632627600,-0.876753,-0.002257,0.42883
1631632627610,-0.877424,-0.003965,0.42889099999999997
1631632627620,-0.87718,-0.003965,0.428403
1631632627629,-0.8781559999999999,-0.003721,0.428525
1631632627639,-0.877912,-0.003843,0.427427
1631632627648,-0.87962,-0.005246,0.427488
1631632627658,-0.878888,-0.006527,0.427854
1631632627668,-0.878644,-0.005124,0.428098
1631632627677,-0.878949,-0.003965,0.42761
1631632627687,-0.878705,-0.003843,0.427915
1631632627696,-0.8796809999999999,-0.005429,0.427488
1631632627706,-0.879925,-0.006771,0.427732
1631632627716,-0.880169,-0.006344,0.428708
1631632627725,-0.8796809999999999,-0.0068319999999999995,0.428647
1631632627735,-0.879437,-0.007076,0.428342
1631632627744,-0.880108,-0.007991,0.428342
1631632627754,-0.8812059999999999,-0.007137,0.42883
1631632627764,-0.879559,-0.007076,0.429074
1631632627773,-0.879559,-0.00549,0.428952
1631632627783,-0.8784,-0.0042699999999999995,0.429318
1631632627792,-0.878217,-0.004148,0.429867
1631632627802,-0.877668,-0.005063,0.429135
1631632627812,-0.877302,-0.005856,0.430782
1631632627821,-0.879559,-0.005124,0.432063
1631632627831,-0.878949,-0.0051849999999999995,0.432734
1631632627840,-0.87718,-0.00488,0.431514
1631632627850,-0.8760209999999999,-0.0042699999999999995,0.43072099999999997
1631632627860,-0.875777,-0.003294,0.430599
1631632627869,-0.8751059999999999,-0.00366,0.430782
1631632627879,-0.873825,-0.002928,0.430538
1631632627888,-0.8726659999999999,-0.002928,0.430904
1631632627898,-0.872117,-0.002745,0.429379
1631632627908,-0.872422,-0.001952,0.429135
1631632627917,-0.87352,-0.00244,0.42919599999999997
1631632627927,-0.873032,-0.002013,0.42919599999999997
1631632627936,-0.874374,-0.0017079999999999999,0.42980599999999997
1631632627946,-0.873947,-0.001952,0.429745
1631632627956,-0.874557,-0.001769,0.428708
1631632627965,-0.876204,-0.0023179999999999997,0.429013
1631632627975,-0.876814,-0.0030499999999999998,0.42828099999999997
1631632627984,-0.8784609999999999,-0.003355,0.42858599999999997
1631632627994,-0.880718,-0.004148,0.42889099999999997
1631632628004,-0.880962,-0.0046359999999999995,0.429013
1631632628013,-0.88206,-0.005978,0.42883
1631632628023,-0.882304,-0.0062829999999999995,0.42822
1631632628032,-0.881389,-0.0068319999999999995,0.428098
1631632628042,-0.88206,-0.006893,0.427549
1631632628052,-0.88206,-0.006771,0.428952
1631632628061,-0.88145,-0.00549,0.428952
1631632628071,-0.8812059999999999,-0.005978,0.428464
1631632628080,-0.879254,-0.0057339999999999995,0.428708
1631632628090,-0.8787659999999999,-0.005795,0.427183
1631632628100,-0.878583,-0.00732,0.42706099999999997
1631632628109,-0.878583,-0.009089,0.428464
1631632628119,-0.877668,-0.009516,0.42675599999999997
1631632628128,-0.878095,-0.008539999999999999,0.425963
1631632628138,-0.879193,-0.006954,0.428342
1631632628148,-0.879925,-0.0051849999999999995,0.432002
1631632628157,-0.878949,-0.003965,0.432978
1631632628167,-0.8763259999999999,-0.003904,0.428037
1631632628176,-0.8744959999999999,-0.004209,0.425902
1631632628186,-0.87352,-0.006954,0.423584
1631632628196,-0.8748009999999999,-0.008723,0.423828
1631632628205,-0.877912,-0.009699,0.425048
1631632628215,-0.87962,-0.009577,0.424255
1631632628224,-0.88084,-0.009699,0.427122
1631632628234,-0.883768,-0.007991,0.428708
1631632628244,-0.883524,-0.007808,0.429318
1631632628253,-0.8815109999999999,-0.007503,0.429257
1631632628263,-0.880108,-0.0075639999999999995,0.42822
1631632628272,-0.879498,-0.007442,0.427183
1631632628282,-0.878217,-0.0070149999999999995,0.426268
1631632628292,-0.87901,-0.007442,0.42614599999999997
1631632628301,-0.8799859999999999,-0.008052,0.427
1631632628311,-0.880413,-0.007869,0.428525
1631632628320,-0.880718,-0.007686,0.428098
1631632628330,-0.880352,-0.009333,0.43041599999999997
1631632628340,-0.880047,-0.011224,0.42944
1631632628349,-0.8784609999999999,-0.011773,0.427732
1631632628359,-0.878522,-0.012199999999999999,0.428525
1631632628368,-0.879742,-0.013297999999999999,0.429013
1631632628378,-0.879498,-0.013542,0.429135
1631632628388,-0.8784,-0.015067,0.427854
1631632628397,-0.877668,-0.013663999999999999,0.429318
1631632628407,-0.8769359999999999,-0.011467999999999999,0.429318
1631632628416,-0.8751059999999999,-0.009821,0.42828099999999997
1631632628426,-0.874923,-0.009637999999999999,0.427732
1631632628436,-0.874923,-0.008173999999999999,0.42822
1631632628445,-0.876509,-0.0071979999999999995,0.427732
1631632628455,-0.875899,-0.006771,0.427305
1631632628464,-0.875777,-0.006954,0.426634
1631632628474,-0.874984,-0.0051849999999999995,0.425658
1631632628484,-0.87535,-0.0044529999999999995,0.426695
1631632628493,-0.87535,-0.004209,0.42736599999999997
1631632628503,-0.877485,-0.0032329999999999998,0.426878
1631632628512,-0.8778509999999999,-0.0046359999999999995,0.42761
1631632628522,-0.8796809999999999,-0.004758,0.427244
1631632628532,-0.880108,-0.0040869999999999995,0.427427
1631632628541,-0.881694,-0.0046359999999999995,0.427
1631632628551,-0.883097,-0.006588,0.427793
1631632628560,-0.882975,-0.008539999999999999,0.424804
1631632628570,-0.881389,-0.008905999999999999,0.423889
1631632628580,-0.881938,-0.008479,0.424194
1631632628589,-0.8827309999999999,-0.008845,0.424987
1631632628599,-0.8824259999999999,-0.008539999999999999,0.42675599999999997
1631632628608,-0.882853,-0.0077469999999999995,0.42736599999999997
1631632628618,-0.88023,-0.007503,0.42645099999999997
1631632628628,-0.879864,-0.006405,0.42578
1631632628637,-0.879437,-0.0064659999999999995,0.425109
1631632628647,-0.879437,-0.0059169999999999995,0.426024
1631632628656,-0.8796809999999999,-0.0068319999999999995,0.426329
1631632628666,-0.879254,-0.0068319999999999995,0.426268
1631632628676,-0.880962,-0.0068319999999999995,0.426512
1631632628685,-0.8818159999999999,-0.0070149999999999995,0.42553599999999997
1631632628695,-0.88084,-0.00732,0.425658
1631632628704,-0.882182,-0.007686,0.424743
1631632628714,-0.881877,-0.008113,0.426085
1631632628724,-0.8821209999999999,-0.00793,0.425963
1631632628733,-0.880962,-0.0075639999999999995,0.426024
1631632628743,-0.880718,-0.0070149999999999995,0.42639
1631632628752,-0.881572,-0.0059169999999999995,0.426268
1631632628762,-0.882182,-0.006954,0.42517
1631632628772,-0.881084,-0.006588,0.424987
1631632628781,-0.88084,-0.005673,0.426573
1631632628791,-0.881572,-0.004514,0.42797599999999997
1631632628800,-0.879559,-0.003843,0.427854
1631632628810,-0.879925,-0.003965,0.427732
1631632628820,-0.87779,-0.004148,0.42706099999999997
1631632628829,-0.877485,-0.004514,0.427122
1631632628839,-0.8781559999999999,-0.005246,0.426939
1631632628848,-0.875899,-0.003965,0.428464
1631632628858,-0.877302,-0.002562,0.429684
1631632628868,-0.874679,-0.000488,0.429013
1631632628877,-0.8735809999999999,0.000732,0.428525
1631632628887,-0.872422,-0.000549,0.427122
1631632628896,-0.871385,-0.001952,0.42578
1631632628906,-0.872544,-0.003721,0.42462099999999997
1631632628916,-0.873337,-0.005429,0.424682
1631632628925,-0.875655,-0.0064659999999999995,0.425963
1631632628935,-0.87779,-0.005856,0.42883
1631632628944,-0.878095,-0.003965,0.430233
1631632628954,-0.880169,-0.003355,0.431819
1631632628964,-0.879742,-0.002623,0.43127
1631632628973,-0.87901,-0.001586,0.430172
1631632628983,-0.8775459999999999,-0.002562,0.429135
1631632628992,-0.877302,-0.002379,0.428464
1631632629002,-0.877668,-0.002806,0.427305
1631632629012,-0.878888,-0.0037819999999999998,0.42858599999999997
1631632629021,-0.87718,-0.004575,0.429074
1631632629031,-0.8790709999999999,-0.004514,0.429928
1631632629040,-0.878339,-0.00488,0.429318
1631632629050,-0.878644,-0.004697,0.430538
1631632629060,-0.878888,-0.0050019999999999995,0.431087
1631632629069,-0.878522,-0.0042699999999999995,0.430233
1631632629079,-0.8772409999999999,-0.0050019999999999995,0.429989
1631632629088,-0.8751059999999999,-0.005673,0.427915
1631632629098,-0.876143,-0.00488,0.426634
1631632629108,-0.877302,-0.0066489999999999995,0.428708
1631632629117,-0.877119,-0.005673,0.429379
1631632629127,-0.879254,-0.0035989999999999998,0.431209
1631632629136,-0.8787659999999999,-0.002379,0.43163599999999996
1631632629146,-0.877912,-0.0017079999999999999,0.430904
1631632629156,-0.876265,-0.001647,0.430904
1631632629165,-0.8772409999999999,-0.001464,0.43041599999999997
1631632629175,-0.877119,-0.002074,0.43005
1631632629184,-0.8751059999999999,-0.0021349999999999997,0.428708
1631632629194,-0.8757159999999999,-0.001586,0.428952
1631632629204,-0.8763259999999999,-0.0008539999999999999,0.428769
1631632629213,-0.875167,-0.000732,0.42950099999999997
1631632629223,-0.8766309999999999,-0.000793,0.429318
1631632629232,-0.876875,-0.00122,0.429562
1631632629242,-0.87718,-0.0015249999999999999,0.429379
1631632629252,-0.878644,-0.002196,0.429989
1631632629261,-0.87962,-0.00244,0.430904
1631632629271,-0.879559,-0.0025009999999999998,0.430843
1631632629280,-0.879742,-0.0035989999999999998,0.430233
1631632629290,-0.8784609999999999,-0.004209,0.428708
1631632629300,-0.8784,-0.0046359999999999995,0.428464
1631632629309,-0.878095,-0.0035989999999999998,0.42950099999999997
1631632629319,-0.87779,-0.004026,0.429684
1631632629328,-0.878583,-0.004026,0.429257
1631632629338,-0.879437,-0.0037819999999999998,0.42950099999999997
1631632629348,-0.878949,-0.0017079999999999999,0.42919599999999997
1631632629357,-0.878705,-0.0018909999999999999,0.42944
1631632629367,-0.877973,-0.0030499999999999998,0.429379
1631632629376,-0.87779,-0.00366,0.427427
1631632629386,-0.877424,-0.0035989999999999998,0.42578
1631632629396,-0.87718,-0.002074,0.426634
1631632629405,-0.8781559999999999,-0.004209,0.426634
1631632629415,-0.878522,-0.002989,0.42736599999999997
1631632629424,-0.879315,-0.003477,0.427183
1631632629434,-0.878339,-0.003172,0.426878
1631632629444,-0.879498,-0.0030499999999999998,0.427
1631632629453,-0.878522,-0.0026839999999999998,0.427
1631632629463,-0.87718,-0.001769,0.426024
1631632629472,-0.8775459999999999,-0.003172,0.426878
1631632629482,-0.8772409999999999,-0.0040869999999999995,0.426512
1631632629492,-0.877607,-0.006527,0.42523099999999997
1631632629501,-0.878217,-0.0071979999999999995,0.426024
1631632629511,-0.8784,-0.0075639999999999995,0.42523099999999997
1631632629520,-0.879437,-0.006954,0.42639
1631632629530,-0.881999,-0.005429,0.42883
1631632629540,-0.881572,-0.0053679999999999995,0.43005
1631632629549,-0.881267,-0.0064659999999999995,0.430172
1631632629559,-0.880535,-0.007869,0.42822
1631632629568,-0.8793759999999999,-0.007076,0.42858599999999997
1631632629578,-0.879315,-0.00793,0.428525
1631632629588,-0.878522,-0.007808,0.42797599999999997
1631632629597,-0.878644,-0.009089,0.427122
1631632629607,-0.8784,-0.008539999999999999,0.428159
1631632629616,-0.87901,-0.0057339999999999995,0.431148
1631632629626,-0.87779,-0.0050019999999999995,0.431453
1631632629636,-0.8754109999999999,-0.004514,0.428464
1631632629645,-0.875228,-0.005978,0.426878
1631632629655,-0.874862,-0.008539999999999999,0.424804
1631632629664,-0.876814,-0.011407,0.423645
1631632629674,-0.878888,-0.012322,0.42553599999999997
1631632629684,-0.880779,-0.011773,0.42675599999999997
1631632629693,-0.8830359999999999,-0.011101999999999999,0.428769
1631632629703,-0.882914,-0.008723,0.429562
1631632629712,-0.8815109999999999,-0.007137,0.42944
1631632629722,-0.880535,-0.005795,0.42797599999999997
1631632629732,-0.880047,-0.004941,0.427
1631632629741,-0.8799859999999999,-0.0042699999999999995,0.425658
1631632629751,-0.8787659999999999,-0.003172,0.425597
1631632629760,-0.878278,-0.002196,0.425719
1631632629770,-0.877912,-0.002074,0.42639
1631632629780,-0.8781559999999999,-0.0021349999999999997,0.426878
1631632629789,-0.878522,-0.00183,0.427
1631632629799,-0.878644,-0.002074,0.42675599999999997
1631632629808,-0.878217,-0.00244,0.426573
1631632629818,-0.876753,-0.003172,0.425719
1631632629828,-0.8778509999999999,-0.003538,0.426634
1631632629837,-0.8775459999999999,-0.0037819999999999998,0.425048
1631632629847,-0.87779,-0.0051849999999999995,0.425475
1631632629856,-0.879132,-0.006954,0.42462099999999997
1631632629866,-0.878888,-0.008784,0.424804
1631632629876,-0.8784,-0.008479,0.425048
1631632629885,-0.8815109999999999,-0.004941,0.426024
1631632629895,-0.880474,-0.004331,0.425902
1631632629904,-0.881023,-0.00488,0.427793
1631632629914,-0.88023,-0.0060999999999999995,0.427244
1631632629924,-0.8781559999999999,-0.0060999999999999995,0.426634
1631632629933,-0.876509,-0.0064659999999999995,0.42395
1631632629943,-0.875777,-0.007137,0.42309599999999997
1631632629952,-0.876875,-0.0068319999999999995,0.422242
1631632629962,-0.878522,-0.005856,0.423889
1631632629972,-0.8790709999999999,-0.006222,0.42431599999999997
1631632629981,-0.880657,-0.006344,0.423889
1631632629991,-0.880474,-0.0057339999999999995,0.424072
1631632630000,-0.881084,-0.0053679999999999995,0.424194
1631632630010,-0.882182,-0.0053679999999999995,0.424987
1631632630020,-0.883707,-0.004941,0.424133
1631632630029,-0.884134,-0.00549,0.42523099999999997
1631632630039,-0.884622,-0.006344,0.42492599999999997
1631632630048,-0.8848659999999999,-0.006222,0.424987
1631632630058,-0.882182,-0.007869,0.424804
1631632630068,-0.882548,-0.006344,0.423523
1631632630077,-0.8812059999999999,-0.0060999999999999995,0.422791
1631632630087,-0.87962,-0.006588,0.422242
1631632630096,-0.8799859999999999,-0.0057339999999999995,0.422242
1631632630106,-0.880108,-0.00549,0.422791
1631632630116,-0.880108,-0.006405,0.42340099999999997
1631632630125,-0.881145,-0.00549,0.422913
1631632630135,-0.881084,-0.005978,0.421632
1631632630144,-0.881145,-0.0062829999999999995,0.422425
1631632630154,-0.88023,-0.006893,0.422669
1631632630164,-0.880474,-0.006222,0.422547
1631632630173,-0.8812059999999999,-0.005856,0.422547
1631632630183,-0.882365,-0.005673,0.424194
1631632630192,-0.8833409999999999,-0.0068319999999999995,0.424682
1631632630202,-0.88267,-0.0075639999999999995,0.425109
1631632630212,-0.882487,-0.008052,0.42456
1631632630221,-0.881694,-0.00793,0.424804
1631632630231,-0.880169,-0.008418,0.424438
1631632630240,-0.878949,-0.008662,0.423584
1631632630250,-0.878217,-0.007625,0.423523
1631632630260,-0.878034,-0.0075639999999999995,0.423828
1631632630269,-0.878339,-0.007808,0.42462099999999997
1631632630279,-0.878522,-0.008113,0.424194
1631632630288,-0.8784609999999999,-0.009821,0.424499
1631632630298,-0.879742,-0.010735999999999999,0.423462
1631632630308,-0.880108,-0.012565999999999999,0.423767
1631632630317,-0.8809009999999999,-0.012565999999999999,0.424499
1631632630327,-0.880657,-0.011833999999999999,0.42523099999999997
1631632630336,-0.880413,-0.011712,0.425292
1631632630346,-0.879742,-0.011285,0.42553599999999997
1631632630356,-0.880535,-0.010675,0.42706099999999997
1631632630365,-0.879803,-0.010126,0.42645099999999997
1631632630375,-0.879437,-0.010431,0.425658
1631632630384,-0.878278,-0.01159,0.42431599999999997
1631632630394,-0.877607,-0.011407,0.422852
1631632630404,-0.877119,-0.011407,0.421327
1631632630413,-0.877973,-0.010369999999999999,0.421266
1631632630423,-0.880108,-0.009394,0.425292
1631632630432,-0.881755,-0.007991,0.43011099999999997
1631632630442,-0.881084,-0.007442,0.430599
1631632630452,-0.8793759999999999,-0.007808,0.427427
1631632630461,-0.8781559999999999,-0.010003999999999999,0.42517
1631632630471,-0.8766309999999999,-0.013176,0.422242
1631632630480,-0.877912,-0.015311,0.421022
1631632630490,-0.8790709999999999,-0.016836,0.422547
1631632630500,-0.881328,-0.016836,0.42395
1631632630509,-0.883219,-0.016226,0.427122
1631632630519,-0.883707,-0.01464,0.427793
1631632630528,-0.8830359999999999,-0.012322,0.427305
1631632630538,-0.881938,-0.012688,0.427732
1631632630548,-0.881633,-0.012993,0.425963
1631632630557,-0.8812059999999999,-0.012505,0.42553599999999997
1631632630567,-0.879742,-0.01281,0.423645
1631632630576,-0.8790709999999999,-0.013908,0.423889
1631632630586,-0.879559,-0.014457,0.423767
1631632630596,-0.87901,-0.014213,0.424987
1631632630605,-0.879498,-0.014091,0.42553599999999997
1631632630615,-0.878583,-0.014152,0.425353
1631632630624,-0.878644,-0.014701,0.423767
1631632630634,-0.879254,-0.014518,0.42431599999999997
1631632630644,-0.879864,-0.014395999999999999,0.424072
1631632630653,-0.88084,-0.014701,0.424133
1631632630663,-0.882914,-0.015921,0.42523099999999997
1631632630672,-0.882243,-0.014701,0.425902
1631632630682,-0.880962,-0.013176,0.426817
1631632630692,-0.880962,-0.010919,0.42761
1631632630701,-0.878034,-0.010858,0.42614599999999997
1631632630711,-0.87657,-0.011285,0.424987
1631632630720,-0.875228,-0.010919,0.423462
1631632630730,-0.8738859999999999,-0.011467999999999999,0.423157
1631632630740,-0.875838,-0.011529,0.422242
1631632630749,-0.87657,-0.012017,0.42334
1631632630759,-0.878827,-0.012444,0.424377
1631632630768,-0.879437,-0.012688,0.425292
1631632630778,-0.880535,-0.013115,0.425414
1631632630788,-0.881755,-0.014274,0.424865
1631632630797,-0.881938,-0.013481,0.425048
1631632630807,-0.881694,-0.013908,0.42517
1631632630816,-0.8824259999999999,-0.013176,0.42492599999999997
1631632630826,-0.8833409999999999,-0.013725,0.42517
1631632630836,-0.882914,-0.012688,0.42517
1631632630845,-0.882487,-0.012199999999999999,0.424438
1631632630855,-0.881694,-0.013054,0.424987
1631632630864,-0.881267,-0.012383,0.42462099999999997
1631632630874,-0.879925,-0.012383,0.423828
1631632630884,-0.878888,-0.011529,0.422608
1631632630893,-0.8784,-0.010126,0.422486
1631632630903,-0.87901,-0.010675,0.423279
1631632630912,-0.879498,-0.010858,0.42395
1631632630922,-0.8790709999999999,-0.011163,0.424804
1631632630932,-0.880474,-0.011833999999999999,0.423523
1631632630941,-0.879803,-0.011773,0.422913
1631632630951,-0.8799859999999999,-0.011773,0.423035
1631632630960,-0.879559,-0.010735999999999999,0.423462
1631632630970,-0.8799859999999999,-0.010431,0.423584
1631632630980,-0.8809009999999999,-0.010309,0.42431599999999997
1631632630989,-0.882243,-0.010735999999999999,0.42517
1631632630999,-0.88389,-0.011224,0.425597
1631632631008,-0.8833409999999999,-0.011833999999999999,0.42517
1631632631018,-0.882975,-0.011346,0.424682
1631632631028,-0.881084,-0.010492,0.424255
1631632631037,-0.8790709999999999,-0.010248,0.424682
1631632631047,-0.8784,-0.009028,0.425475
1631632631056,-0.8769359999999999,-0.007808,0.425475
1631632631066,-0.87596,-0.008662,0.426207
1631632631076,-0.876082,-0.008967,0.425902
1631632631085,-0.876204,-0.009821,0.42523099999999997
1631632631095,-0.878217,-0.012078,0.426634
1631632631104,-0.8781559999999999,-0.014274,0.424865
1631632631114,-0.878522,-0.015189,0.425353
1631632631124,-0.879803,-0.015372,0.426024
1631632631133,-0.8796809999999999,-0.015616,0.426207
1631632631143,-0.880108,-0.01647,0.426939
1631632631152,-0.8812059999999999,-0.015189,0.427732
1631632631162,-0.88145,-0.015738,0.42828099999999997
1631632631172,-0.880962,-0.016104,0.426573
1631632631181,-0.880352,-0.016347999999999998,0.424865
1631632631191,-0.879864,-0.016531,0.425292
1631632631200,-0.878827,-0.015738,0.42273
1631632631210,-0.8775459999999999,-0.014823,0.421754
1631632631220,-0.878095,-0.013297999999999999,0.42309599999999997
1631632631229,-0.8784,-0.009271999999999999,0.425658
1631632631239,-0.878522,-0.006222,0.427244
1631632631248,-0.877668,-0.0060999999999999995,0.424743
1631632631258,-0.875777,-0.007076,0.422486
1631632631268,-0.877607,-0.009028,0.421998
1631632631277,-0.879498,-0.012078,0.420717
1631632631287,-0.879803,-0.014823,0.419131
1631632631296,-0.881694,-0.015311,0.421022
1631632631306,-0.882304,-0.015799,0.423828
1631632631316,-0.882548,-0.015372,0.424499
1631632631325,-0.881877,-0.013603,0.425597
1631632631335,-0.88023,-0.011407,0.426329
1631632631344,-0.878644,-0.01098,0.42523099999999997
1631632631354,-0.878339,-0.013237,0.423462
1631632631364,-0.877729,-0.013054,0.421693
1631632631373,-0.8781559999999999,-0.013786,0.422181
1631632631383,-0.879315,-0.014518,0.423462
1631632631392,-0.87962,-0.016104,0.425048
1631632631402,-0.88023,-0.017385,0.425048
1631632631412,-0.8802909999999999,-0.018117,0.425109
1631632631421,-0.881938,-0.019764,0.426695
1631632631431,-0.8821209999999999,-0.020007999999999998,0.425719
1631632631440,-0.880779,-0.021533,0.425109
1631632631450,-0.881877,-0.021471999999999998,0.42462099999999997
1631632631460,-0.881328,-0.021716,0.424377
1631632631469,-0.881877,-0.021899,0.424499
1631632631479,-0.882304,-0.022509,0.425048
1631632631488,-0.8805959999999999,-0.02196,0.423462
1631632631498,-0.879437,-0.020313,0.421998
1631632631508,-0.880779,-0.017873,0.42273
1631632631517,-0.881328,-0.017141,0.422974
1631632631527,-0.882609,-0.01586,0.424194
1631632631536,-0.882304,-0.015677,0.42431599999999997
1631632631546,-0.882304,-0.015738,0.423645
1631632631556,-0.882487,-0.014823,0.422852
1631632631565,-0.8827309999999999,-0.015738,0.422486
1631632631575,-0.88328,-0.015372,0.422669
1631632631584,-0.88267,-0.014518,0.422608
1631632631594,-0.881938,-0.014884,0.422852
1631632631604,-0.8827309999999999,-0.015982,0.424682
1631632631613,-0.882182,-0.015738,0.423218
1631632631623,-0.8812059999999999,-0.01464,0.42340099999999997
1631632631632,-0.880047,-0.014518,0.423462
1631632631642,-0.879925,-0.015493999999999999,0.424133
1631632631652,-0.8805959999999999,-0.015677,0.42309599999999997
1631632631661,-0.878888,-0.01525,0.423645
1631632631671,-0.8799859999999999,-0.015311,0.424438
1631632631680,-0.878827,-0.015433,0.42492599999999997
1631632631690,-0.878278,-0.014029999999999999,0.424987
1631632631700,-0.878522,-0.014701,0.424743
1631632631709,-0.879315,-0.01525,0.425292
1631632631719,-0.878888,-0.014884,0.42584099999999997
1631632631728,-0.879437,-0.015006,0.425353
1631632631738,-0.8793759999999999,-0.01464,0.425719
1631632631748,-0.879193,-0.014701,0.42517
1631632631757,-0.87962,-0.013786,0.425597
1631632631767,-0.879437,-0.014029999999999999,0.425902
1631632631776,-0.879193,-0.014457,0.425902
1631632631786,-0.879315,-0.01464,0.42492599999999997
1631632631796,-0.879254,-0.015189,0.424072
1631632631805,-0.878522,-0.015067,0.424499
1631632631815,-0.879437,-0.014091,0.42492599999999997
1631632631824,-0.879742,-0.014395999999999999,0.42462099999999997
1631632631834,-0.8799859999999999,-0.01464,0.424865
1631632631844,-0.880108,-0.014945,0.423889
1631632631853,-0.879925,-0.015127999999999999,0.424377
1631632631863,-0.880352,-0.014518,0.423523
1631632631872,-0.8812059999999999,-0.014945,0.423279
1631632631882,-0.881023,-0.015677,0.424804
1631632631892,-0.881694,-0.016165,0.42462099999999997
1631632631901,-0.882304,-0.016226,0.424194
1631632631911,-0.881633,-0.016409,0.42462099999999997
1631632631920,-0.881023,-0.015555,0.424255
1631632631930,-0.8812059999999999,-0.015433,0.424865
1631632631940,-0.881389,-0.01464,0.42492599999999997
1631632631949,-0.879803,-0.014091,0.42456
1631632631959,-0.8812059999999999,-0.014945,0.425414
1631632631968,-0.8812059999999999,-0.014029999999999999,0.42553599999999997
1631632631978,-0.880047,-0.01464,0.425109
1631632631988,-0.879803,-0.015311,0.425048
1631632631997,-0.88023,-0.017079999999999998,0.42340099999999997
1631632632007,-0.879498,-0.016042999999999998,0.424438
1631632632016,-0.8790709999999999,-0.014029999999999999,0.426024
1631632632026,-0.8796809999999999,-0.01159,0.427488
1631632632036,-0.8787659999999999,-0.011712,0.42706099999999997
1631632632045,-0.876753,-0.011407,0.424865
1631632632055,-0.87596,-0.013603,0.42340099999999997
1631632632064,-0.876265,-0.015982,0.421998
1631632632074,-0.877485,-0.017446,0.4209
1631632632084,-0.878522,-0.017811999999999998,0.421815
1631632632093,-0.879498,-0.016714,0.423523
1631632632103,-0.881877,-0.015799,0.425658
1631632632112,-0.883158,-0.014518,0.42736599999999997
1631632632122,-0.8821209999999999,-0.015555,0.427122
1631632632132,-0.88145,-0.015189,0.426634
1631632632141,-0.8802909999999999,-0.014823,0.425353
1631632632151,-0.87962,-0.014823,0.423767
1631632632160,-0.8790709999999999,-0.015067,0.422303
1631632632170,-0.879498,-0.014945,0.421571
1631632632180,-0.879498,-0.014395999999999999,0.422669
1631632632189,-0.880108,-0.014579,0.424133
1631632632199,-0.880169,-0.014029999999999999,0.425475
1631632632208,-0.879925,-0.014579,0.42553599999999997
1631632632218,-0.880352,-0.014213,0.425475
1631632632228,-0.879925,-0.013542,0.42523099999999997
1631632632237,-0.879498,-0.014029999999999999,0.424194
1631632632247,-0.877912,-0.014274,0.423157
1631632632256,-0.877119,-0.013237,0.423889
1631632632266,-0.878522,-0.014395999999999999,0.422974
1631632632276,-0.878095,-0.014274,0.42309599999999997
1631632632285,-0.8772409999999999,-0.014884,0.421144
1631632632295,-0.87901,-0.013297999999999999,0.42370599999999997
1631632632304,-0.880108,-0.012139,0.42462099999999997
1631632632314,-0.880108,-0.011529,0.424255
1631632632324,-0.8802909999999999,-0.012322,0.424743
1631632632333,-0.880718,-0.013908,0.424499
1631632632343,-0.881328,-0.015127999999999999,0.424255
1631632632352,-0.881633,-0.015738,0.422669
1631632632362,-0.881328,-0.015738,0.42151
1631632632372,-0.8815109999999999,-0.014884,0.422486
1631632632381,-0.8821209999999999,-0.013969,0.424438
1631632632391,-0.88084,-0.013603,0.42395
1631632632400,-0.881633,-0.014091,0.425048
1631632632410,-0.882243,-0.01342,0.425048
1631632632420,-0.8821209999999999,-0.012688,0.42462099999999997
1631632632429,-0.881999,-0.010858,0.424438
1631632632439,-0.882365,-0.010735999999999999,0.425048
1631632632448,-0.883097,-0.01098,0.42675599999999997
1631632632458,-0.883097,-0.010797,0.426878
1631632632468,-0.882914,-0.011163,0.425963
1631632632477,-0.881572,-0.011895,0.42614599999999997
1631632632487,-0.880962,-0.011224,0.424194
1631632632496,-0.879803,-0.01281,0.42401099999999997
1631632632506,-0.878644,-0.012261,0.42395
1631632632516,-0.877119,-0.012565999999999999,0.422974
1631632632525,-0.877424,-0.013176,0.423462
1631632632535,-0.8769359999999999,-0.012261,0.422669
1631632632544,-0.877058,-0.011467999999999999,0.422059
1631632632554,-0.877729,-0.009455,0.422852
1631632632564,-0.878217,-0.008723,0.42395
1631632632573,-0.878949,-0.009394,0.424987
1631632632583,-0.881267,-0.00915,0.425597
1631632632592,-0.8809009999999999,-0.009882,0.424682
1631632632602,-0.8815109999999999,-0.010919,0.422974
1631632632612,-0.8812059999999999,-0.012017,0.422974
1631632632621,-0.879437,-0.012017,0.423157
1631632632631,-0.880352,-0.012261,0.422974
1631632632640,-0.880108,-0.012322,0.422364
1631632632650,-0.87962,-0.012383,0.421998
1631632632660,-0.879864,-0.012688,0.422791
1631632632669,-0.879864,-0.012749,0.421937
1631632632679,-0.8793759999999999,-0.01342,0.422059
1631632632688,-0.880108,-0.015493999999999999,0.421449
1631632632698,-0.881389,-0.016958,0.421144
1631632632708,-0.881694,-0.016836,0.421815
1631632632717,-0.882304,-0.017019,0.421815
1631632632727,-0.881389,-0.017141,0.421937
1631632632736,-0.882304,-0.017506999999999998,0.421449
1631632632746,-0.881755,-0.016836,0.422547
1631632632756,-0.882609,-0.017934,0.42395
1631632632765,-0.882609,-0.018727,0.424072
1631632632775,-0.8821209999999999,-0.019032,0.422974
1631632632784,-0.8824259999999999,-0.019337,0.421876
1631632632794,-0.8805959999999999,-0.020374,0.419436
1631632632804,-0.880535,-0.019764,0.419131
1631632632813,-0.8796809999999999,-0.018117,0.4209
1631632632823,-0.8799859999999999,-0.015982,0.423828
1631632632832,-0.881023,-0.012505,0.426268
1631632632842,-0.879742,-0.012627,0.424682
1631632632852,-0.8793759999999999,-0.01525,0.422425
1631632632861,-0.8787659999999999,-0.018361,0.419436
1631632632871,-0.879132,-0.020191,0.41846
1631632632880,-0.8799859999999999,-0.021716,0.418826
1631632632890,-0.88267,-0.02196,0.420717
1631632632900,-0.885598,-0.021594,0.422852
1631632632909,-0.887428,-0.019764,0.425048
1631632632919,-0.886452,-0.017934,0.425414
1631632632928,-0.885537,-0.017019,0.425048
1631632632938,-0.88267,-0.016714,0.423523
1631632632948,-0.8818159999999999,-0.015493999999999999,0.42212
1631632632957,-0.881145,-0.015555,0.421754
1631632632967,-0.880535,-0.014457,0.420839
1631632632976,-0.879742,-0.014823,0.420961
1631632632986,-0.879559,-0.014395999999999999,0.421754
1631632632996,-0.879498,-0.014579,0.42309599999999997
1631632633005,-0.8787659999999999,-0.014091,0.423584
1631632633015,-0.878522,-0.01464,0.423462
1631632633024,-0.8784,-0.014579,0.421388
1631632633034,-0.877424,-0.015189,0.42151
1631632633044,-0.878583,-0.015372,0.421815
1631632633053,-0.878888,-0.014945,0.422303
1631632633063,-0.880352,-0.015493999999999999,0.423279
1631632633072,-0.8812059999999999,-0.016897,0.424255
1631632633082,-0.87962,-0.015921,0.424133
1631632633092,-0.880169,-0.013786,0.424865
1631632633101,-0.8790709999999999,-0.012017,0.424682
1631632633111,-0.877729,-0.011346,0.42456
1631632633120,-0.876875,-0.010187,0.423584
1631632633130,-0.8766309999999999,-0.010858,0.422913
1631632633140,-0.8769359999999999,-0.01159,0.423279
1631632633149,-0.877119,-0.01098,0.423462
1631632633159,-0.8781559999999999,-0.011101999999999999,0.42273
1631632633168,-0.879132,-0.011101999999999999,0.422608
1631632633178,-0.8809009999999999,-0.011773,0.423889
1631632633188,-0.882487,-0.012871,0.424804
1631632633197,-0.8839509999999999,-0.012871,0.425719
1631632633207,-0.884622,-0.012383,0.425048
1631632633216,-0.885964,-0.012139,0.424743
1631632633226,-0.885232,-0.01281,0.424682
1631632633236,-0.884744,-0.01159,0.42523099999999997
1631632633245,-0.883524,-0.010065,0.424682
1631632633255,-0.882548,-0.009882,0.423828
1631632633264,-0.881694,-0.010858,0.422791
1631632633274,-0.880535,-0.00976,0.422242
1631632633284,-0.8799859999999999,-0.010431,0.422425
1631632633293,-0.880108,-0.009516,0.422486
1631632633303,-0.879437,-0.011285,0.421571
1631632633312,-0.878827,-0.011224,0.420656
1631632633322,-0.8787659999999999,-0.010858,0.421632
1631632633332,-0.8793759999999999,-0.011163,0.421815
1631632633341,-0.88023,-0.011529,0.421937
1631632633351,-0.880535,-0.011833999999999999,0.421388
1631632633360,-0.881084,-0.011895,0.42151
1631632633370,-0.881328,-0.012993,0.421144
1631632633380,-0.881145,-0.011773,0.421022
1631632633389,-0.8824259999999999,-0.01159,0.421876
1631632633399,-0.881999,-0.012139,0.421022
1631632633408,-0.88206,-0.012688,0.42151
1631632633418,-0.881694,-0.013176,0.421632
1631632633428,-0.881328,-0.014395999999999999,0.4209
1631632633437,-0.880962,-0.015555,0.41968
1631632633447,-0.881023,-0.01647,0.419558
1631632633456,-0.880779,-0.016774999999999998,0.419558
1631632633466,-0.8815109999999999,-0.016653,0.420534
1631632633476,-0.880474,-0.01647,0.420961
1631632633485,-0.880169,-0.017506999999999998,0.421205
1631632633495,-0.880169,-0.017934,0.420107
1631632633504,-0.881084,-0.019275999999999998,0.419863
1631632633514,-0.8824259999999999,-0.021471999999999998,0.419985
1631632633524,-0.884134,-0.022448,0.419741
1631632633533,-0.884988,-0.024461,0.41968
1631632633543,-0.88328,-0.026108,0.41846
1631632633552,-0.882792,-0.024217,0.417667
1631632633562,-0.883219,-0.02196,0.421449
1631632633572,-0.884073,-0.019154,0.424072
1631632633581,-0.8824259999999999,-0.017568,0.423828
1631632633591,-0.880474,-0.0183,0.421083
1631632633600,-0.878827,-0.01952,0.41748399999999997
1631632633610,-0.878278,-0.02196,0.41565399999999997
1631632633620,-0.879742,-0.023058,0.415898
1631632633629,-0.881328,-0.02379,0.417423
1631632633639,-0.884073,-0.024522,0.41992399999999996
1631632633648,-0.88572,-0.023607,0.42151
1631632633658,-0.886757,-0.022935999999999998,0.422181
1631632633668,-0.886757,-0.022203999999999998,0.422852
1631632633677,-0.885415,-0.020618,0.422181
1631632633687,-0.8839509999999999,-0.020007999999999998,0.420656
1631632633696,-0.882853,-0.019581,0.419985
1631632633706,-0.8805959999999999,-0.018422,0.41870399999999997
1631632633716,-0.8802909999999999,-0.01769,0.418948
1631632633725,-0.881145,-0.017446,0.419558
1631632633735,-0.881084,-0.0183,0.419497
1631632633744,-0.880718,-0.018422,0.42022899999999996
1631632633754,-0.881145,-0.018117,0.420168
1631632633764,-0.881572,-0.018056,0.419436
1631632633773,-0.8805959999999999,-0.018056,0.419863
1631632633783,-0.880535,-0.017019,0.421083
1631632633792,-0.881389,-0.016409,0.421388
1631632633802,-0.881999,-0.015616,0.421998
1631632633812,-0.882365,-0.014395999999999999,0.422486
1631632633821,-0.880962,-0.01586,0.421754
1631632633831,-0.881267,-0.014029999999999999,0.422364
1631632633840,-0.8805959999999999,-0.012505,0.421327
1631632633850,-0.8790709999999999,-0.011467999999999999,0.419741
1631632633860,-0.8799859999999999,-0.011773,0.4209
1631632633869,-0.880169,-0.012444,0.421449
1631632633879,-0.880535,-0.012139,0.421815
1631632633888,-0.882304,-0.012931999999999999,0.421266
1631632633898,-0.883768,-0.013542,0.421632
1631632633908,-0.884927,-0.015127999999999999,0.421998
1631632633917,-0.8854759999999999,-0.015677,0.421571
1631632633927,-0.8845609999999999,-0.01525,0.421754
1631632633936,-0.884744,-0.014884,0.421449
1631632633946,-0.885232,-0.014091,0.421083
1631632633956,-0.8845,-0.013481,0.42212
1631632633965,-0.883768,-0.013115,0.422974
1631632633975,-0.882365,-0.012688,0.422669
1631632633984,-0.882304,-0.012505,0.42309599999999997
1631632633994,-0.881938,-0.011285,0.423828
1631632634004,-0.881694,-0.010797,0.42340099999999997
1631632634013,-0.87962,-0.010492,0.42273
1631632634023,-0.8787659999999999,-0.009699,0.422242
1631632634032,-0.878644,-0.010553,0.421388
1631632634042,-0.878095,-0.010797,0.421754
1631632634052,-0.877607,-0.011467999999999999,0.420656
1631632634061,-0.8784609999999999,-0.011101999999999999,0.421388
1631632634071,-0.879132,-0.011101999999999999,0.42212
1631632634080,-0.879254,-0.012444,0.422669
1631632634090,-0.878278,-0.012505,0.420961
1631632634100,-0.8781559999999999,-0.012565999999999999,0.420046
1631632634109,-0.87779,-0.012261,0.42029
1631632634119,-0.879437,-0.011101999999999999,0.420168
1631632634128,-0.878705,-0.012565999999999999,0.419985
1631632634138,-0.879254,-0.011833999999999999,0.42022899999999996
1631632634148,-0.879803,-0.011529,0.421144
1631632634157,-0.8805959999999999,-0.011101999999999999,0.421754
1631632634167,-0.8809009999999999,-0.012505,0.421388
1631632634176,-0.88145,-0.014091,0.420534
1631632634186,-0.882243,-0.014274,0.420534
1631632634196,-0.882182,-0.015189,0.420412
1631632634205,-0.881694,-0.015738,0.42022899999999996
1631632634215,-0.882182,-0.015189,0.41992399999999996
1631632634224,-0.882609,-0.015189,0.420717
1631632634234,-0.8839509999999999,-0.01586,0.422547
1631632634244,-0.88389,-0.016958,0.422364
1631632634253,-0.8836459999999999,-0.017751,0.421327
1631632634263,-0.8836459999999999,-0.019154,0.421571
1631632634272,-0.88389,-0.019337,0.421815
1631632634282,-0.882792,-0.020557,0.41968
1631632634292,-0.8824259999999999,-0.020007999999999998,0.421998
1631632634301,-0.882914,-0.017141,0.424865
1631632634311,-0.883402,-0.015677,0.425109
1631632634320,-0.882243,-0.015372,0.424499
1631632634330,-0.8793759999999999,-0.016165,0.421632
1631632634340,-0.877668,-0.017446,0.419375
1631632634349,-0.877058,-0.018239,0.41748399999999997
1631632634359,-0.8784,-0.019337,0.417301
1631632634368,-0.87962,-0.019642,0.41785
1631632634378,-0.881328,-0.019215,0.419192
1631632634388,-0.883707,-0.019337,0.421266
1631632634397,-0.88389,-0.018971,0.422425
1631632634407,-0.88267,-0.017446,0.422242
1631632634416,-0.883707,-0.016042999999999998,0.422242
1631632634426,-0.881572,-0.017019,0.420473
1631632634436,-0.881877,-0.017324,0.41870399999999997
1631632634445,-0.880352,-0.017079999999999998,0.416996
1631632634455,-0.8787659999999999,-0.017751,0.41602
1631632634464,-0.880962,-0.016104,0.418826
1631632634474,-0.88206,-0.015555,0.421632
1631632634484,-0.883463,-0.014274,0.423645
1631632634493,-0.8845609999999999,-0.014274,0.423889
1631632634503,-0.884134,-0.014457,0.422852
1631632634512,-0.882548,-0.01525,0.422303
1631632634522,-0.880474,-0.015493999999999999,0.421754
1631632634532,-0.880474,-0.014761999999999999,0.421144
1631632634541,-0.8805959999999999,-0.015433,0.421327
1631632634551,-0.880169,-0.016531,0.420961
1631632634560,-0.879315,-0.017811999999999998,0.420168
1631632634570,-0.879498,-0.016592,0.420778
1631632634580,-0.88084,-0.015738,0.422303
1631632634589,-0.88023,-0.015311,0.422974
1631632634599,-0.880108,-0.014518,0.421876
1631632634608,-0.87962,-0.014823,0.41961899999999996
1631632634618,-0.878827,-0.01586,0.41907
1631632634628,-0.8799859999999999,-0.015433,0.419436
1631632634637,-0.881877,-0.014579,0.420778
1631632634647,-0.8821209999999999,-0.013603,0.42273
1631632634656,-0.881999,-0.013297999999999999,0.421754
1631632634666,-0.8818159999999999,-0.013054,0.420778
1631632634676,-0.881694,-0.012565999999999999,0.41931399999999996
1631632634685,-0.880962,-0.012688,0.419802
1631632634695,-0.8809009999999999,-0.013054,0.420717
1631632634704,-0.88145,-0.013297999999999999,0.420961
1631632634714,-0.881267,-0.013542,0.421815
1631632634724,-0.883463,-0.015738,0.42151
1631632634733,-0.88023,-0.013603,0.419558
1631632634743,-0.88389,-0.016226,0.420717
1631632634752,-0.880779,-0.014945,0.420839
1631632634762,-0.881938,-0.016531,0.421815
1631632634772,-0.880047,-0.015799,0.421937
1631632634781,-0.87901,-0.015372,0.420778
1631632634791,-0.8818159999999999,-0.017263,0.421022
1631632634800,-0.8809009999999999,-0.016714,0.422364
1631632634810,-0.88328,-0.016714,0.423462
1631632634820,-0.8833409999999999,-0.016409,0.422547
1631632634829,-0.883463,-0.017202,0.422242
1631632634839,-0.882487,-0.017568,0.42334
1631632634848,-0.882487,-0.016958,0.423035
1631632634858,-0.881999,-0.015982,0.423279
1631632634868,-0.8824259999999999,-0.014945,0.424072
1631632634877,-0.88206,-0.014335,0.42370599999999997
1631632634887,-0.8809009999999999,-0.014701,0.423645
1631632634896,-0.8815109999999999,-0.015677,0.422547
1631632634906,-0.881267,-0.016774999999999998,0.422364
1631632634916,-0.8812059999999999,-0.017202,0.422913
1631632634925,-0.881267,-0.016897,0.422852
1631632634935,-0.879864,-0.016347999999999998,0.422547
1631632634944,-0.88023,-0.01525,0.424499
1631632634954,-0.879498,-0.014761999999999999,0.425292
1631632634964,-0.880352,-0.013725,0.426207
1631632634973,-0.879864,-0.014274,0.426634
1631632634983,-0.878705,-0.015127999999999999,0.425292
1631632634992,-0.878339,-0.01525,0.425414
1631632635002,-0.877363,-0.015311,0.425353
1631632635012,-0.8781559999999999,-0.015372,0.424804
1631632635021,-0.87901,-0.014274,0.42614599999999997
1631632635031,-0.878644,-0.011529,0.428708
1631632635040,-0.87779,-0.00976,0.43072099999999997
1631632635050,-0.875838,-0.008723,0.428342
1631632635060,-0.872788,-0.010309,0.423462
1631632635069,-0.873032,-0.013054,0.421449
1631632635079,-0.874252,-0.018117,0.418826
1631632635088,-0.8751059999999999,-0.020374,0.418826
1631632635098,-0.879498,-0.022143,0.420961
1631632635108,-0.881389,-0.021899,0.42492599999999997
1631632635117,-0.884439,-0.020923,0.426512
1631632635127,-0.885598,-0.018788,0.427488
1631632635136,-0.886818,-0.0183,0.42858599999999997
1631632635146,-0.885049,-0.018361,0.428403
1631632635156,-0.883524,-0.018361,0.42614599999999997
1631632635165,-0.88206,-0.019093,0.42578
1631632635175,-0.880779,-0.019032,0.424255
1631632635184,-0.880352,-0.018056,0.42340099999999997
1631632635194,-0.8793759999999999,-0.017934,0.42431599999999997
1631632635204,-0.879254,-0.017934,0.42578
1631632635213,-0.878705,-0.01769,0.425963
1631632635223,-0.876875,-0.017202,0.42578
1631632635232,-0.8772409999999999,-0.018239,0.424682
1631632635242,-0.877119,-0.017751,0.424133
1631632635252,-0.877668,-0.018178,0.424865
1631632635261,-0.878522,-0.019886,0.425902
1631632635271,-0.879193,-0.021167,0.42578
1631632635280,-0.880657,-0.022997,0.42614599999999997
1631632635290,-0.87901,-0.023424,0.425719
1631632635300,-0.879559,-0.020191,0.426329
1631632635309,-0.879193,-0.018361,0.427488
1631632635319,-0.878339,-0.018666,0.427305
1631632635328,-0.8778509999999999,-0.017934,0.42645099999999997
1631632635338,-0.876692,-0.017446,0.426268
1631632635348,-0.87596,-0.018178,0.426329
1631632635357,-0.876692,-0.018178,0.426329
1631632635367,-0.8766309999999999,-0.018422,0.426207
1631632635376,-0.8781559999999999,-0.018117,0.42639
1631632635386,-0.878827,-0.01769,0.42736599999999997
1631632635396,-0.8793759999999999,-0.018056,0.427305
1631632635405,-0.879803,-0.018361,0.428159
1631632635415,-0.8796809999999999,-0.01891,0.428708
1631632635424,-0.8793759999999999,-0.019032,0.42822
1631632635434,-0.87779,-0.017995,0.429989
1631632635444,-0.8772409999999999,-0.017995,0.428708
1631632635453,-0.877729,-0.019154,0.429074
1631632635463,-0.8775459999999999,-0.019764,0.429379
1631632635472,-0.877973,-0.020557,0.42980599999999997
1631632635482,-0.8772409999999999,-0.019947,0.42944
1631632635492,-0.87657,-0.020984,0.430172
1631632635501,-0.876692,-0.020069,0.430599
1631632635511,-0.877912,-0.021106,0.429745
1631632635520,-0.8784609999999999,-0.019825,0.430599
1631632635530,-0.87779,-0.019764,0.42950099999999997
1631632635540,-0.87718,-0.020252,0.42919599999999997
1631632635549,-0.876814,-0.020923,0.428952
1631632635559,-0.876997,-0.019764,0.428403
1631632635568,-0.877912,-0.019642,0.429562
1631632635578,-0.878522,-0.017934,0.430294
1631632635588,-0.8790709999999999,-0.017202,0.43041599999999997
1631632635597,-0.877912,-0.017324,0.42828099999999997
1631632635607,-0.877912,-0.017385,0.428037
1631632635616,-0.877729,-0.018543999999999998,0.428464
1631632635626,-0.877729,-0.017934,0.427732
1631632635636,-0.8787659999999999,-0.019154,0.428098
1631632635645,-0.879498,-0.018666,0.428647
1631632635655,-0.8787659999999999,-0.017995,0.428342
1631632635664,-0.879132,-0.017506999999999998,0.429135
1631632635674,-0.8793759999999999,-0.016592,0.428403
1631632635684,-0.879437,-0.017811999999999998,0.428525
1631632635693,-0.878095,-0.017934,0.429074
1631632635703,-0.878888,-0.017995,0.42950099999999997
1631632635712,-0.87901,-0.020007999999999998,0.427488
1631632635722,-0.877729,-0.020984,0.426634
1631632635732,-0.877607,-0.022935999999999998,0.424804
1631632635741,-0.877058,-0.022509,0.424194
1631632635751,-0.878034,-0.021716,0.426817
1631632635760,-0.8793759999999999,-0.019642,0.430904
1631632635770,-0.879132,-0.016836,0.43249
1631632635780,-0.877668,-0.017385,0.430599
1631632635789,-0.8763259999999999,-0.019154,0.426085
1631632635799,-0.8751059999999999,-0.021167,0.42492599999999997
1631632635808,-0.876692,-0.024339,0.423889
1631632635818,-0.87779,-0.027327999999999998,0.424987
1631632635828,-0.879498,-0.028243,0.42767099999999997
1631632635837,-0.881328,-0.027389,0.42944
1631632635847,-0.881084,-0.027084,0.429867
1631632635856,-0.88145,-0.025498,0.430294
1631632635866,-0.8802909999999999,-0.024827,0.42883
1631632635876,-0.878278,-0.024339,0.426695
1631632635885,-0.87718,-0.024095,0.426573
1631632635895,-0.876509,-0.023912,0.426024
1631632635904,-0.87718,-0.025436999999999998,0.426512
1631632635914,-0.878095,-0.025863999999999998,0.42706099999999997
1631632635924,-0.879193,-0.025071,0.42614599999999997
1631632635933,-0.878888,-0.026779,0.425658
1631632635943,-0.878888,-0.026047,0.42584099999999997
1631632635952,-0.878095,-0.025925,0.426024
1631632635962,-0.879437,-0.02623,0.426085
1631632635972,-0.878095,-0.026352,0.42578
1631632635981,-0.8775459999999999,-0.026657,0.42523099999999997
1631632635991,-0.877973,-0.027267,0.42456
1631632636000,-0.879498,-0.026779,0.425475
1631632636010,-0.8787659999999999,-0.025742,0.427122
1631632636020,-0.8781559999999999,-0.023302,0.428647
1631632636029,-0.878522,-0.021594,0.427488
1631632636039,-0.87779,-0.021716,0.426878
1631632636048,-0.87718,-0.021411,0.42639
1631632636058,-0.876814,-0.022082,0.425292
1631632636068,-0.8769359999999999,-0.022814,0.424438
1631632636077,-0.877729,-0.023667999999999998,0.42492599999999997
1631632636087,-0.878949,-0.024095,0.424377
1631632636096,-0.879925,-0.025193,0.424865
1631632636106,-0.8812059999999999,-0.024461,0.425048
1631632636116,-0.882304,-0.024704999999999998,0.42614599999999997
1631632636125,-0.8821209999999999,-0.024399999999999998,0.426207
1631632636135,-0.88206,-0.023667999999999998,0.42639
1631632636144,-0.882182,-0.022387,0.426268
1631632636154,-0.881328,-0.022875,0.426817
1631632636164,-0.881694,-0.022265,0.426268
1631632636173,-0.882792,-0.021655,0.427305
1631632636183,-0.88145,-0.022692,0.426512
1631632636192,-0.880962,-0.022203999999999998,0.425963
1631632636202,-0.880413,-0.021716,0.425353
1631632636212,-0.880718,-0.021167,0.426512
1631632636221,-0.879254,-0.020618,0.42639
1631632636231,-0.878949,-0.019032,0.425719
1631632636240,-0.87718,-0.02013,0.424682
1631632636250,-0.876997,-0.018543999999999998,0.424133
1631632636260,-0.877668,-0.018971,0.425597
1631632636269,-0.878095,-0.018605,0.426634
1631632636279,-0.87901,-0.017873,0.426024
1631632636288,-0.879254,-0.017446,0.426268
1631632636298,-0.878827,-0.017568,0.425902
1631632636308,-0.87901,-0.017019,0.425109
1631632636317,-0.879132,-0.01647,0.42553599999999997
1631632636327,-0.878522,-0.016531,0.425902
1631632636336,-0.8787659999999999,-0.016104,0.425902
1631632636346,-0.879315,-0.015493999999999999,0.42614599999999997
