timestamp,ax,ay,az
1631632613046,-0.06146240234375,0.1409912109375,0.99102783203125
1631632613046,-0.0628662109375,0.1395263671875,0.9884033203125
1631632613102,-0.058349609375,0.13934326171875,0.985107421875
1631632613102,-0.0594482421875,0.14166259765625,0.98773193359375
1631632613103,-0.0577392578125,0.1416015625,0.98687744140625
1631632613125,-0.05841064453125,0.136962890625,0.99163818359375
1631632613125,-0.063720703125,0.1363525390625,0.9913330078125
1631632613126,-0.05889892578125,0.1356201171875,0.994384765625
1631632613212,-0.056640625,0.131103515625,0.99688720703125
1631632613212,-0.05963134765625,0.12982177734375,0.9991455078125
1631632613212,-0.0594482421875,0.1319580078125,0.9967041015625
1631632613266,-0.056884765625,0.13079833984375,0.997314453125
1631632613266,-0.0577392578125,0.13116455078125,0.99200439453125
1631632613267,-0.06121826171875,0.13336181640625,0.9954833984375
1631632613283,-0.0626220703125,0.1348876953125,0.99407958984375
1631632613284,-0.0665283203125,0.13311767578125,0.9930419921875
1631632613285,-0.0677490234375,0.131591796875,0.98358154296875
1631632613371,-0.063720703125,0.1336669921875,0.98193359375
1631632613371,-0.0599365234375,0.141357421875,0.9862060546875
1631632613371,-0.06121826171875,0.139892578125,0.9844970703125
1631632613435,-0.0614013671875,0.1453857421875,0.9901123046875
1631632613436,-0.058349609375,0.14544677734375,0.9932861328125
1631632613437,-0.05902099609375,0.1456298828125,0.9903564453125
1631632613510,-0.06097412109375,0.14202880859375,0.987548828125
1631632613513,-0.06280517578125,0.13702392578125,0.989501953125
1631632613514,-0.06109619140625,0.13677978515625,0.98907470703125
1631632613531,-0.06005859375,0.1368408203125,0.99346923828125
1631632613531,-0.0609130859375,0.1412353515625,0.99468994140625
1631632613535,-0.06671142578125,0.139404296875,0.99420166015625
1631632613586,-0.06463623046875,0.1387939453125,0.99072265625
1631632613586,-0.0650634765625,0.13995361328125,0.98992919921875
1631632613588,-0.06390380859375,0.14215087890625,0.99102783203125
1631632613662,-0.0643310546875,0.14910888671875,0.9898681640625
1631632613664,-0.06268310546875,0.146240234375,0.9893798828125
1631632613667,-0.06280517578125,0.150634765625,0.99017333984375
1631632613692,-0.0660400390625,0.14508056640625,0.98992919921875
1631632613692,-0.06439208984375,0.14825439453125,0.9906005859375
1631632613692,-0.06671142578125,0.1461181640625,0.9908447265625
1631632613767,-0.06573486328125,0.14208984375,0.98760986328125
1631632613768,-0.06500244140625,0.14178466796875,0.9859619140625
1631632613768,-0.061767578125,0.13671875,0.98760986328125
1631632613814,-0.06256103515625,0.13922119140625,0.99407958984375
1631632613814,-0.06298828125,0.14215087890625,0.99383544921875
1631632613814,-0.06085205078125,0.13751220703125,0.99127197265625
1631632613900,-0.058349609375,0.138427734375,0.9927978515625
1631632613900,-0.06121826171875,0.1417236328125,0.998291015625
1631632613900,-0.06280517578125,0.13629150390625,0.99102783203125
1631632613946,-0.06500244140625,0.1275634765625,0.98583984375
1631632613947,-0.0592041015625,0.1328125,0.99322509765625
1631632613947,-0.0635986328125,0.1312255859375,0.98724365234375
1631632613983,-0.06451416015625,0.13031005859375,0.99542236328125
1631632613984,-0.06597900390625,0.1375732421875,1.00018310546875
1631632613986,-0.06304931640625,0.14093017578125,1.00048828125
1631632614065,-0.06536865234375,0.14459228515625,0.996826171875
1631632614066,-0.06866455078125,0.13897705078125,0.9903564453125
1631632614066,-0.0733642578125,0.1387939453125,0.99493408203125
1631632614146,-0.0738525390625,0.13323974609375,0.98944091796875
1631632614146,-0.072265625,0.13323974609375,0.989501953125
1631632614154,-0.07049560546875,0.13983154296875,0.99755859375
1631632614200,-0.07391357421875,0.13983154296875,1.000732421875
1631632614202,-0.07342529296875,0.14007568359375,1.0035400390625
1631632614205,-0.07415771484375,0.15032958984375,1.0308837890625
1631632614229,-0.07159423828125,0.15582275390625,1.034912109375
1631632614230,-0.07574462890625,0.1494140625,1.01416015625
1631632614231,-0.08551025390625,0.1431884765625,0.99407958984375
1631632614297,-0.0941162109375,0.1500244140625,0.9908447265625
1631632614298,-0.10577392578125,0.15301513671875,0.9852294921875
1631632614298,-0.1153564453125,0.14849853515625,0.98626708984375
1631632614386,-0.12420654296875,0.139892578125,0.97271728515625
1631632614387,-0.12896728515625,0.1322021484375,0.96533203125
1631632614388,-0.1368408203125,0.13238525390625,0.96295166015625
1631632614412,-0.14398193359375,0.1304931640625,0.9715576171875
1631632614413,-0.1549072265625,0.12738037109375,0.95989990234375
1631632614413,-0.148681640625,0.12481689453125,0.96905517578125
1631632614476,-0.1624755859375,0.13519287109375,0.95770263671875
1631632614476,-0.15771484375,0.12939453125,0.96063232421875
1631632614479,-0.16552734375,0.13714599609375,0.9591064453125
1631632614533,-0.16827392578125,0.13934326171875,0.96160888671875
1631632614535,-0.16650390625,0.14410400390625,0.96246337890625
1631632614536,-0.1678466796875,0.146484375,0.967529296875
1631632614605,-0.16888427734375,0.1468505859375,0.973876953125
1631632614606,-0.166748046875,0.15155029296875,0.97991943359375
1631632614607,-0.16693115234375,0.154541015625,0.9754638671875
1631632614662,-0.171875,0.155517578125,0.97235107421875
1631632614662,-0.177490234375,0.15570068359375,0.97357177734375
1631632614668,-0.1815185546875,0.16015625,0.98095703125
1631632614716,-0.1826171875,0.16107177734375,0.97369384765625
1631632614716,-0.1878662109375,0.16900634765625,0.965087890625
1631632614720,-0.197509765625,0.1722412109375,0.96435546875
1631632614769,-0.2008056640625,0.17279052734375,0.9638671875
1631632614771,-0.1988525390625,0.1842041015625,0.96942138671875
1631632614772,-0.1990966796875,0.18072509765625,0.9754638671875
1631632614853,-0.187255859375,0.18035888671875,0.98065185546875
1631632614854,-0.17498779296875,0.1953125,1.01287841796875
1631632614854,-0.17291259765625,0.1839599609375,1.0458984375
1631632614891,-0.1680908203125,0.189208984375,1.08935546875
1631632614892,-0.1654052734375,0.2125244140625,1.127197265625
1631632614894,-0.16522216796875,0.19219970703125,1.167724609375
1631632614925,-0.208251953125,0.0968017578125,1.0989990234375
1631632614925,-0.24688720703125,0.07208251953125,1.01446533203125
1631632614925,-0.18304443359375,0.140869140625,1.14892578125
1631632614993,-0.3182373046875,0.02642822265625,0.8731689453125
1631632614993,-0.29034423828125,0.044189453125,0.94317626953125
1631632614994,-0.35626220703125,0.00750732421875,0.82147216796875
1631632615096,-0.3836669921875,0.00579833984375,0.79571533203125
1631632615097,-0.4193115234375,-0.00244140625,0.771728515625
1631632615099,-0.4427490234375,-0.01837158203125,0.767333984375
1631632615124,-0.43603515625,-0.03765869140625,0.73516845703125
1631632615127,-0.41253662109375,-0.0723876953125,0.728271484375
1631632615127,-0.42120361328125,-0.05279541015625,0.71063232421875
1631632615169,-0.386474609375,-0.0848388671875,0.713134765625
1631632615170,-0.3695068359375,-0.1014404296875,0.76312255859375
1631632615170,-0.33612060546875,-0.1025390625,0.77252197265625
1631632615225,-0.317626953125,-0.106201171875,0.84124755859375
1631632615225,-0.31170654296875,-0.09979248046875,0.86712646484375
1631632615227,-0.26507568359375,-0.09954833984375,0.88232421875
1631632615309,-0.2470703125,-0.092529296875,0.90850830078125
1631632615311,-0.21209716796875,-0.09033203125,0.90301513671875
1631632615313,-0.18170166015625,-0.090087890625,0.95452880859375
1631632615337,-0.100341796875,-0.107666015625,1.005615234375
1631632615337,-0.1416015625,-0.100341796875,0.99822998046875
1631632615342,-0.05828857421875,-0.108642578125,0.99627685546875
1631632615402,-0.02630615234375,-0.08709716796875,1.02679443359375
1631632615402,-0.00323486328125,-0.063720703125,1.07147216796875
1631632615402,0.0015869140625,-0.04913330078125,1.05584716796875
1631632615491,0.0706787109375,-0.04595947265625,0.9735107421875
1631632615493,0.1094970703125,-0.05181884765625,1.02459716796875
1631632615494,0.1002197265625,-0.06060791015625,1.057861328125
1631632615519,0.0675048828125,-0.066162109375,1.05096435546875
1631632615521,0.064697265625,-0.07171630859375,1.0203857421875
1631632615523,0.079833984375,-0.07818603515625,1.03460693359375
1631632615586,0.07745361328125,-0.09722900390625,1.057861328125
1631632615587,0.0633544921875,-0.11602783203125,1.050537109375
1631632615589,0.064697265625,-0.127197265625,1.01751708984375
1631632615640,0.07830810546875,-0.12786865234375,1.09722900390625
1631632615640,0.06500244140625,-0.1173095703125,1.05706787109375
1631632615642,0.07550048828125,-0.120361328125,1.1060791015625
1631632615714,0.07501220703125,-0.1220703125,1.102294921875
1631632615714,0.074951171875,-0.1185302734375,1.04791259765625
1631632615714,0.07275390625,-0.11688232421875,1.0699462890625
1631632615783,0.072265625,-0.12359619140625,1.0389404296875
1631632615787,0.05706787109375,-0.1220703125,1.028564453125
1631632615790,0.05303955078125,-0.11663818359375,1.021240234375
1631632615831,0.0567626953125,-0.11920166015625,1.02197265625
1631632615835,0.03851318359375,-0.12322998046875,1.02166748046875
1631632615837,0.0296630859375,-0.1260986328125,1.03265380859375
1631632615868,0.01300048828125,-0.138671875,1.046630859375
1631632615869,-0.0074462890625,-0.1431884765625,1.02978515625
1631632615870,-0.0137939453125,-0.130615234375,1.00885009765625
1631632615952,-0.01495361328125,-0.1268310546875,1.006103515625
1631632615963,-0.0350341796875,-0.09765625,1.00885009765625
1631632615963,-0.03155517578125,-0.109619140625,1.0177001953125
1631632616013,-0.047607421875,-0.0772705078125,0.96722412109375
1631632616014,-0.06439208984375,-0.071044921875,0.96990966796875
1631632616054,-0.112060546875,-0.0673828125,0.94317626953125
1631632616054,-0.097900390625,-0.0765380859375,0.946044921875
1631632616054,-0.09454345703125,-0.07354736328125,0.9437255859375
1631632616110,-0.11334228515625,-0.05780029296875,0.94573974609375
1631632616111,-0.12200927734375,-0.04046630859375,0.94342041015625
1631632616112,-0.11688232421875,-0.02630615234375,0.9368896484375
1631632616187,-0.1168212890625,-0.02191162109375,0.95428466796875
1631632616189,-0.11004638671875,-0.02130126953125,0.96759033203125
1631632616191,-0.10406494140625,-0.0289306640625,0.97503662109375
1631632616226,-0.0992431640625,-0.02752685546875,0.9635009765625
1631632616226,-0.08642578125,-0.018798828125,0.94451904296875
1631632616232,-0.08197021484375,-0.0107421875,0.9462890625
1631632616311,-0.07525634765625,-0.00799560546875,0.96185302734375
1631632616312,-0.06573486328125,-0.0118408203125,0.966064453125
1631632616313,-0.0677490234375,-0.0174560546875,0.96380615234375
1631632616333,-0.0687255859375,-0.02093505859375,0.97698974609375
1631632616333,-0.060302734375,-0.02716064453125,0.9947509765625
1631632616335,-0.0516357421875,-0.0242919921875,1.0035400390625
1631632616412,-0.04150390625,-0.019775390625,0.99530029296875
1631632616413,-0.0338134765625,-0.0216064453125,1.00390625
1631632616415,-0.0262451171875,-0.01153564453125,1.00897216796875
1631632616498,-0.0133056640625,-0.0010986328125,1.01239013671875
1631632616498,-0.00640869140625,-0.00543212890625,1.0123291015625
1631632616499,-0.00445556640625,-0.00018310546875,1.03680419921875
1631632616546,0.0008544921875,0.014892578125,1.06231689453125
1631632616548,-0.00872802734375,0.018798828125,1.06182861328125
1631632616548,-0.0042724609375,0.01690673828125,1.0361328125
1631632616588,-0.0048828125,0.0230712890625,1.01416015625
1631632616589,-0.0152587890625,0.0211181640625,1.01776123046875
1631632616589,-0.0220947265625,0.02099609375,1.00421142578125
1631632616649,-0.02972412109375,0.02099609375,0.987060546875
1631632616649,-0.0233154296875,0.02178955078125,0.982177734375
1631632616649,-0.0225830078125,0.025146484375,0.9935302734375
1631632616766,-0.0185546875,0.011962890625,0.98577880859375
1631632616766,-0.02099609375,0.0286865234375,0.98883056640625
1631632616766,-0.01763916015625,0.027099609375,0.98675537109375
1631632616780,-0.016357421875,0.0386962890625,1.00244140625
1631632616786,-0.030517578125,0.0147705078125,0.99102783203125
1631632616788,-0.00103759765625,0.0191650390625,0.99658203125
1631632616838,0.00323486328125,0.00946044921875,1.02593994140625
1631632616838,-0.00311279296875,0.00494384765625,1.01409912109375
1631632616838,0.01416015625,0.02410888671875,1.01318359375
1631632616923,0.0009765625,0.001220703125,1.014404296875
1631632616924,0.0047607421875,0.0172119140625,1.0089111328125
1631632616925,0.0042724609375,0.02130126953125,0.9974365234375
1631632616952,0.00714111328125,0.0257568359375,1.00286865234375
1631632616954,0.0133056640625,0.034912109375,1.0059814453125
1631632616955,0.0140380859375,0.0384521484375,1.01666259765625
1631632617001,0.00970458984375,0.0260009765625,1.013916015625
1631632617002,0.008056640625,0.0181884765625,1.01531982421875
1631632617003,0.00732421875,0.014892578125,1.0078125
1631632617094,0.00634765625,0.0086669921875,1.00091552734375
1631632617095,0.00677490234375,-0.00396728515625,1.00457763671875
1631632617096,0.005126953125,-0.01092529296875,1.0020751953125
1631632617205,0.00823974609375,-0.0101318359375,1.0244140625
1631632617207,0.0086669921875,-0.00604248046875,1.04461669921875
1631632617208,0.01251220703125,-0.00079345703125,1.04290771484375
1631632617230,0.01104736328125,-0.0057373046875,1.02783203125
1631632617231,0.0035400390625,-0.0040283203125,1.039794921875
1631632617231,-0.007568359375,-0.00860595703125,1.03509521484375
1631632617264,-0.026611328125,-0.0006103515625,1.02239990234375
1631632617276,-0.04937744140625,-0.0084228515625,0.996826171875
1631632617279,-0.05706787109375,-0.006591796875,0.97259521484375
1631632617299,-0.07281494140625,0.01422119140625,0.94805908203125
1631632617299,-0.0771484375,0.0218505859375,0.95635986328125
1631632617299,-0.07037353515625,0.00048828125,0.9532470703125
1631632617380,-0.07904052734375,0.02032470703125,0.9638671875
1631632617380,-0.0789794921875,0.026611328125,0.96673583984375
1631632617385,-0.0751953125,0.030517578125,0.9581298828125
1631632617440,-0.0709228515625,0.0294189453125,0.9613037109375
1631632617441,-0.0672607421875,0.04571533203125,0.96337890625
1631632617442,-0.0692138671875,0.0535888671875,0.97137451171875
1631632617500,-0.06451416015625,0.0430908203125,0.97613525390625
1631632617501,-0.05914306640625,0.0592041015625,0.99591064453125
1631632617502,-0.04974365234375,0.0643310546875,0.99542236328125
1631632617556,-0.04681396484375,0.07598876953125,0.9876708984375
1631632617557,-0.0496826171875,0.10491943359375,1.02362060546875
1631632617637,-0.072265625,0.12713623046875,1.03546142578125
1631632617641,-0.0657958984375,0.12982177734375,0.9891357421875
1631632617642,-0.05889892578125,0.15655517578125,0.96282958984375
1631632617661,-0.0548095703125,0.173095703125,0.97332763671875
1631632617662,-0.04827880859375,0.165283203125,1.01129150390625
1631632617663,-0.0443115234375,0.1451416015625,1.0262451171875
1631632617698,-0.046630859375,0.141845703125,1.05999755859375
1631632617698,-0.03729248046875,0.147216796875,1.072265625
1631632617698,-0.03875732421875,0.13836669921875,1.0693359375
1631632617765,-0.03631591796875,0.16705322265625,1.093994140625
1631632617766,-0.04638671875,0.16632080078125,1.09710693359375
1631632617768,-0.038330078125,0.166748046875,1.07525634765625
1631632617836,-0.0347900390625,0.15777587890625,1.06903076171875
1631632617841,-0.02569580078125,0.15496826171875,1.04852294921875
1631632617842,-0.0323486328125,0.13641357421875,1.0328369140625
1631632617890,-0.05609130859375,0.098876953125,1.01995849609375
1631632617891,-0.07940673828125,0.07928466796875,1.01617431640625
1631632617892,-0.09368896484375,0.07745361328125,0.99761962890625
1631632617946,-0.11541748046875,0.06109619140625,0.9715576171875
1631632617947,-0.14947509765625,0.0506591796875,0.948974609375
1631632617948,-0.1807861328125,0.03826904296875,0.9132080078125
1631632618021,-0.234130859375,-0.00372314453125,0.87774658203125
1631632618021,-0.21099853515625,0.0123291015625,0.89794921875
1631632618024,-0.26239013671875,-0.03009033203125,0.8753662109375
1631632618064,-0.28912353515625,-0.048583984375,0.874267578125
1631632618065,-0.3157958984375,-0.06292724609375,0.87542724609375
1631632618067,-0.328857421875,-0.071533203125,0.87591552734375
1631632618108,-0.36663818359375,-0.09344482421875,0.90020751953125
1631632618108,-0.3502197265625,-0.08489990234375,0.89508056640625
1631632618109,-0.37225341796875,-0.08685302734375,0.8935546875
1631632618189,-0.37030029296875,-0.07550048828125,0.87615966796875
1631632618190,-0.40386962890625,-0.06719970703125,0.90045166015625
1631632618191,-0.41510009765625,-0.08782958984375,0.91925048828125
1631632618266,-0.4124755859375,-0.0673828125,0.89532470703125
1631632618270,-0.36846923828125,-0.01904296875,0.861572265625
1631632618271,-0.34576416015625,-0.02471923828125,0.86749267578125
1631632618322,-0.34893798828125,-0.070068359375,0.8985595703125
1631632618323,-0.34832763671875,-0.07354736328125,0.9102783203125
1631632618323,-0.343505859375,-0.04388427734375,0.9072265625
1631632618371,-0.34844970703125,-0.0250244140625,0.91961669921875
1631632618373,-0.3343505859375,-0.01959228515625,0.91009521484375
1631632618374,-0.33245849609375,-0.02056884765625,0.90380859375
1631632618434,-0.33984375,-0.00714111328125,0.91455078125
1631632618434,-0.331787109375,0.0128173828125,0.90570068359375
1631632618435,-0.3282470703125,0.03057861328125,0.91632080078125
1631632618490,-0.321044921875,0.04022216796875,0.9276123046875
1631632618491,-0.3138427734375,0.04150390625,0.9395751953125
1631632618492,-0.31524658203125,0.04901123046875,0.97283935546875
1631632618554,-0.30767822265625,0.0533447265625,0.9849853515625
1631632618560,-0.3009033203125,0.06451416015625,0.993408203125
1631632618565,-0.3013916015625,0.07037353515625,1.00244140625
1631632618600,-0.308349609375,0.07135009765625,0.97216796875
1631632618600,-0.3060302734375,0.079345703125,0.94488525390625
1631632618600,-0.3045654296875,0.07037353515625,0.989990234375
1631632618673,-0.2957763671875,0.0771484375,0.9215087890625
1631632618674,-0.279052734375,0.0867919921875,0.90753173828125
1631632618674,-0.27099609375,0.08978271484375,0.90667724609375
1631632618749,-0.2545166015625,0.057373046875,0.93145751953125
1631632618749,-0.25958251953125,0.073486328125,0.9117431640625
1631632618750,-0.25787353515625,0.0408935546875,0.9466552734375
1631632618773,-0.25738525390625,0.02252197265625,0.96038818359375
1631632618774,-0.2762451171875,-0.0067138671875,0.9803466796875
1631632618774,-0.262451171875,0.00152587890625,0.9652099609375
1631632618834,-0.28546142578125,-0.005126953125,0.97711181640625
1631632618834,-0.2857666015625,-0.00018310546875,0.97235107421875
1631632618837,-0.2939453125,0.00592041015625,0.9627685546875
1631632618907,-0.29815673828125,0.00872802734375,0.952392578125
1631632618907,-0.29583740234375,0.0208740234375,0.9508056640625
1631632618908,-0.29412841796875,0.02557373046875,0.94879150390625
1631632618976,-0.2940673828125,0.037841796875,0.95477294921875
1631632618977,-0.28094482421875,0.03753662109375,0.9593505859375
1631632618977,-0.2840576171875,0.04156494140625,0.9583740234375
1631632619014,-0.27288818359375,0.0411376953125,0.9556884765625
1631632619015,-0.26409912109375,0.04107666015625,0.95489501953125
1631632619016,-0.25762939453125,0.04522705078125,0.9580078125
1631632619060,-0.25738525390625,0.042724609375,0.95916748046875
1631632619061,-0.2625732421875,0.0477294921875,0.96063232421875
1631632619061,-0.2608642578125,0.0396728515625,0.9642333984375
1631632619106,-0.258544921875,0.03973388671875,0.96234130859375
1631632619113,-0.254150390625,0.03594970703125,0.96221923828125
1631632619114,-0.25250244140625,0.036376953125,0.9697265625
1631632619230,-0.251220703125,0.03033447265625,0.9580078125
1631632619231,-0.2462158203125,0.0233154296875,0.95550537109375
1631632619232,-0.24609375,0.0145263671875,0.96234130859375
1631632619261,-0.24420166015625,0.0157470703125,0.96661376953125
1631632619263,-0.2344970703125,0.00897216796875,0.97113037109375
1631632619264,-0.23028564453125,0.0079345703125,0.98223876953125
1631632619296,-0.230224609375,0.00299072265625,0.98651123046875
1631632619299,-0.23040771484375,0.00732421875,0.98040771484375
1631632619300,-0.231201171875,0.01190185546875,0.9781494140625
1631632619381,-0.25079345703125,0.0211181640625,0.966064453125
1631632619381,-0.2435302734375,0.01690673828125,0.9681396484375
1631632619381,-0.23529052734375,0.01788330078125,0.97589111328125
1631632619433,-0.24774169921875,0.0208740234375,0.95684814453125
1631632619434,-0.2537841796875,0.02197265625,0.9609375
1631632619434,-0.25030517578125,0.026123046875,0.95941162109375
1631632619461,-0.25543212890625,0.02935791015625,0.951904296875
1631632619462,-0.25384521484375,0.0323486328125,0.95062255859375
1631632619463,-0.2559814453125,0.0367431640625,0.95733642578125
1631632619514,-0.25531005859375,0.05218505859375,0.96893310546875
1631632619514,-0.25482177734375,0.042236328125,0.96234130859375
1631632619514,-0.2564697265625,0.04302978515625,0.96502685546875
1631632619606,-0.25433349609375,0.0528564453125,0.96527099609375
1631632619607,-0.2550048828125,0.055419921875,0.95751953125
1631632619607,-0.2579345703125,0.05291748046875,0.96240234375
1631632619665,-0.25885009765625,0.055419921875,0.96368408203125
1631632619665,-0.25775146484375,0.05377197265625,0.95947265625
1631632619666,-0.25823974609375,0.04840087890625,0.96026611328125
1631632619706,-0.2545166015625,0.04644775390625,0.94940185546875
1631632619706,-0.25897216796875,0.04718017578125,0.95208740234375
1631632619707,-0.25543212890625,0.042236328125,0.947509765625
1631632619769,-0.25189208984375,0.0391845703125,0.955322265625
1631632619769,-0.2509765625,0.0350341796875,0.9615478515625
1631632619770,-0.25115966796875,0.032470703125,0.9599609375
1631632619865,-0.24566650390625,0.0286865234375,0.960205078125
1631632619867,-0.24395751953125,0.025634765625,0.9708251953125
1631632619869,-0.24298095703125,0.02459716796875,0.97808837890625
1631632619898,-0.23907470703125,0.01904296875,0.9735107421875
1631632619899,-0.23883056640625,0.02276611328125,0.968994140625
1631632619936,-0.23858642578125,0.034423828125,0.96685791015625
1631632619937,-0.2347412109375,0.03912353515625,0.9761962890625
1631632619937,-0.23541259765625,0.0426025390625,0.97503662109375
1631632620002,-0.23583984375,0.051025390625,0.96783447265625
1631632620002,-0.23602294921875,0.04913330078125,0.97784423828125
1631632620004,-0.24005126953125,0.052490234375,0.96466064453125
1631632620086,-0.24261474609375,0.04638671875,0.9656982421875
1631632620086,-0.24273681640625,0.04840087890625,0.967529296875
1631632620087,-0.24554443359375,0.04156494140625,0.961669921875
1631632620121,-0.2432861328125,0.0357666015625,0.95843505859375
1631632620131,-0.245849609375,0.0335693359375,0.96319580078125
1631632620133,-0.24713134765625,0.03265380859375,0.96026611328125
1631632620231,-0.24725341796875,0.036376953125,0.958984375
1631632620233,-0.2440185546875,0.0360107421875,0.96087646484375
1631632620234,-0.2391357421875,0.0357666015625,0.97027587890625
1631632620254,-0.24090576171875,0.03350830078125,0.967529296875
1631632620256,-0.2406005859375,0.029296875,0.9676513671875
1631632620256,-0.239501953125,0.0277099609375,0.97198486328125
1631632620337,-0.2425537109375,0.02362060546875,0.97564697265625
1631632620338,-0.24072265625,0.023193359375,0.97442626953125
1631632620339,-0.24151611328125,0.0220947265625,0.9732666015625
1631632620383,-0.236572265625,0.0220947265625,0.96624755859375
1631632620384,-0.2396240234375,0.02587890625,0.958740234375
1631632620385,-0.24371337890625,0.03143310546875,0.9619140625
1631632620408,-0.242431640625,0.03350830078125,0.95697021484375
1631632620408,-0.24407958984375,0.033935546875,0.962158203125
1631632620409,-0.24383544921875,0.03314208984375,0.95751953125
1631632620514,-0.239501953125,0.03082275390625,0.9625244140625
1631632620515,-0.23797607421875,0.0316162109375,0.96826171875
1631632620515,-0.23760986328125,0.032958984375,0.96405029296875
1631632620588,-0.23583984375,0.029541015625,0.96929931640625
1631632620589,-0.23492431640625,0.02191162109375,0.9718017578125
1631632620589,-0.23687744140625,0.02667236328125,0.97857666015625
1631632620638,-0.23284912109375,0.0203857421875,0.96673583984375
1631632620639,-0.23443603515625,0.02362060546875,0.96807861328125
1631632620640,-0.23291015625,0.03070068359375,0.9677734375
1631632620681,-0.2342529296875,0.03363037109375,0.97216796875
1631632620682,-0.23187255859375,0.03521728515625,0.97503662109375
1631632620684,-0.22760009765625,0.0355224609375,0.97088623046875
1631632620714,-0.2330322265625,0.0390625,0.96661376953125
1631632620717,-0.23345947265625,0.0419921875,0.9635009765625
1631632620717,-0.23687744140625,0.03936767578125,0.96722412109375
1631632620836,-0.2349853515625,0.03790283203125,0.9691162109375
1631632620837,-0.23785400390625,0.037841796875,0.96990966796875
1631632620837,-0.23602294921875,0.03759765625,0.96844482421875
1631632620864,-0.2386474609375,0.03369140625,0.96405029296875
1631632620866,-0.24072265625,0.0316162109375,0.96246337890625
1631632620866,-0.24053955078125,0.03076171875,0.96136474609375
1631632620935,-0.23956298828125,0.03582763671875,0.9627685546875
1631632620936,-0.2374267578125,0.03759765625,0.96685791015625
1631632620936,-0.2362060546875,0.0372314453125,0.9676513671875
1631632620951,-0.2381591796875,0.03753662109375,0.96734619140625
1631632620954,-0.23712158203125,0.03814697265625,0.96771240234375
1631632620955,-0.236572265625,0.03662109375,0.97039794921875
1631632621035,-0.23504638671875,0.03411865234375,0.9766845703125
1631632621036,-0.239013671875,0.03485107421875,0.965087890625
1631632621037,-0.23992919921875,0.0367431640625,0.96484375
1631632621066,-0.2386474609375,0.0343017578125,0.963134765625
1631632621067,-0.23724365234375,0.03375244140625,0.9622802734375
1631632621067,-0.23968505859375,0.03094482421875,0.96417236328125
1631632621129,-0.23687744140625,0.03125,0.96185302734375
1631632621130,-0.2381591796875,0.02752685546875,0.96612548828125
1631632621130,-0.23876953125,0.02740478515625,0.96588134765625
1631632621208,-0.23651123046875,0.0277099609375,0.9669189453125
1631632621209,-0.23419189453125,0.0238037109375,0.96575927734375
1631632621209,-0.23602294921875,0.02996826171875,0.96466064453125
1631632621285,-0.235595703125,0.02685546875,0.961181640625
1631632621286,-0.2371826171875,0.0240478515625,0.9605712890625
1631632621286,-0.23663330078125,0.0252685546875,0.967041015625
1631632621312,-0.2374267578125,0.0224609375,0.9613037109375
1631632621314,-0.23663330078125,0.02178955078125,0.966552734375
1631632621316,-0.24176025390625,0.02728271484375,0.96832275390625
1631632621339,-0.233154296875,0.02978515625,0.9696044921875
1631632621344,-0.230712890625,0.03338623046875,0.968505859375
1631632621345,-0.2283935546875,0.031494140625,0.962890625
1631632621431,-0.23004150390625,0.03369140625,0.97174072265625
1631632621432,-0.2310791015625,0.03594970703125,0.976318359375
1631632621432,-0.227783203125,0.03778076171875,0.96575927734375
1631632621480,-0.2327880859375,0.032470703125,0.98333740234375
1631632621481,-0.23480224609375,0.02874755859375,0.9813232421875
1631632621482,-0.23626708984375,0.02410888671875,0.9754638671875
1631632621520,-0.23773193359375,0.022216796875,0.97100830078125
1631632621520,-0.23480224609375,0.02838134765625,0.9591064453125
1631632621520,-0.23553466796875,0.02490234375,0.96038818359375
1631632621612,-0.2384033203125,0.02972412109375,0.96258544921875
1631632621615,-0.24017333984375,0.02783203125,0.9649658203125
1631632621615,-0.2369384765625,0.03009033203125,0.9656982421875
1631632621699,-0.2364501953125,0.03070068359375,0.96978759765625
1631632621705,-0.23980712890625,0.03375244140625,0.9705810546875
1631632621705,-0.23956298828125,0.0318603515625,0.970947265625
1631632621722,-0.2376708984375,0.03363037109375,0.96722412109375
1631632621722,-0.24017333984375,0.03326416015625,0.96405029296875
1631632621722,-0.24127197265625,0.034423828125,0.9652099609375
1631632621772,-0.2388916015625,0.0341796875,0.96478271484375
1631632621773,-0.24169921875,0.03521728515625,0.96185302734375
1631632621773,-0.23828125,0.03692626953125,0.96087646484375
1631632621834,-0.23907470703125,0.03607177734375,0.96417236328125
1631632621834,-0.239013671875,0.0360107421875,0.9615478515625
1631632621835,-0.2392578125,0.0382080078125,0.96600341796875
1631632621892,-0.2337646484375,0.03509521484375,0.968994140625
1631632621893,-0.236083984375,0.03118896484375,0.96734619140625
1631632621894,-0.2342529296875,0.02960205078125,0.96966552734375
1631632621932,-0.22833251953125,0.02471923828125,0.9720458984375
1631632621933,-0.23382568359375,0.02886962890625,0.97613525390625
1631632621935,-0.2364501953125,0.02606201171875,0.9659423828125
1631632622011,-0.236328125,0.02142333984375,0.96307373046875
1631632622012,-0.23126220703125,0.025146484375,0.9615478515625
1631632622013,-0.2374267578125,0.0316162109375,0.967529296875
1631632622066,-0.22955322265625,0.03302001953125,0.96600341796875
1631632622066,-0.2286376953125,0.03289794921875,0.96844482421875
1631632622066,-0.22412109375,0.0347900390625,0.9703369140625
1631632622145,-0.22821044921875,0.039306640625,0.96954345703125
1631632622147,-0.23052978515625,0.037109375,0.96807861328125
1631632622148,-0.2303466796875,0.030029296875,0.96588134765625
1631632622220,-0.23077392578125,0.0291748046875,0.97088623046875
1631632622222,-0.2293701171875,0.02557373046875,0.97528076171875
1631632622224,-0.22918701171875,0.02691650390625,0.97930908203125
1631632622243,-0.230224609375,0.0262451171875,0.97540283203125
1631632622244,-0.22979736328125,0.02606201171875,0.9716796875
1631632622246,-0.2314453125,0.02880859375,0.96844482421875
1631632622321,-0.22796630859375,0.0296630859375,0.96441650390625
1631632622322,-0.23016357421875,0.03173828125,0.97149658203125
1631632622322,-0.2276611328125,0.03619384765625,0.9735107421875
1631632622379,-0.2298583984375,0.0382080078125,0.97564697265625
1631632622382,-0.2327880859375,0.0391845703125,0.97381591796875
1631632622383,-0.22735595703125,0.03826904296875,0.97039794921875
1631632622420,-0.2315673828125,0.04254150390625,0.9647216796875
1631632622420,-0.23419189453125,0.03875732421875,0.96649169921875
1631632622426,-0.231689453125,0.04193115234375,0.96588134765625
1631632622502,-0.2275390625,0.04144287109375,0.96270751953125
1631632622503,-0.23291015625,0.03936767578125,0.96063232421875
1631632622504,-0.23065185546875,0.03729248046875,0.95697021484375
1631632622531,-0.22894287109375,0.03973388671875,0.9661865234375
1631632622531,-0.2266845703125,0.03619384765625,0.97332763671875
1631632622531,-0.230224609375,0.037841796875,0.961181640625
1631632622633,-0.22479248046875,0.03240966796875,0.97247314453125
1631632622634,-0.21954345703125,0.03387451171875,0.9727783203125
1631632622634,-0.22381591796875,0.031005859375,0.9715576171875
1631632622673,-0.22314453125,0.032470703125,0.9774169921875
1631632622673,-0.22357177734375,0.028076171875,0.97540283203125
1631632622674,-0.2269287109375,0.0313720703125,0.973388671875
1631632622719,-0.22308349609375,0.03118896484375,0.97119140625
1631632622719,-0.22406005859375,0.0374755859375,0.97119140625
1631632622722,-0.22119140625,0.03607177734375,0.9705810546875
1631632622747,-0.219482421875,0.0362548828125,0.97247314453125
1631632622748,-0.22137451171875,0.03826904296875,0.973388671875
1631632622748,-0.22674560546875,0.036865234375,0.969970703125
1631632622870,-0.224365234375,0.036865234375,0.96630859375
1631632622877,-0.22698974609375,0.03118896484375,0.9688720703125
1631632622878,-0.23016357421875,0.03369140625,0.97344970703125
1631632622919,-0.22821044921875,0.03363037109375,0.9700927734375
1631632622919,-0.22906494140625,0.03594970703125,0.9681396484375
1631632622919,-0.23052978515625,0.03265380859375,0.9713134765625
1631632622952,-0.23046875,0.03125,0.9664306640625
1631632622953,-0.2301025390625,0.031005859375,0.96734619140625
1631632622953,-0.22711181640625,0.03399658203125,0.965576171875
1631632623020,-0.22845458984375,0.033203125,0.96771240234375
1631632623022,-0.22662353515625,0.03228759765625,0.96875
1631632623023,-0.23065185546875,0.03033447265625,0.96917724609375
1631632623079,-0.22998046875,0.0267333984375,0.96923828125
1631632623083,-0.23175048828125,0.030029296875,0.9688720703125
1631632623084,-0.23272705078125,0.02703857421875,0.96875
1631632623131,-0.2296142578125,0.03326416015625,0.96234130859375
1631632623131,-0.22821044921875,0.0330810546875,0.96746826171875
1631632623131,-0.23193359375,0.0286865234375,0.96807861328125
1631632623175,-0.22637939453125,0.03997802734375,0.96954345703125
1631632623175,-0.22454833984375,0.0391845703125,0.9610595703125
1631632623175,-0.22900390625,0.03564453125,0.962158203125
1631632623240,-0.226806640625,0.0413818359375,0.9783935546875
1631632623241,-0.219970703125,0.04266357421875,0.97271728515625
1631632623241,-0.21881103515625,0.0406494140625,0.97308349609375
1631632623335,-0.22015380859375,0.0343017578125,0.96917724609375
1631632623337,-0.22149658203125,0.027587890625,0.97314453125
1631632623337,-0.22314453125,0.03399658203125,0.9754638671875
1631632623354,-0.21990966796875,0.02435302734375,0.97216796875
1631632623358,-0.21942138671875,0.02850341796875,0.97698974609375
1631632623360,-0.21563720703125,0.03106689453125,0.97662353515625
1631632623422,-0.21429443359375,0.03607177734375,0.9759521484375
1631632623425,-0.21575927734375,0.03607177734375,0.97491455078125
1631632623427,-0.21588134765625,0.03887939453125,0.96905517578125
1631632623489,-0.21728515625,0.0386962890625,0.97381591796875
1631632623490,-0.2161865234375,0.03631591796875,0.97528076171875
1631632623490,-0.2132568359375,0.032958984375,0.96966552734375
1631632623564,-0.2166748046875,0.03125,0.97552490234375
1631632623564,-0.21820068359375,0.0244140625,0.96868896484375
1631632623564,-0.217041015625,0.02911376953125,0.97052001953125
1631632623611,-0.2213134765625,0.02685546875,0.97088623046875
1631632623612,-0.2178955078125,0.02679443359375,0.96875
1631632623613,-0.21795654296875,0.0267333984375,0.96771240234375
1631632623651,-0.21807861328125,0.031005859375,0.97137451171875
1631632623659,-0.21575927734375,0.0323486328125,0.9720458984375
1631632623660,-0.216796875,0.0352783203125,0.9737548828125
1631632623727,-0.21612548828125,0.035888671875,0.9732666015625
1631632623730,-0.21484375,0.03338623046875,0.9718017578125
1631632623730,-0.2156982421875,0.0350341796875,0.9722900390625
1631632623781,-0.21929931640625,0.03070068359375,0.9796142578125
1631632623781,-0.21063232421875,0.03680419921875,0.97491455078125
1631632623781,-0.2125244140625,0.0340576171875,0.96746826171875
1631632623850,-0.2197265625,0.03076171875,0.9775390625
1631632623850,-0.2149658203125,0.03179931640625,0.9805908203125
1631632623850,-0.214599609375,0.03179931640625,0.9765625
1631632623892,-0.218017578125,0.03704833984375,0.96728515625
1631632623893,-0.21875,0.03485107421875,0.97308349609375
1631632623893,-0.21575927734375,0.0372314453125,0.9747314453125
1631632623971,-0.214599609375,0.030517578125,0.975341796875
1631632623972,-0.220947265625,0.0333251953125,0.97796630859375
1631632623974,-0.22320556640625,0.029541015625,0.9825439453125
1631632624007,-0.21728515625,0.0208740234375,0.97747802734375
1631632624009,-0.2138671875,0.02789306640625,0.9681396484375
1631632624009,-0.21099853515625,0.03594970703125,0.968994140625
1631632624094,-0.21441650390625,0.04290771484375,0.96954345703125
1631632624095,-0.21417236328125,0.0401611328125,0.97406005859375
1631632624095,-0.21533203125,0.0418701171875,0.974365234375
1631632624138,-0.2130126953125,0.03955078125,0.97021484375
1631632624138,-0.214599609375,0.0361328125,0.97198486328125
1631632624139,-0.216552734375,0.0323486328125,0.9669189453125
1631632624200,-0.21441650390625,0.02923583984375,0.9647216796875
1631632624201,-0.2149658203125,0.02703857421875,0.96893310546875
1631632624202,-0.2132568359375,0.02874755859375,0.97119140625
1631632624248,-0.21588134765625,0.0303955078125,0.97735595703125
1631632624249,-0.21600341796875,0.0364990234375,0.97039794921875
1631632624249,-0.211669921875,0.033935546875,0.97039794921875
1631632624307,-0.2158203125,0.0389404296875,0.97601318359375
1631632624307,-0.208740234375,0.0396728515625,0.972900390625
1631632624447,-0.21514892578125,0.0355224609375,0.972412109375
1631632624449,-0.218505859375,0.0311279296875,0.97198486328125
1631632624450,-0.2174072265625,0.02752685546875,0.96722412109375
1631632624480,-0.216796875,0.0372314453125,0.968505859375
1631632624480,-0.21612548828125,0.0408935546875,0.9732666015625
1631632624480,-0.224609375,0.03289794921875,0.9700927734375
1631632624563,-0.21722412109375,0.04400634765625,0.9716796875
1631632624564,-0.215087890625,0.04193115234375,0.970458984375
1631632624565,-0.21307373046875,0.04339599609375,0.97430419921875
1631632624585,-0.210205078125,0.04193115234375,0.979248046875
1631632624586,-0.2137451171875,0.03546142578125,0.98577880859375
1631632624587,-0.21282958984375,0.03466796875,0.98748779296875
1631632624683,-0.21490478515625,0.02642822265625,0.984375
1631632624683,-0.2138671875,0.02825927734375,0.972412109375
1631632624683,-0.21234130859375,0.02783203125,0.97698974609375
1631632624754,-0.2138671875,0.03375244140625,0.97235107421875
1631632624755,-0.21710205078125,0.03338623046875,0.9761962890625
1631632624757,-0.219482421875,0.03167724609375,0.9735107421875
1631632624784,-0.2196044921875,0.032470703125,0.9652099609375
1631632624784,-0.22576904296875,0.033203125,0.95770263671875
1631632624784,-0.22808837890625,0.03302001953125,0.9652099609375
1631632624862,-0.22845458984375,0.03399658203125,0.957275390625
1631632624864,-0.228271484375,0.0330810546875,0.95831298828125
1631632624865,-0.23077392578125,0.0328369140625,0.9599609375
1631632624918,-0.2327880859375,0.03424072265625,0.96197509765625
1631632624919,-0.228759765625,0.0347900390625,0.96209716796875
1631632624920,-0.22589111328125,0.03875732421875,0.96234130859375
1631632624974,-0.22607421875,0.04254150390625,0.963623046875
1631632624974,-0.2208251953125,0.0511474609375,0.9771728515625
1631632624974,-0.224609375,0.04742431640625,0.97552490234375
1631632625015,-0.225341796875,0.049560546875,0.9771728515625
1631632625015,-0.2230224609375,0.049560546875,0.98016357421875
1631632625015,-0.22406005859375,0.05108642578125,0.983642578125
1631632625098,-0.2269287109375,0.044677734375,0.96875
1631632625099,-0.22723388671875,0.0411376953125,0.9669189453125
1631632625100,-0.2261962890625,0.03997802734375,0.96636962890625
1631632625222,-0.22821044921875,0.03985595703125,0.96514892578125
1631632625224,-0.22882080078125,0.04156494140625,0.95831298828125
1631632625225,-0.22833251953125,0.04241943359375,0.96636962890625
1631632625243,-0.22601318359375,0.0396728515625,0.96600341796875
1631632625244,-0.22515869140625,0.04644775390625,0.9705810546875
1631632625245,-0.22314453125,0.04681396484375,0.966796875
1631632625279,-0.22119140625,0.04595947265625,0.96588134765625
1631632625281,-0.21820068359375,0.04693603515625,0.9730224609375
1631632625282,-0.220947265625,0.04522705078125,0.97528076171875
1631632625320,-0.22100830078125,0.038330078125,0.973388671875
1631632625323,-0.21875,0.03680419921875,0.96734619140625
1631632625323,-0.21630859375,0.03741455078125,0.96826171875
1631632625401,-0.21697998046875,0.04803466796875,0.97039794921875
1631632625401,-0.2183837890625,0.04833984375,0.98089599609375
1631632625401,-0.216552734375,0.04852294921875,0.974365234375
1631632625455,-0.21142578125,0.0462646484375,0.9776611328125
1631632625455,-0.21197509765625,0.04803466796875,0.97607421875
1631632625488,-0.21575927734375,0.0421142578125,0.9793701171875
1631632625490,-0.20977783203125,0.037353515625,0.9822998046875
1631632625491,-0.21209716796875,0.034423828125,0.97613525390625
1631632625589,-0.21868896484375,0.0294189453125,0.97308349609375
1631632625589,-0.2156982421875,0.0302734375,0.968505859375
1631632625589,-0.2156982421875,0.03814697265625,0.97088623046875
1631632625621,-0.22015380859375,0.0313720703125,0.97314453125
1631632625622,-0.2200927734375,0.03509521484375,0.96978759765625
1631632625624,-0.2216796875,0.0306396484375,0.96502685546875
1631632625681,-0.22039794921875,0.03900146484375,0.9664306640625
1631632625682,-0.2196044921875,0.04071044921875,0.9635009765625
1631632625682,-0.2236328125,0.0430908203125,0.96917724609375
1631632625723,-0.2259521484375,0.04656982421875,0.97369384765625
1631632625724,-0.2200927734375,0.0501708984375,0.97076416015625
1631632625724,-0.22222900390625,0.04693603515625,0.97332763671875
1631632625781,-0.21875,0.054443359375,0.96484375
1631632625781,-0.2186279296875,0.05157470703125,0.9713134765625
1631632625782,-0.21624755859375,0.0511474609375,0.9715576171875
1631632625865,-0.22174072265625,0.04669189453125,0.96649169921875
1631632625865,-0.22186279296875,0.04449462890625,0.970458984375
1631632625865,-0.21917724609375,0.04180908203125,0.97259521484375
1631632625886,-0.21649169921875,0.04266357421875,0.97186279296875
1631632625892,-0.21734619140625,0.04376220703125,0.97174072265625
1631632625893,-0.22357177734375,0.0386962890625,0.97442626953125
1631632625947,-0.22210693359375,0.03521728515625,0.96807861328125
1631632625948,-0.2215576171875,0.03753662109375,0.96087646484375
1631632625948,-0.22509765625,0.0338134765625,0.96002197265625
1631632626037,-0.218017578125,0.04119873046875,0.97406005859375
1631632626037,-0.22076416015625,0.04058837890625,0.96484375
1631632626038,-0.2147216796875,0.04339599609375,0.98291015625
1631632626062,-0.20672607421875,0.04229736328125,0.9730224609375
1631632626062,-0.21026611328125,0.04205322265625,0.97650146484375
1631632626062,-0.21435546875,0.04168701171875,0.975341796875
1631632626132,-0.21466064453125,0.0433349609375,0.97589111328125
1631632626133,-0.2119140625,0.0364990234375,0.9739990234375
1631632626133,-0.21441650390625,0.03839111328125,0.9775390625
1631632626171,-0.21063232421875,0.03448486328125,0.97442626953125
1631632626171,-0.21685791015625,0.033935546875,0.97442626953125
1631632626173,-0.21331787109375,0.03277587890625,0.96905517578125
1631632626281,-0.2156982421875,0.03271484375,0.9691162109375
1631632626283,-0.2154541015625,0.03668212890625,0.9722900390625
1631632626284,-0.214111328125,0.03607177734375,0.9720458984375
1631632626326,-0.21405029296875,0.0399169921875,0.9736328125
1631632626330,-0.21295166015625,0.04290771484375,0.975830078125
1631632626332,-0.21343994140625,0.0419921875,0.97601318359375
1631632626393,-0.21258544921875,0.03887939453125,0.96942138671875
1631632626395,-0.2210693359375,0.039794921875,0.9755859375
1631632626397,-0.21600341796875,0.04144287109375,0.973388671875
1631632626441,-0.2154541015625,0.0390625,0.97100830078125
1631632626441,-0.21844482421875,0.04156494140625,0.97003173828125
1631632626444,-0.2159423828125,0.0399169921875,0.9659423828125
1631632626513,-0.21685791015625,0.039794921875,0.96826171875
1631632626515,-0.2156982421875,0.03759765625,0.96893310546875
1631632626517,-0.21563720703125,0.0355224609375,0.9752197265625
1631632626579,-0.20928955078125,0.03656005859375,0.9771728515625
1631632626581,-0.20672607421875,0.03662109375,0.9786376953125
1631632626585,-0.2159423828125,0.0360107421875,0.97979736328125
1631632626620,-0.2149658203125,0.031494140625,0.979248046875
1631632626621,-0.21221923828125,0.027587890625,0.97308349609375
1631632626624,-0.21435546875,0.0299072265625,0.9710693359375
1631632626691,-0.2147216796875,0.0333251953125,0.9766845703125
1631632626692,-0.2109375,0.04254150390625,0.9736328125
1631632626693,-0.2100830078125,0.0439453125,0.97900390625
1631632626737,-0.212890625,0.04547119140625,0.97320556640625
1631632626738,-0.2115478515625,0.04742431640625,0.97467041015625
1631632626738,-0.21429443359375,0.0489501953125,0.96575927734375
1631632626784,-0.2135009765625,0.044677734375,0.9658203125
1631632626785,-0.21502685546875,0.04132080078125,0.968017578125
1631632626786,-0.21478271484375,0.03857421875,0.9666748046875
1631632626847,-0.2159423828125,0.04119873046875,0.9722900390625
1631632626847,-0.21484375,0.03680419921875,0.96826171875
1631632626847,-0.2127685546875,0.03887939453125,0.9737548828125
1631632626912,-0.21380615234375,0.0379638671875,0.97027587890625
1631632626913,-0.2105712890625,0.03936767578125,0.97320556640625
1631632626914,-0.210205078125,0.0382080078125,0.97509765625
1631632626988,-0.2103271484375,0.04522705078125,0.97686767578125
1631632626988,-0.21014404296875,0.03912353515625,0.9830322265625
1631632626988,-0.207763671875,0.042724609375,0.9794921875
1631632627031,-0.20965576171875,0.04559326171875,0.97674560546875
1631632627031,-0.20953369140625,0.0445556640625,0.9736328125
1631632627031,-0.20953369140625,0.04498291015625,0.97552490234375
1631632627081,-0.2125244140625,0.04229736328125,0.97613525390625
1631632627081,-0.20892333984375,0.0404052734375,0.9730224609375
1631632627084,-0.20941162109375,0.04071044921875,0.96929931640625
1631632627146,-0.20654296875,0.0389404296875,0.96954345703125
1631632627147,-0.21246337890625,0.0428466796875,0.9693603515625
1631632627147,-0.208984375,0.03912353515625,0.96844482421875
1631632627199,-0.21282958984375,0.04193115234375,0.97149658203125
1631632627199,-0.20855712890625,0.0435791015625,0.97369384765625
1631632627200,-0.206298828125,0.0419921875,0.98046875
1631632627257,-0.208251953125,0.04229736328125,0.97796630859375
1631632627258,-0.21063232421875,0.0411376953125,0.9901123046875
1631632627258,-0.20574951171875,0.03985595703125,0.98699951171875
1631632627314,-0.2086181640625,0.0362548828125,0.9788818359375
1631632627315,-0.2105712890625,0.04486083984375,0.9664306640625
1631632627315,-0.20660400390625,0.0369873046875,0.96929931640625
1631632627371,-0.20635986328125,0.04779052734375,0.9727783203125
1631632627372,-0.20660400390625,0.0501708984375,0.9786376953125
1631632627373,-0.20587158203125,0.051025390625,0.98211669921875
1631632627433,-0.2044677734375,0.05291748046875,0.97821044921875
1631632627433,-0.2073974609375,0.05181884765625,0.97308349609375
1631632627433,-0.20892333984375,0.0478515625,0.96795654296875
1631632627516,-0.21002197265625,0.04547119140625,0.96893310546875
1631632627517,-0.210205078125,0.0458984375,0.9703369140625
1631632627518,-0.21136474609375,0.04083251953125,0.97174072265625
1631632627560,-0.21295166015625,0.04681396484375,0.9718017578125
1631632627560,-0.21478271484375,0.0455322265625,0.97271728515625
1631632627561,-0.20831298828125,0.0482177734375,0.966064453125
1631632627623,-0.208984375,0.04876708984375,0.9765625
1631632627624,-0.20550537109375,0.0478515625,0.98291015625
1631632627624,-0.2071533203125,0.048583984375,0.97900390625
1631632627674,-0.2083740234375,0.0411376953125,0.983154296875
1631632627675,-0.21124267578125,0.0419921875,0.9739990234375
1631632627675,-0.20928955078125,0.04779052734375,0.97686767578125
1631632627719,-0.21551513671875,0.04241943359375,0.9708251953125
1631632627719,-0.21331787109375,0.04180908203125,0.966796875
1631632627726,-0.211669921875,0.0418701171875,0.9678955078125
1631632627782,-0.2132568359375,0.045654296875,0.9656982421875
1631632627783,-0.21148681640625,0.04461669921875,0.9703369140625
1631632627783,-0.2139892578125,0.04290771484375,0.9664306640625
1631632627883,-0.2115478515625,0.04901123046875,0.97052001953125
1631632627884,-0.2088623046875,0.0460205078125,0.97125244140625
1631632627886,-0.21038818359375,0.04888916015625,0.9727783203125
1631632627899,-0.20574951171875,0.0484619140625,0.97509765625
1631632627899,-0.205810546875,0.048095703125,0.9796142578125
1631632627900,-0.2030029296875,0.04925537109375,0.9765625
1631632627966,-0.20684814453125,0.0435791015625,0.97918701171875
1631632627966,-0.2113037109375,0.045654296875,0.98211669921875
1631632627966,-0.20819091796875,0.04730224609375,0.97503662109375
1631632628003,-0.2080078125,0.04022216796875,0.97344970703125
1631632628004,-0.21038818359375,0.04156494140625,0.96728515625
1631632628004,-0.2103271484375,0.04583740234375,0.96624755859375
1631632628119,-0.20562744140625,0.0521240234375,0.96893310546875
1631632628119,-0.20648193359375,0.04937744140625,0.97216796875
1631632628120,-0.20648193359375,0.051025390625,0.97320556640625
1631632628147,-0.20233154296875,0.05230712890625,0.9739990234375
1631632628151,-0.20184326171875,0.050537109375,0.97589111328125
1631632628152,-0.20196533203125,0.0491943359375,0.97869873046875
1631632628199,-0.20391845703125,0.03961181640625,0.98101806640625
1631632628202,-0.20391845703125,0.03607177734375,0.982177734375
1631632628203,-0.20465087890625,0.0301513671875,0.98663330078125
1631632628253,-0.206787109375,0.0382080078125,0.97430419921875
1631632628253,-0.20819091796875,0.04132080078125,0.970458984375
1631632628332,-0.2042236328125,0.04541015625,0.9691162109375
1631632628334,-0.20440673828125,0.04644775390625,0.968994140625
1631632628334,-0.207763671875,0.0478515625,0.96783447265625
1631632628392,-0.20452880859375,0.04681396484375,0.9775390625
1631632628393,-0.2015380859375,0.0482177734375,0.98431396484375
1631632628396,-0.1998291015625,0.0487060546875,0.979248046875
1631632628431,-0.2017822265625,0.04815673828125,0.9793701171875
1631632628431,-0.19775390625,0.04669189453125,0.97735595703125
1631632628431,-0.19927978515625,0.0474853515625,0.9786376953125
1631632628505,-0.202392578125,0.04266357421875,0.975830078125
1631632628507,-0.20758056640625,0.0452880859375,0.979736328125
1631632628508,-0.20440673828125,0.04156494140625,0.97808837890625
1631632628576,-0.2025146484375,0.04327392578125,0.97540283203125
1631632628577,-0.2021484375,0.0435791015625,0.97021484375
1631632628580,-0.20477294921875,0.04461669921875,0.97271728515625
1631632628600,-0.20416259765625,0.0445556640625,0.9739990234375
1631632628601,-0.206787109375,0.0428466796875,0.97601318359375
1631632628601,-0.20465087890625,0.04400634765625,0.97601318359375
1631632628652,-0.2080078125,0.03253173828125,0.97296142578125
1631632628652,-0.20855712890625,0.0372314453125,0.97479248046875
1631632628652,-0.20751953125,0.03997802734375,0.9794921875
1631632628721,-0.2144775390625,0.0299072265625,0.96234130859375
1631632628721,-0.21026611328125,0.03326416015625,0.96270751953125
1631632628721,-0.2125244140625,0.02984619140625,0.96710205078125
1631632628834,-0.2069091796875,0.03961181640625,0.9697265625
1631632628835,-0.20440673828125,0.03924560546875,0.975830078125
1631632628835,-0.2115478515625,0.03936767578125,0.9764404296875
1631632628846,-0.20001220703125,0.04058837890625,0.97650146484375
1631632628846,-0.20318603515625,0.04071044921875,0.9793701171875
1631632628856,-0.20166015625,0.040771484375,0.9776611328125
1631632628920,-0.20849609375,0.033935546875,0.97802734375
1631632628921,-0.20672607421875,0.03326416015625,0.97760009765625
1631632628922,-0.2041015625,0.0323486328125,0.9759521484375
1631632628987,-0.210205078125,0.03497314453125,0.9749755859375
1631632628987,-0.20867919921875,0.0345458984375,0.9755859375
1631632628987,-0.20849609375,0.03350830078125,0.96978759765625
1631632629040,-0.21185302734375,0.0340576171875,0.96697998046875
1631632629041,-0.20721435546875,0.0369873046875,0.97479248046875
1631632629041,-0.21051025390625,0.034912109375,0.9697265625
1631632629115,-0.20751953125,0.037109375,0.975341796875
1631632629116,-0.20574951171875,0.03399658203125,0.9796142578125
1631632629117,-0.20477294921875,0.03369140625,0.9759521484375
1631632629154,-0.2069091796875,0.03656005859375,0.9749755859375
1631632629160,-0.20660400390625,0.03338623046875,0.9742431640625
1631632629161,-0.2034912109375,0.034912109375,0.974365234375
1631632629216,-0.2041015625,0.0345458984375,0.9749755859375
1631632629216,-0.20513916015625,0.03814697265625,0.97747802734375
1631632629218,-0.204833984375,0.0330810546875,0.9736328125
1631632629263,-0.2049560546875,0.035888671875,0.971923828125
1631632629266,-0.2080078125,0.0379638671875,0.9703369140625
1631632629267,-0.20391845703125,0.037353515625,0.9722900390625
1631632629389,-0.2080078125,0.034423828125,0.9686279296875
1631632629390,-0.2008056640625,0.03363037109375,0.967529296875
1631632629392,-0.20001220703125,0.03692626953125,0.97576904296875
1631632629412,-0.20025634765625,0.03729248046875,0.9822998046875
1631632629415,-0.1995849609375,0.03558349609375,0.9818115234375
1631632629417,-0.19720458984375,0.03021240234375,0.98272705078125
1631632629478,-0.19671630859375,0.030029296875,0.9840087890625
1631632629481,-0.20135498046875,0.02862548828125,0.9886474609375
1631632629482,-0.20501708984375,0.02581787109375,0.9820556640625
1631632629537,-0.20416259765625,0.0247802734375,0.970458984375
1631632629537,-0.20306396484375,0.0269775390625,0.97119140625
1631632629539,-0.20379638671875,0.032470703125,0.97540283203125
1631632629567,-0.20184326171875,0.0374755859375,0.97705078125
1631632629567,-0.20458984375,0.03936767578125,0.9791259765625
1631632629568,-0.2037353515625,0.04315185546875,0.97894287109375
1631632629618,-0.2025146484375,0.04052734375,0.97491455078125
1631632629620,-0.20574951171875,0.0379638671875,0.97003173828125
1631632629620,-0.20147705078125,0.0391845703125,0.97454833984375
1631632629724,-0.2030029296875,0.03509521484375,0.97198486328125
1631632629725,-0.2044677734375,0.03271484375,0.97454833984375
1631632629726,-0.20513916015625,0.035400390625,0.97393798828125
1631632629738,-0.20440673828125,0.03533935546875,0.9759521484375
1631632629738,-0.20806884765625,0.03240966796875,0.97412109375
1631632629744,-0.20196533203125,0.0311279296875,0.97125244140625
1631632629772,-0.20355224609375,0.03997802734375,0.976318359375
1631632629772,-0.20489501953125,0.040771484375,0.978515625
1631632629773,-0.20294189453125,0.04010009765625,0.98162841796875
1631632629840,-0.20098876953125,0.04364013671875,0.97528076171875
1631632629840,-0.20123291015625,0.04278564453125,0.98138427734375
1631632629840,-0.20306396484375,0.04510498046875,0.97607421875
1631632629948,-0.2005615234375,0.0460205078125,0.97467041015625
1631632629948,-0.201904296875,0.04180908203125,0.97808837890625
1631632629949,-0.20001220703125,0.04229736328125,0.97442626953125
1631632629965,-0.20196533203125,0.0396728515625,0.97216796875
1631632629966,-0.2056884765625,0.04107666015625,0.9715576171875
1631632629969,-0.2017822265625,0.04400634765625,0.97637939453125
1631632630042,-0.20574951171875,0.044189453125,0.97259521484375
1631632630043,-0.19891357421875,0.04217529296875,0.9765625
1631632630044,-0.202880859375,0.04278564453125,0.97747802734375
1631632630083,-0.19830322265625,0.0430908203125,0.97808837890625
1631632630083,-0.19940185546875,0.041259765625,0.9776611328125
1631632630084,-0.19952392578125,0.03765869140625,0.97357177734375
1631632630167,-0.20166015625,0.03570556640625,0.97406005859375
1631632630168,-0.20391845703125,0.03875732421875,0.97528076171875
1631632630168,-0.20111083984375,0.03826904296875,0.97613525390625
1631632630219,-0.19903564453125,0.039306640625,0.97760009765625
1631632630219,-0.20257568359375,0.0386962890625,0.97686767578125
1631632630220,-0.1983642578125,0.036865234375,0.979736328125
1631632630266,-0.20611572265625,0.037353515625,0.97479248046875
1631632630266,-0.20367431640625,0.0347900390625,0.9691162109375
1631632630266,-0.20318603515625,0.04071044921875,0.98193359375
1631632630305,-0.19720458984375,0.0325927734375,0.96966552734375
1631632630306,-0.19580078125,0.04412841796875,0.97589111328125
1631632630307,-0.1953125,0.0472412109375,0.98065185546875
1631632630412,-0.19659423828125,0.04681396484375,0.984619140625
1631632630414,-0.196044921875,0.0438232421875,0.986328125
1631632630415,-0.1917724609375,0.04559326171875,0.98150634765625
1631632630457,-0.19439697265625,0.04644775390625,0.9788818359375
1631632630458,-0.19873046875,0.0399169921875,0.9744873046875
1631632630459,-0.199951171875,0.0400390625,0.97613525390625
1631632630513,-0.19921875,0.04290771484375,0.97723388671875
1631632630515,-0.19769287109375,0.04302978515625,0.9786376953125
1631632630516,-0.20068359375,0.0400390625,0.97216796875
1631632630580,-0.198974609375,0.04132080078125,0.96917724609375
1631632630582,-0.20050048828125,0.03936767578125,0.97332763671875
1631632630584,-0.19757080078125,0.04168701171875,0.97467041015625
1631632630623,-0.19927978515625,0.0433349609375,0.978515625
1631632630625,-0.19677734375,0.04205322265625,0.98040771484375
1631632630633,-0.2000732421875,0.0467529296875,0.98016357421875
1631632630671,-0.20074462890625,0.04522705078125,0.979736328125
1631632630671,-0.19354248046875,0.0447998046875,0.98101806640625
1631632630678,-0.19891357421875,0.0406494140625,0.97747802734375
1631632630742,-0.19635009765625,0.04302978515625,0.97418212890625
1631632630746,-0.20172119140625,0.042724609375,0.9742431640625
1631632630748,-0.1995849609375,0.04150390625,0.97332763671875
1631632630799,-0.1995849609375,0.04302978515625,0.9732666015625
1631632630801,-0.20172119140625,0.04339599609375,0.97406005859375
1631632630802,-0.20001220703125,0.04339599609375,0.972412109375
1631632630852,-0.19818115234375,0.0423583984375,0.97393798828125
1631632630862,-0.2000732421875,0.04254150390625,0.9752197265625
1631632630865,-0.20263671875,0.03729248046875,0.974365234375
1631632630934,-0.19940185546875,0.03582763671875,0.976806640625
1631632630935,-0.196533203125,0.03521728515625,0.97650146484375
1631632630935,-0.198974609375,0.034423828125,0.9786376953125
1631632630954,-0.19580078125,0.03704833984375,0.97906494140625
1631632630955,-0.19775390625,0.035888671875,0.98101806640625
1631632630958,-0.19403076171875,0.037841796875,0.9803466796875
1631632631030,-0.19879150390625,0.04034423828125,0.98583984375
1631632631030,-0.194580078125,0.0352783203125,0.98114013671875
1631632631030,-0.20037841796875,0.041748046875,0.97784423828125
1631632631080,-0.20263671875,0.03717041015625,0.96832275390625
1631632631081,-0.20245361328125,0.03778076171875,0.96160888671875
1631632631084,-0.1988525390625,0.04290771484375,0.96044921875
1631632631161,-0.1978759765625,0.04638671875,0.96734619140625
1631632631162,-0.19384765625,0.04364013671875,0.97369384765625
1631632631163,-0.19500732421875,0.0443115234375,0.98199462890625
1631632631182,-0.19091796875,0.0443115234375,0.9852294921875
1631632631182,-0.18975830078125,0.04302978515625,0.98504638671875
1631632631182,-0.1873779296875,0.0377197265625,0.98583984375
1631632631249,-0.18896484375,0.03607177734375,0.985107421875
1631632631250,-0.189697265625,0.03741455078125,0.98455810546875
1631632631250,-0.185791015625,0.03582763671875,0.97821044921875
1631632631329,-0.19329833984375,0.0433349609375,0.97503662109375
1631632631329,-0.19183349609375,0.039306640625,0.98126220703125
1631632631329,-0.19488525390625,0.04107666015625,0.97808837890625
1631632631365,-0.19207763671875,0.0406494140625,0.98138427734375
1631632631365,-0.19232177734375,0.04217529296875,0.97930908203125
1631632631377,-0.19183349609375,0.04302978515625,0.978515625
1631632631437,-0.19061279296875,0.0377197265625,0.9794921875
1631632631441,-0.1927490234375,0.0367431640625,0.978515625
1631632631443,-0.1904296875,0.03814697265625,0.97601318359375
1631632631521,-0.19134521484375,0.03741455078125,0.9830322265625
1631632631522,-0.19195556640625,0.03497314453125,0.9793701171875
1631632631523,-0.19598388671875,0.0355224609375,0.9793701171875
1631632631569,-0.19244384765625,0.03369140625,0.97833251953125
1631632631570,-0.19342041015625,0.03375244140625,0.97381591796875
1631632631570,-0.1947021484375,0.0347900390625,0.977783203125
1631632631603,-0.1932373046875,0.03411865234375,0.9732666015625
1631632631604,-0.19464111328125,0.03753662109375,0.97698974609375
1631632631604,-0.1953125,0.03497314453125,0.977783203125
1631632631649,-0.19140625,0.03704833984375,0.9754638671875
1631632631649,-0.19549560546875,0.0372314453125,0.978271484375
1631632631649,-0.19146728515625,0.0357666015625,0.9774169921875
1631632631782,-0.19244384765625,0.0390625,0.9775390625
1631632631782,-0.19085693359375,0.03680419921875,0.982666015625
1631632631782,-0.192626953125,0.03533935546875,0.9786376953125
1631632631817,-0.190673828125,0.0391845703125,0.97894287109375
1631632631819,-0.1873779296875,0.03631591796875,0.978271484375
1631632631820,-0.19268798828125,0.03271484375,0.98095703125
1631632631864,-0.19549560546875,0.03277587890625,0.982421875
1631632631869,-0.196044921875,0.02801513671875,0.9747314453125
1631632631871,-0.196533203125,0.03106689453125,0.973388671875
1631632631903,-0.19482421875,0.03076171875,0.974365234375
1631632631904,-0.1864013671875,0.03875732421875,0.976318359375
1631632631995,-0.18756103515625,0.03912353515625,0.97869873046875
1631632631997,-0.19012451171875,0.03729248046875,0.98223876953125
1631632631999,-0.18524169921875,0.0367431640625,0.9832763671875
1631632632050,-0.18914794921875,0.0379638671875,0.98443603515625
1631632632051,-0.187744140625,0.03369140625,0.98114013671875
1631632632052,-0.19268798828125,0.03570556640625,0.97393798828125
1631632632083,-0.19256591796875,0.03179931640625,0.9739990234375
1631632632084,-0.19293212890625,0.03228759765625,0.97637939453125
1631632632085,-0.19342041015625,0.0347900390625,0.97698974609375
1631632632145,-0.19110107421875,0.0343017578125,0.97393798828125
1631632632145,-0.1944580078125,0.03411865234375,0.97705078125
1631632632145,-0.1923828125,0.03369140625,0.978515625
1631632632226,-0.19390869140625,0.03656005859375,0.9771728515625
1631632632231,-0.1907958984375,0.0386962890625,0.98065185546875
1631632632234,-0.19287109375,0.0352783203125,0.98406982421875
1631632632267,-0.192626953125,0.03564453125,0.98565673828125
1631632632268,-0.19635009765625,0.0340576171875,0.98065185546875
1631632632269,-0.1943359375,0.03155517578125,0.98028564453125
1631632632320,-0.19476318359375,0.03179931640625,0.9737548828125
1631632632321,-0.1944580078125,0.03466796875,0.97137451171875
1631632632322,-0.19427490234375,0.032958984375,0.96875
1631632632368,-0.198486328125,0.03521728515625,0.97161865234375
1631632632368,-0.19384765625,0.03424072265625,0.9722900390625
1631632632368,-0.197509765625,0.036865234375,0.97393798828125
1631632632472,-0.18853759765625,0.03692626953125,0.9742431640625
1631632632474,-0.19549560546875,0.035400390625,0.9735107421875
1631632632475,-0.19244384765625,0.0380859375,0.9754638671875
1631632632500,-0.19232177734375,0.03900146484375,0.97637939453125
1631632632500,-0.1917724609375,0.03924560546875,0.9791259765625
1631632632501,-0.188232421875,0.0360107421875,0.98052978515625
1631632632554,-0.186767578125,0.0382080078125,0.98065185546875
1631632632554,-0.18609619140625,0.03857421875,0.982666015625
1631632632554,-0.19000244140625,0.03887939453125,0.9774169921875
1631632632615,-0.18695068359375,0.02960205078125,0.98370361328125
1631632632617,-0.18914794921875,0.0386962890625,0.98468017578125
1631632632618,-0.19134521484375,0.034912109375,0.98175048828125
1631632632678,-0.188720703125,0.0321044921875,0.97607421875
1631632632680,-0.189453125,0.03314208984375,0.97210693359375
1631632632682,-0.19085693359375,0.042236328125,0.975830078125
1631632632740,-0.186279296875,0.04608154296875,0.98028564453125
1631632632740,-0.1885986328125,0.04437255859375,0.9820556640625
1631632632741,-0.1875,0.04351806640625,0.982177734375
1631632632792,-0.19012451171875,0.047119140625,0.974365234375
1631632632792,-0.19061279296875,0.0418701171875,0.9783935546875
1631632632795,-0.1904296875,0.0362548828125,0.97686767578125
1631632632859,-0.1927490234375,0.032958984375,0.97686767578125
1631632632861,-0.19512939453125,0.03240966796875,0.97637939453125
1631632632862,-0.19854736328125,0.0313720703125,0.9705810546875
1631632632915,-0.19573974609375,0.0367431640625,0.9752197265625
1631632632917,-0.19842529296875,0.037841796875,0.96923828125
1631632632917,-0.19952392578125,0.03826904296875,0.973876953125
1631632632987,-0.19671630859375,0.033935546875,0.9737548828125
1631632632988,-0.1976318359375,0.037841796875,0.97900390625
1631632632989,-0.19635009765625,0.03790283203125,0.98126220703125
1631632633013,-0.19744873046875,0.041015625,0.98101806640625
1631632633014,-0.19415283203125,0.04315185546875,0.97882080078125
1631632633014,-0.1978759765625,0.0418701171875,0.98291015625
1631632633100,-0.19842529296875,0.0426025390625,0.973388671875
1631632633103,-0.1981201171875,0.0416259765625,0.97283935546875
1631632633103,-0.19891357421875,0.03741455078125,0.9715576171875
1631632633168,-0.19720458984375,0.04046630859375,0.974853515625
1631632633169,-0.19866943359375,0.0391845703125,0.97613525390625
1631632633170,-0.19866943359375,0.0413818359375,0.97369384765625
1631632633228,-0.1961669921875,0.04437255859375,0.97479248046875
1631632633231,-0.19451904296875,0.04205322265625,0.97418212890625
1631632633232,-0.19183349609375,0.04296875,0.972412109375
1631632633279,-0.19085693359375,0.04632568359375,0.97418212890625
1631632633281,-0.1875,0.0438232421875,0.978271484375
1631632633283,-0.1895751953125,0.0396728515625,0.97686767578125
1631632633304,-0.1868896484375,0.04034423828125,0.980712890625
1631632633304,-0.1837158203125,0.04254150390625,0.9871826171875
1631632633304,-0.18475341796875,0.03948974609375,0.97882080078125
1631632633429,-0.18798828125,0.04278564453125,0.98876953125
1631632633429,-0.18927001953125,0.039306640625,0.98236083984375
1631632633429,-0.18560791015625,0.0389404296875,0.97625732421875
1631632633498,-0.183349609375,0.04486083984375,0.9766845703125
1631632633504,-0.18499755859375,0.048583984375,0.9796142578125
1631632633506,-0.1864013671875,0.04852294921875,0.9820556640625
1631632633532,-0.1824951171875,0.0462646484375,0.98577880859375
1631632633533,-0.18316650390625,0.04449462890625,0.9849853515625
1631632633534,-0.19085693359375,0.04461669921875,0.98211669921875
1631632633552,-0.188232421875,0.039306640625,0.977783203125
1631632633555,-0.1922607421875,0.0377197265625,0.977783203125
1631632633556,-0.19195556640625,0.03863525390625,0.97540283203125
1631632633635,-0.19537353515625,0.03656005859375,0.97613525390625
1631632633635,-0.19854736328125,0.03790283203125,0.97735595703125
1631632633635,-0.19329833984375,0.03936767578125,0.9771728515625
1631632633707,-0.1953125,0.03753662109375,0.9720458984375
1631632633708,-0.19476318359375,0.03814697265625,0.9757080078125
1631632633708,-0.19439697265625,0.03717041015625,0.97381591796875
1631632633731,-0.19329833984375,0.0400390625,0.985107421875
1631632633732,-0.19317626953125,0.03955078125,0.986083984375
1631632633735,-0.19305419921875,0.0440673828125,0.9835205078125
1631632633820,-0.19482421875,0.03857421875,0.97314453125
1631632633820,-0.195068359375,0.0430908203125,0.9798583984375
1631632633822,-0.19378662109375,0.03985595703125,0.97454833984375
1631632633888,-0.2000732421875,0.03564453125,0.97235107421875
1631632633888,-0.19671630859375,0.03778076171875,0.9736328125
1631632633888,-0.19305419921875,0.03460693359375,0.9727783203125
1631632633931,-0.1923828125,0.03436279296875,0.9735107421875
1631632633931,-0.1934814453125,0.03790283203125,0.9735107421875
1631632633931,-0.19464111328125,0.03717041015625,0.97296142578125
1631632633999,-0.18963623046875,0.03759765625,0.97271728515625
1631632633999,-0.19232177734375,0.038818359375,0.97161865234375
1631632633999,-0.189453125,0.03802490234375,0.9757080078125
1631632634056,-0.18817138671875,0.04010009765625,0.97967529296875
1631632634057,-0.18505859375,0.040283203125,0.98443603515625
1631632634057,-0.18792724609375,0.04302978515625,0.98260498046875
1631632634108,-0.18804931640625,0.0384521484375,0.98797607421875
1631632634108,-0.1834716796875,0.0389404296875,0.98492431640625
1631632634111,-0.1868896484375,0.03607177734375,0.982421875
1631632634135,-0.18994140625,0.0352783203125,0.97552490234375
1631632634135,-0.18670654296875,0.03802490234375,0.97760009765625
1631632634135,-0.189453125,0.0313720703125,0.97869873046875
1631632634213,-0.18701171875,0.03839111328125,0.97955322265625
1631632634215,-0.18804931640625,0.04052734375,0.976806640625
1631632634215,-0.1890869140625,0.0364990234375,0.97869873046875
1631632634283,-0.18304443359375,0.04449462890625,0.97845458984375
1631632634284,-0.18780517578125,0.04388427734375,0.98321533203125
1631632634286,-0.18572998046875,0.0419921875,0.9837646484375
1631632634315,-0.1884765625,0.0341796875,0.97808837890625
1631632634315,-0.18707275390625,0.034912109375,0.98358154296875
1631632634315,-0.1866455078125,0.03411865234375,0.97723388671875
1631632634371,-0.190185546875,0.0345458984375,0.97528076171875
1631632634371,-0.1944580078125,0.0343017578125,0.98126220703125
1631632634374,-0.19110107421875,0.0333251953125,0.9755859375
1631632634423,-0.19354248046875,0.03643798828125,0.97998046875
1631632634423,-0.1875,0.038818359375,0.975830078125
1631632634423,-0.18975830078125,0.03741455078125,0.9761962890625
1631632634515,-0.1871337890625,0.0335693359375,0.97686767578125
1631632634515,-0.1873779296875,0.04193115234375,0.9752197265625
1631632634515,-0.18682861328125,0.03607177734375,0.9774169921875
1631632634578,-0.1865234375,0.0367431640625,0.982421875
1631632634578,-0.1829833984375,0.03662109375,0.98162841796875
1631632634578,-0.1861572265625,0.03497314453125,0.982421875
1631632634603,-0.1903076171875,0.03369140625,0.984619140625
1631632634603,-0.18548583984375,0.03875732421875,0.9820556640625
1631632634604,-0.18804931640625,0.03509521484375,0.9822998046875
1631632634681,-0.1888427734375,0.041015625,0.978515625
1631632634683,-0.190673828125,0.03900146484375,0.97930908203125
1631632634684,-0.18646240234375,0.04052734375,0.97607421875
1631632634746,-0.18621826171875,0.0369873046875,0.98046875
1631632634746,-0.19024658203125,0.03759765625,0.9805908203125
1631632634753,-0.1890869140625,0.0345458984375,0.9742431640625
1631632634822,-0.188720703125,0.0380859375,0.97412109375
1631632634823,-0.188720703125,0.03564453125,0.97674560546875
1631632634824,-0.19195556640625,0.0367431640625,0.98028564453125
1631632634871,-0.19293212890625,0.03009033203125,0.970703125
1631632634871,-0.19287109375,0.029541015625,0.96923828125
1631632634873,-0.186767578125,0.03375244140625,0.97259521484375
1631632634909,-0.19000244140625,0.04217529296875,0.9771728515625
1631632634910,-0.184326171875,0.0443115234375,0.98583984375
1631632634911,-0.180419921875,0.046142578125,0.985595703125
1631632634994,-0.18060302734375,0.0472412109375,0.9859619140625
1631632634994,-0.1793212890625,0.048583984375,0.98846435546875
1631632634995,-0.18267822265625,0.04278564453125,0.9840087890625
1631632635031,-0.186279296875,0.04339599609375,0.98321533203125
1631632635031,-0.1871337890625,0.0377197265625,0.97930908203125
1631632635041,-0.18389892578125,0.03668212890625,0.97430419921875
1631632635103,-0.18756103515625,0.03753662109375,0.97784423828125
1631632635103,-0.1884765625,0.03704833984375,0.98040771484375
1631632635103,-0.18817138671875,0.04248046875,0.971923828125
1631632635140,-0.18505859375,0.04010009765625,0.97528076171875
1631632635141,-0.19036865234375,0.04229736328125,0.97900390625
1631632635144,-0.18701171875,0.04425048828125,0.98004150390625
1631632635211,-0.18597412109375,0.0413818359375,0.9786376953125
1631632635212,-0.1826171875,0.0428466796875,0.9825439453125
1631632635214,-0.18157958984375,0.0382080078125,0.98089599609375
1631632635287,-0.18255615234375,0.04046630859375,0.983642578125
1631632635288,-0.18310546875,0.03759765625,0.9849853515625
1631632635289,-0.18701171875,0.03802490234375,0.98297119140625
1631632635340,-0.18756103515625,0.0406494140625,0.97821044921875
1631632635340,-0.187255859375,0.04241943359375,0.9805908203125
1631632635342,-0.1851806640625,0.04168701171875,0.97918701171875
1631632635396,-0.19024658203125,0.04656982421875,0.97607421875
1631632635396,-0.18707275390625,0.04388427734375,0.976806640625
1631632635398,-0.18487548828125,0.04681396484375,0.9747314453125
1631632635454,-0.18359375,0.0462646484375,0.97943115234375
1631632635454,-0.185302734375,0.05029296875,0.978759765625
1631632635454,-0.1883544921875,0.0474853515625,0.9739990234375
1631632635519,-0.181884765625,0.04522705078125,0.97711181640625
1631632635520,-0.18511962890625,0.042724609375,0.97650146484375
1631632635521,-0.18646240234375,0.04046630859375,0.98370361328125
1631632635568,-0.18890380859375,0.04315185546875,0.98687744140625
1631632635568,-0.18621826171875,0.0374755859375,0.97930908203125
1631632635568,-0.18231201171875,0.0355224609375,0.9725341796875
1631632635615,-0.1826171875,0.0419921875,0.97454833984375
1631632635616,-0.180908203125,0.04608154296875,0.98236083984375
1631632635616,-0.17889404296875,0.0472412109375,0.98297119140625
1631632635713,-0.17913818359375,0.04840087890625,0.9849853515625
1631632635713,-0.17431640625,0.04736328125,0.98565673828125
1631632635715,-0.17431640625,0.04547119140625,0.98297119140625
1631632635733,-0.17767333984375,0.0438232421875,0.9820556640625
1631632635734,-0.1796875,0.04254150390625,0.97705078125
1631632635735,-0.1793212890625,0.04522705078125,0.97747802734375
1631632635787,-0.18121337890625,0.04498291015625,0.9779052734375
1631632635788,-0.1829833984375,0.04638671875,0.9805908203125
1631632635788,-0.17822265625,0.04559326171875,0.9774169921875
1631632635860,-0.18206787109375,0.04876708984375,0.97576904296875
1631632635861,-0.17828369140625,0.0452880859375,0.97833251953125
1631632635866,-0.18280029296875,0.04730224609375,0.982421875
1631632635910,-0.18603515625,0.048095703125,0.9832763671875
1631632635912,-0.18133544921875,0.04779052734375,0.9874267578125
1631632635914,-0.1807861328125,0.04864501953125,0.98724365234375
1631632635974,-0.1817626953125,0.047119140625,0.98455810546875
1631632635977,-0.18572998046875,0.04693603515625,0.9796142578125
1631632636043,-0.1845703125,0.04888916015625,0.97540283203125
1631632636044,-0.19000244140625,0.0440673828125,0.97613525390625
1631632636046,-0.18817138671875,0.04443359375,0.97711181640625
1631632636126,-0.188232421875,0.0457763671875,0.97552490234375
1631632636127,-0.1898193359375,0.0413818359375,0.9737548828125
1631632636130,-0.18963623046875,0.04412841796875,0.976318359375
1631632636166,-0.19012451171875,0.04339599609375,0.9713134765625
1631632636166,-0.18878173828125,0.04443359375,0.973388671875
1631632636167,-0.18780517578125,0.041259765625,0.97491455078125
1631632636226,-0.1912841796875,0.040771484375,0.978515625
1631632636227,-0.1842041015625,0.0389404296875,0.98260498046875
1631632636228,-0.18310546875,0.03887939453125,0.97991943359375
1631632636282,-0.1873779296875,0.0391845703125,0.9881591796875
1631632636282,-0.18182373046875,0.0377197265625,0.982421875
1631632636282,-0.18499755859375,0.03436279296875,0.98779296875
1631632636347,-0.1849365234375,0.0335693359375,0.97637939453125
1631632636347,-0.18951416015625,0.03607177734375,0.986572265625
1631632636347,-0.18597412109375,0.03564453125,0.97357177734375
1631632636401,-0.18658447265625,0.04412841796875,0.97662353515625
1631632636402,-0.1776123046875,0.04510498046875,0.97723388671875
1631632636402,-0.18194580078125,0.0467529296875,0.97894287109375
1631632636460,-0.18499755859375,0.04193115234375,0.9796142578125
1631632636465,-0.18426513671875,0.03900146484375,0.9775390625
1631632636465,-0.18792724609375,0.041259765625,0.9818115234375
1631632636523,-0.18536376953125,0.032958984375,0.978271484375
1631632636524,-0.186767578125,0.034423828125,0.9736328125
1631632636525,-0.18804931640625,0.035888671875,0.97705078125
1631632636568,-0.1895751953125,0.03790283203125,0.97772216796875
1631632636569,-0.1888427734375,0.03668212890625,0.97821044921875
1631632636571,-0.18798828125,0.0374755859375,0.97808837890625
1631632636634,-0.18707275390625,0.04156494140625,0.97625732421875
1631632636634,-0.18695068359375,0.04522705078125,0.9803466796875
1631632636634,-0.1898193359375,0.04193115234375,0.97998046875
1631632636664,-0.18927001953125,0.04327392578125,0.9808349609375
1631632636664,-0.18768310546875,0.04449462890625,0.982421875
1631632636664,-0.1895751953125,0.04583740234375,0.98236083984375
1631632636744,-0.19012451171875,0.0390625,0.97955322265625
1631632636746,-0.18865966796875,0.041015625,0.9796142578125
1631632636748,-0.1929931640625,0.04156494140625,0.97998046875
1631632636832,-0.1868896484375,0.04132080078125,0.98040771484375
1631632636833,-0.19061279296875,0.04168701171875,0.97271728515625
1631632636834,-0.19073486328125,0.04241943359375,0.97369384765625
1631632636867,-0.19287109375,0.041748046875,0.97271728515625
1631632636868,-0.186279296875,0.037109375,0.97576904296875
1631632636870,-0.18975830078125,0.03729248046875,0.9761962890625
1631632636930,-0.1873779296875,0.0374755859375,0.9803466796875
1631632636931,-0.1851806640625,0.03582763671875,0.97857666015625
1631632636932,-0.18572998046875,0.0364990234375,0.97857666015625
1631632636972,-0.18212890625,0.0390625,0.979248046875
1631632636973,-0.1824951171875,0.03887939453125,0.98211669921875
1631632636973,-0.18377685546875,0.03741455078125,0.98553466796875
1631632637024,-0.178466796875,0.0377197265625,0.9827880859375
1631632637024,-0.18157958984375,0.0362548828125,0.98455810546875
1631632637033,-0.18011474609375,0.03448486328125,0.9808349609375
1631632637142,-0.18353271484375,0.0347900390625,0.98211669921875
1631632637147,-0.18359375,0.02740478515625,0.975341796875
1631632637147,-0.18634033203125,0.03033447265625,0.9783935546875
1631632637174,-0.181640625,0.03106689453125,0.97857666015625
1631632637174,-0.18096923828125,0.039794921875,0.9776611328125
1631632637174,-0.18414306640625,0.041259765625,0.98382568359375
1631632637240,-0.180419921875,0.041748046875,0.98486328125
1631632637241,-0.17767333984375,0.04046630859375,0.9854736328125
1631632637241,-0.182861328125,0.0458984375,0.9879150390625
1631632637300,-0.18402099609375,0.03936767578125,0.9791259765625
1631632637300,-0.181884765625,0.04034423828125,0.98455810546875
1631632637301,-0.19097900390625,0.03399658203125,0.97747802734375
1631632637368,-0.187744140625,0.0321044921875,0.97760009765625
1631632637369,-0.1873779296875,0.0347900390625,0.97943115234375
1631632637370,-0.1884765625,0.03656005859375,0.97528076171875
1631632637398,-0.186279296875,0.040283203125,0.97216796875
1631632637398,-0.18768310546875,0.0379638671875,0.97021484375
1631632637400,-0.1851806640625,0.04400634765625,0.97454833984375
1631632637446,-0.18585205078125,0.041748046875,0.9786376953125
1631632637446,-0.1868896484375,0.04095458984375,0.97894287109375
1631632637449,-0.18487548828125,0.04315185546875,0.98095703125
1631632637542,-0.1851806640625,0.04351806640625,0.9835205078125
1631632637545,-0.18695068359375,0.04144287109375,0.98126220703125
1631632637546,-0.18505859375,0.04547119140625,0.9808349609375
1631632637578,-0.1827392578125,0.04296875,0.98040771484375
1631632637579,-0.18487548828125,0.046630859375,0.97747802734375
1631632637580,-0.1868896484375,0.04248046875,0.97900390625
1631632637639,-0.18475341796875,0.04473876953125,0.9776611328125
1631632637642,-0.18438720703125,0.0406494140625,0.979248046875
1631632637701,-0.18597412109375,0.04132080078125,0.97998046875
1631632637701,-0.18524169921875,0.0416259765625,0.976806640625
1631632637769,-0.1824951171875,0.042236328125,0.97021484375
1631632637772,-0.1834716796875,0.0430908203125,0.97735595703125
1631632637773,-0.18670654296875,0.04278564453125,0.9796142578125
1631632637804,-0.18438720703125,0.0435791015625,0.98175048828125
1631632637805,-0.18377685546875,0.04046630859375,0.97998046875
1631632637806,-0.184326171875,0.0401611328125,0.97894287109375
1631632637890,-0.1864013671875,0.0396728515625,0.9886474609375
1631632637986,-0.185546875,0.03778076171875,0.970703125
1631632637986,-0.1866455078125,0.04296875,0.97479248046875
1631632637987,-0.1842041015625,0.046630859375,0.97802734375
1631632638010,-0.181884765625,0.04864501953125,0.98577880859375
1631632638013,-0.18115234375,0.04559326171875,0.9876708984375
1631632638015,-0.1788330078125,0.0460205078125,0.984130859375
1631632638058,-0.1815185546875,0.04461669921875,0.98193359375
1631632638059,-0.1842041015625,0.044189453125,0.98040771484375
1631632638061,-0.1859130859375,0.04345703125,0.97900390625
1631632638093,-0.1842041015625,0.0386962890625,0.98150634765625
1631632638096,-0.18267822265625,0.03973388671875,0.97894287109375
1631632638096,-0.187744140625,0.042724609375,0.98358154296875
1631632638170,-0.18206787109375,0.04266357421875,0.980224609375
1631632638172,-0.185546875,0.039794921875,0.9735107421875
1631632638173,-0.18695068359375,0.04400634765625,0.97479248046875
1631632638232,-0.18817138671875,0.04730224609375,0.97509765625
1631632638233,-0.188720703125,0.04510498046875,0.97772216796875
1631632638236,-0.1904296875,0.0450439453125,0.979736328125
1631632638279,-0.18524169921875,0.0478515625,0.97760009765625
1631632638279,-0.18695068359375,0.0504150390625,0.97894287109375
1631632638279,-0.1849365234375,0.0479736328125,0.97930908203125
1631632638324,-0.185791015625,0.05029296875,0.97808837890625
1631632638326,-0.18408203125,0.05181884765625,0.97796630859375
1631632638326,-0.18414306640625,0.049560546875,0.98028564453125
1631632638399,-0.18731689453125,0.04791259765625,0.979736328125
1631632638400,-0.18426513671875,0.04669189453125,0.97882080078125
1631632638400,-0.1859130859375,0.04937744140625,0.97967529296875
1631632638466,-0.18341064453125,0.047607421875,0.97955322265625
1631632638467,-0.1844482421875,0.044677734375,0.9764404296875
1631632638467,-0.1851806640625,0.0477294921875,0.98138427734375
1631632638492,-0.18255615234375,0.04388427734375,0.97833251953125
1631632638492,-0.18731689453125,0.04522705078125,0.97418212890625
1631632638492,-0.18634033203125,0.04266357421875,0.9744873046875
1631632638562,-0.18798828125,0.0439453125,0.98126220703125
1631632638562,-0.1829833984375,0.043701171875,0.97991943359375
1631632638562,-0.1844482421875,0.04022216796875,0.97589111328125
1631632638665,-0.1810302734375,0.041748046875,0.9803466796875
1631632638666,-0.187744140625,0.03936767578125,0.98846435546875
1631632638667,-0.18792724609375,0.04180908203125,0.98052978515625
1631632638698,-0.18572998046875,0.03643798828125,0.9757080078125
1631632638708,-0.186767578125,0.0369873046875,0.96942138671875
1631632638710,-0.18707275390625,0.0418701171875,0.9759521484375
1631632638754,-0.1844482421875,0.0460205078125,0.97906494140625
1631632638755,-0.1866455078125,0.0484619140625,0.9852294921875
1631632638759,-0.1842041015625,0.0489501953125,0.98321533203125
1631632638809,-0.1866455078125,0.0482177734375,0.98443603515625
1631632638809,-0.18212890625,0.0458984375,0.98052978515625
1631632638810,-0.18212890625,0.04248046875,0.97589111328125
1631632638870,-0.1884765625,0.03924560546875,0.977294921875
1631632638870,-0.1868896484375,0.03802490234375,0.97589111328125
1631632638871,-0.1871337890625,0.035888671875,0.9757080078125
1631632638935,-0.186767578125,0.039794921875,0.97991943359375
1631632638936,-0.18548583984375,0.0401611328125,0.973388671875
1631632638998,-0.18646240234375,0.04559326171875,0.97735595703125
1631632638998,-0.18707275390625,0.0455322265625,0.97955322265625
1631632638998,-0.18701171875,0.047607421875,0.9764404296875
1631632639032,-0.18695068359375,0.04412841796875,0.9832763671875
1631632639032,-0.1861572265625,0.0474853515625,0.9818115234375
1631632639032,-0.18646240234375,0.04449462890625,0.98101806640625
1631632639103,-0.184326171875,0.04534912109375,0.9810791015625
1631632639106,-0.1837158203125,0.03985595703125,0.9805908203125
1631632639108,-0.18353271484375,0.039306640625,0.9775390625
1631632639167,-0.18438720703125,0.04534912109375,0.9786376953125
1631632639167,-0.1854248046875,0.03875732421875,0.9774169921875
1631632639167,-0.18505859375,0.0430908203125,0.9786376953125
1631632639234,-0.183349609375,0.04608154296875,0.97967529296875
1631632639234,-0.185546875,0.04254150390625,0.9810791015625
1631632639236,-0.1851806640625,0.0430908203125,0.97845458984375
1631632639275,-0.18609619140625,0.0408935546875,0.9783935546875
1631632639276,-0.18157958984375,0.0428466796875,0.9730224609375
1631632639276,-0.18157958984375,0.0389404296875,0.97705078125
1631632639376,-0.17852783203125,0.04071044921875,0.97967529296875
1631632639378,-0.1785888671875,0.03936767578125,0.98486328125
1631632639383,-0.17852783203125,0.03936767578125,0.9825439453125
1631632639411,-0.1817626953125,0.040771484375,0.98193359375
1631632639412,-0.17889404296875,0.0386962890625,0.98272705078125
1631632639414,-0.17718505859375,0.03369140625,0.985107421875
1631632639451,-0.18231201171875,0.03570556640625,0.98431396484375
1631632639452,-0.1856689453125,0.03271484375,0.9779052734375
1631632639453,-0.18048095703125,0.03167724609375,0.97564697265625
1631632639521,-0.18218994140625,0.0362548828125,0.9716796875
1631632639524,-0.180419921875,0.0408935546875,0.98309326171875
1631632639525,-0.174072265625,0.04510498046875,0.9864501953125
1631632639587,-0.17828369140625,0.04693603515625,0.98388671875
1631632639588,-0.17724609375,0.0489501953125,0.9871826171875
1631632639589,-0.17510986328125,0.04620361328125,0.986083984375
1631632639615,-0.17529296875,0.03765869140625,0.98260498046875
1631632639615,-0.17657470703125,0.03912353515625,0.98614501953125
1631632639615,-0.18115234375,0.03460693359375,0.97833251953125
1631632639692,-0.18023681640625,0.0364990234375,0.9764404296875
1631632639694,-0.18206787109375,0.03839111328125,0.980712890625
1631632639696,-0.1826171875,0.04052734375,0.97802734375
1631632639747,-0.18133544921875,0.0423583984375,0.97735595703125
1631632639747,-0.17950439453125,0.03973388671875,0.97698974609375
1631632639748,-0.183349609375,0.03900146484375,0.97955322265625
1631632639824,-0.18402099609375,0.04022216796875,0.97869873046875
1631632639824,-0.18328857421875,0.04351806640625,0.981201171875
1631632639828,-0.1817626953125,0.04290771484375,0.983642578125
1631632639866,-0.18072509765625,0.0465087890625,0.98370361328125
1631632639866,-0.18408203125,0.04119873046875,0.98406982421875
1631632639866,-0.1826171875,0.04046630859375,0.98455810546875
1631632639925,-0.18487548828125,0.03997802734375,0.98162841796875
1631632639926,-0.18353271484375,0.038818359375,0.97869873046875
1631632639926,-0.18780517578125,0.03997802734375,0.97698974609375
1631632639998,-0.18817138671875,0.03955078125,0.97314453125
1631632639998,-0.19036865234375,0.0396728515625,0.97296142578125
1631632640008,-0.1878662109375,0.0408935546875,0.97607421875
1631632640053,-0.18475341796875,0.04156494140625,0.9761962890625
1631632640054,-0.1845703125,0.04052734375,0.9781494140625
1631632640055,-0.18353271484375,0.039794921875,0.9764404296875
1631632640092,-0.18157958984375,0.03961181640625,0.97412109375
1631632640096,-0.18438720703125,0.04168701171875,0.97930908203125
1631632640098,-0.1783447265625,0.042236328125,0.9813232421875
1631632640170,-0.18048095703125,0.04437255859375,0.98394775390625
1631632640171,-0.17681884765625,0.0435791015625,0.9833984375
1631632640171,-0.17791748046875,0.0400390625,0.98199462890625
1631632640219,-0.17828369140625,0.043212890625,0.98468017578125
1631632640219,-0.1827392578125,0.03564453125,0.9853515625
1631632640219,-0.18170166015625,0.04034423828125,0.990966796875
1631632640304,-0.18426513671875,0.03076171875,0.97723388671875
1631632640305,-0.18121337890625,0.03546142578125,0.97265625
1631632640306,-0.1773681640625,0.042724609375,0.97637939453125
1631632640324,-0.1776123046875,0.048828125,0.9842529296875
1631632640324,-0.17645263671875,0.04864501953125,0.98358154296875
1631632640324,-0.1783447265625,0.05023193359375,0.982666015625
1631632640382,-0.1807861328125,0.048828125,0.9814453125
1631632640383,-0.17919921875,0.04180908203125,0.97784423828125
1631632640383,-0.17767333984375,0.04827880859375,0.98016357421875
1631632640480,-0.18621826171875,0.03790283203125,0.97705078125
1631632640481,-0.184326171875,0.0413818359375,0.97491455078125
1631632640481,-0.183349609375,0.0380859375,0.9771728515625
1631632640514,-0.18658447265625,0.0426025390625,0.978271484375
1631632640514,-0.18804931640625,0.041748046875,0.97845458984375
1631632640514,-0.18646240234375,0.04302978515625,0.9779052734375
1631632640582,-0.1861572265625,0.04302978515625,0.973388671875
1631632640582,-0.18768310546875,0.0421142578125,0.9771728515625
1631632640584,-0.1864013671875,0.041259765625,0.9825439453125
1631632640617,-0.18511962890625,0.04248046875,0.98077392578125
1631632640617,-0.18634033203125,0.04754638671875,0.98114013671875
1631632640617,-0.1873779296875,0.046630859375,0.9805908203125
1631632640716,-0.18499755859375,0.046142578125,0.97900390625
1631632640717,-0.18634033203125,0.04351806640625,0.97540283203125
1631632640718,-0.186767578125,0.0457763671875,0.97802734375
1631632640760,-0.1868896484375,0.04498291015625,0.97686767578125
1631632640762,-0.18487548828125,0.04754638671875,0.97674560546875
1631632640763,-0.18646240234375,0.0445556640625,0.98040771484375
1631632640787,-0.18243408203125,0.044921875,0.9801025390625
1631632640787,-0.18353271484375,0.0458984375,0.9783935546875
1631632640787,-0.1846923828125,0.046630859375,0.979248046875
1631632640850,-0.1829833984375,0.0458984375,0.97796630859375
1631632640850,-0.187255859375,0.04254150390625,0.97698974609375
1631632640850,-0.18341064453125,0.04608154296875,0.98095703125
1631632640922,-0.179931640625,0.04443359375,0.98175048828125
1631632640922,-0.1807861328125,0.0419921875,0.9801025390625
1631632640922,-0.18231201171875,0.04095458984375,0.9830322265625
1631632641002,-0.18310546875,0.0419921875,0.98455810546875
1631632641003,-0.18560791015625,0.04168701171875,0.9840087890625
1631632641005,-0.183349609375,0.03997802734375,0.97845458984375
1631632641054,-0.18218994140625,0.03460693359375,0.97235107421875
1631632641056,-0.185302734375,0.0391845703125,0.97662353515625
1631632641057,-0.1802978515625,0.044677734375,0.9818115234375
1631632641131,-0.17767333984375,0.04888916015625,0.9810791015625
1631632641133,-0.17889404296875,0.05059814453125,0.980712890625
1631632641133,-0.1781005859375,0.048095703125,0.9805908203125
1631632641181,-0.181396484375,0.0489501953125,0.9810791015625
1631632641181,-0.18365478515625,0.0477294921875,0.980712890625
1631632641182,-0.1817626953125,0.0455322265625,0.9814453125
1631632641209,-0.18621826171875,0.04437255859375,0.977783203125
1631632641209,-0.18841552734375,0.045166015625,0.97332763671875
1631632641209,-0.18914794921875,0.04461669921875,0.9766845703125
1631632641278,-0.186279296875,0.046875,0.97247314453125
1631632641280,-0.183349609375,0.04669189453125,0.9757080078125
1631632641280,-0.185546875,0.04327392578125,0.9676513671875
1631632641364,-0.17926025390625,0.0496826171875,0.98992919921875
1631632641364,-0.18023681640625,0.05377197265625,0.98779296875
1631632641364,-0.17950439453125,0.047607421875,0.98150634765625
1631632641436,-0.181640625,0.0498046875,0.99267578125
1631632641436,-0.18121337890625,0.04998779296875,0.98345947265625
1631632641436,-0.18157958984375,0.04986572265625,0.98992919921875
1631632641458,-0.1807861328125,0.05023193359375,0.9808349609375
1631632641459,-0.1844482421875,0.0450439453125,0.97882080078125
1631632641459,-0.180419921875,0.04583740234375,0.9830322265625
1631632641524,-0.18121337890625,0.04205322265625,0.976318359375
1631632641525,-0.18511962890625,0.0458984375,0.97711181640625
1631632641525,-0.18603515625,0.04754638671875,0.9814453125
1631632641548,-0.1822509765625,0.04754638671875,0.978759765625
1631632641548,-0.18084716796875,0.04931640625,0.97637939453125
1631632641678,-0.18402099609375,0.048583984375,0.97918701171875
1631632641679,-0.180419921875,0.04833984375,0.9761962890625
1631632641715,-0.18145751953125,0.0469970703125,0.9876708984375
1631632641715,-0.18212890625,0.04608154296875,0.98272705078125
1631632641715,-0.179443359375,0.04376220703125,0.97930908203125
1631632641739,-0.1806640625,0.0435791015625,0.97467041015625
1631632641742,-0.1787109375,0.04571533203125,0.9761962890625
1631632641743,-0.1783447265625,0.046875,0.97808837890625
1631632641860,-0.178466796875,0.04931640625,0.98193359375
1631632641860,-0.1768798828125,0.0526123046875,0.9844970703125
1631632641861,-0.17437744140625,0.04913330078125,0.984130859375
1631632641939,-0.17608642578125,0.044921875,0.982177734375
1631632641940,-0.17694091796875,0.04833984375,0.98101806640625
1631632641941,-0.18084716796875,0.044189453125,0.9833984375
1631632641963,-0.177734375,0.041015625,0.9822998046875
1631632641965,-0.1824951171875,0.0390625,0.98040771484375
1631632641966,-0.18231201171875,0.0382080078125,0.98162841796875
1631632642013,-0.18475341796875,0.03912353515625,0.9827880859375
1631632642014,-0.18359375,0.0416259765625,0.98077392578125
1631632642015,-0.1849365234375,0.037841796875,0.97686767578125
1631632642069,-0.18133544921875,0.04022216796875,0.974365234375
1631632642072,-0.18328857421875,0.044921875,0.97650146484375
1631632642073,-0.18658447265625,0.0472412109375,0.98193359375
1631632642117,-0.182861328125,0.048828125,0.98223876953125
1631632642118,-0.184326171875,0.0501708984375,0.98248291015625
1631632642119,-0.18609619140625,0.047607421875,0.98101806640625
1631632642179,-0.18328857421875,0.0460205078125,0.97735595703125
1631632642179,-0.181640625,0.04547119140625,0.9794921875
1631632642179,-0.1829833984375,0.04779052734375,0.97900390625
1631632642251,-0.18353271484375,0.04449462890625,0.97869873046875
1631632642251,-0.18133544921875,0.04443359375,0.978515625
1631632642253,-0.182373046875,0.046875,0.97412109375
1631632642309,-0.18035888671875,0.04388427734375,0.97540283203125
1631632642315,-0.180419921875,0.04290771484375,0.98150634765625
1631632642316,-0.1802978515625,0.048095703125,0.98480224609375
1631632642339,-0.17626953125,0.04541015625,0.9822998046875
1631632642340,-0.1768798828125,0.04638671875,0.980224609375
1631632642341,-0.17816162109375,0.0438232421875,0.9796142578125
1631632642403,-0.1810302734375,0.0423583984375,0.98565673828125
1631632642404,-0.1815185546875,0.0379638671875,0.98394775390625
1631632642405,-0.1796875,0.0333251953125,0.97686767578125
1631632642447,-0.178955078125,0.03289794921875,0.976318359375
1631632642448,-0.17694091796875,0.04168701171875,0.97900390625
1631632642449,-0.1817626953125,0.0469970703125,0.98388671875
1631632642533,-0.177001953125,0.0499267578125,0.9835205078125
1631632642533,-0.1741943359375,0.05108642578125,0.98052978515625
1631632642533,-0.17864990234375,0.04803466796875,0.981201171875
1631632642590,-0.17474365234375,0.045166015625,0.97991943359375
1631632642590,-0.17877197265625,0.04034423828125,0.98040771484375
1631632642594,-0.1785888671875,0.0386962890625,0.979736328125
1631632642641,-0.1807861328125,0.03253173828125,0.9813232421875
1631632642641,-0.183349609375,0.0361328125,0.98126220703125
1631632642641,-0.17950439453125,0.0340576171875,0.97772216796875
1631632642687,-0.18060302734375,0.03826904296875,0.980712890625
1631632642688,-0.18310546875,0.03955078125,0.9788818359375
1631632642688,-0.18157958984375,0.04022216796875,0.9774169921875
1631632642753,-0.17852783203125,0.042236328125,0.9854736328125
1631632642753,-0.18450927734375,0.04071044921875,0.98052978515625
1631632642753,-0.1805419921875,0.03924560546875,0.98858642578125
1631632642820,-0.1783447265625,0.04119873046875,0.985107421875
1631632642830,-0.17767333984375,0.04254150390625,0.98028564453125
1631632642831,-0.18341064453125,0.045166015625,0.980224609375
1631632642876,-0.1842041015625,0.046630859375,0.978271484375
1631632642877,-0.1827392578125,0.04437255859375,0.97955322265625
1631632642878,-0.18280029296875,0.04248046875,0.975341796875
1631632642944,-0.184814453125,0.042724609375,0.9755859375
1631632642947,-0.1851806640625,0.04296875,0.97705078125
1631632642948,-0.18463134765625,0.04229736328125,0.9732666015625
1631632642988,-0.183837890625,0.0428466796875,0.975341796875
1631632642988,-0.18157958984375,0.04339599609375,0.977294921875
1631632642990,-0.18377685546875,0.04315185546875,0.98046875
1631632643049,-0.18316650390625,0.0391845703125,0.9862060546875
1631632643049,-0.18536376953125,0.0423583984375,0.9854736328125
1631632643049,-0.1815185546875,0.039306640625,0.987548828125
1631632643108,-0.18719482421875,0.03607177734375,0.98809814453125
1631632643109,-0.185791015625,0.03045654296875,0.9771728515625
1631632643165,-0.185546875,0.030029296875,0.9700927734375
1631632643167,-0.18682861328125,0.03857421875,0.97265625
1631632643168,-0.18682861328125,0.0460205078125,0.97698974609375
1631632643228,-0.183837890625,0.05059814453125,0.97772216796875
1631632643228,-0.18194580078125,0.0491943359375,0.97930908203125
1631632643228,-0.18450927734375,0.0528564453125,0.981689453125
1631632643299,-0.17828369140625,0.05157470703125,0.97821044921875
1631632643300,-0.17999267578125,0.04571533203125,0.97674560546875
1631632643302,-0.1815185546875,0.0428466796875,0.977294921875
1631632643346,-0.1815185546875,0.03955078125,0.9783935546875
1631632643346,-0.1815185546875,0.03961181640625,0.97515869140625
1631632643348,-0.1851806640625,0.03778076171875,0.9825439453125
1631632643402,-0.1842041015625,0.0404052734375,0.97589111328125
1631632643402,-0.1854248046875,0.0367431640625,0.982666015625
1631632643403,-0.18377685546875,0.03924560546875,0.97735595703125
1631632643473,-0.18548583984375,0.0419921875,0.98199462890625
1631632643475,-0.18212890625,0.04595947265625,0.984375
1631632643475,-0.1837158203125,0.0411376953125,0.9830322265625
1631632643514,-0.18328857421875,0.04541015625,0.9827880859375
1631632643515,-0.18890380859375,0.0440673828125,0.97998046875
1631632643515,-0.18505859375,0.04425048828125,0.98199462890625
1631632643597,-0.18621826171875,0.04296875,0.97943115234375
1631632643599,-0.1834716796875,0.04534912109375,0.977783203125
1631632643600,-0.1846923828125,0.0419921875,0.976806640625
1631632643648,-0.186279296875,0.04486083984375,0.97857666015625
1631632643649,-0.1888427734375,0.0445556640625,0.97772216796875
1631632643650,-0.18621826171875,0.04486083984375,0.97772216796875
1631632643703,-0.1884765625,0.04534912109375,0.9722900390625
1631632643704,-0.1837158203125,0.0435791015625,0.9765625
1631632643704,-0.18475341796875,0.0428466796875,0.9774169921875
1631632643757,-0.17822265625,0.04248046875,0.98248291015625
1631632643757,-0.18206787109375,0.0426025390625,0.98101806640625
1631632643757,-0.18157958984375,0.03887939453125,0.9830322265625
1631632643817,-0.18463134765625,0.04180908203125,0.982666015625
1631632643818,-0.18572998046875,0.0396728515625,0.97418212890625
1631632643818,-0.1884765625,0.0467529296875,0.98504638671875
1631632643874,-0.18115234375,0.04248046875,0.97210693359375
1631632643875,-0.1812744140625,0.0482177734375,0.97686767578125
1631632643876,-0.17852783203125,0.0517578125,0.9815673828125
1631632643971,-0.17706298828125,0.04974365234375,0.98486328125
1631632643971,-0.180908203125,0.05133056640625,0.98236083984375
1631632643972,-0.17657470703125,0.0501708984375,0.98419189453125
1631632643997,-0.1810302734375,0.051025390625,0.97796630859375
1631632643998,-0.18048095703125,0.048583984375,0.9776611328125
1631632644000,-0.1829833984375,0.0458984375,0.97613525390625
1631632644037,-0.18115234375,0.04327392578125,0.97515869140625
1631632644038,-0.18267822265625,0.04290771484375,0.97662353515625
1631632644039,-0.1827392578125,0.04241943359375,0.97784423828125
1631632644133,-0.185302734375,0.041748046875,0.9764404296875
1631632644134,-0.18389892578125,0.04327392578125,0.9786376953125
1631632644135,-0.1824951171875,0.04632568359375,0.98388671875
1631632644170,-0.180419921875,0.04296875,0.9869384765625
1631632644179,-0.177734375,0.0460205078125,0.99017333984375
1631632644181,-0.1802978515625,0.0452880859375,0.98822021484375
1631632644220,-0.18310546875,0.0458984375,0.98748779296875
1631632644221,-0.18414306640625,0.048583984375,0.9815673828125
1631632644221,-0.182373046875,0.04571533203125,0.97705078125
1631632644273,-0.1866455078125,0.04486083984375,0.97174072265625
1631632644273,-0.1865234375,0.04144287109375,0.97393798828125
1631632644366,-0.187255859375,0.04296875,0.979248046875
1631632644366,-0.19097900390625,0.04302978515625,0.971435546875
1631632644366,-0.18109130859375,0.04449462890625,0.9739990234375
1631632644444,-0.18408203125,0.04541015625,0.978271484375
1631632644448,-0.180419921875,0.04656982421875,0.97760009765625
1631632644449,-0.183349609375,0.044677734375,0.97802734375
1631632644483,-0.1817626953125,0.0435791015625,0.98046875
1631632644484,-0.1766357421875,0.0443115234375,0.98565673828125
1631632644484,-0.1812744140625,0.0418701171875,0.9818115234375
1631632644512,-0.1773681640625,0.04315185546875,0.99188232421875
1631632644513,-0.18170166015625,0.046630859375,0.9874267578125
1631632644514,-0.18896484375,0.04217529296875,0.978515625
1631632644597,-0.18292236328125,0.04327392578125,0.96990966796875
1631632644597,-0.18109130859375,0.05078125,0.97412109375
1631632644603,-0.1824951171875,0.05364990234375,0.97589111328125
1631632644689,-0.1796875,0.0540771484375,0.98236083984375
1631632644690,-0.1805419921875,0.050048828125,0.98553466796875
1631632644691,-0.1822509765625,0.05157470703125,0.9852294921875
1631632644719,-0.1817626953125,0.045654296875,0.97650146484375
1631632644720,-0.18231201171875,0.03924560546875,0.97723388671875
1631632644721,-0.18170166015625,0.04156494140625,0.977294921875
1631632644756,-0.1864013671875,0.0408935546875,0.97509765625
1631632644756,-0.18096923828125,0.03875732421875,0.97808837890625
1631632644759,-0.19024658203125,0.04052734375,0.97796630859375
1631632644833,-0.186279296875,0.04010009765625,0.98150634765625
1631632644834,-0.1893310546875,0.041259765625,0.9771728515625
1631632644834,-0.18487548828125,0.0384521484375,0.97918701171875
1631632644876,-0.1881103515625,0.04010009765625,0.979736328125
1631632644877,-0.18634033203125,0.04229736328125,0.9844970703125
1631632644877,-0.1846923828125,0.04022216796875,0.97967529296875
1631632644936,-0.18927001953125,0.043701171875,0.98162841796875
1631632644937,-0.1864013671875,0.0440673828125,0.9774169921875
1631632644938,-0.186279296875,0.040771484375,0.976806640625
1631632644988,-0.18792724609375,0.0419921875,0.9766845703125
1631632644990,-0.184814453125,0.04083251953125,0.97467041015625
1631632644992,-0.18914794921875,0.04156494140625,0.9794921875
1631632645041,-0.19171142578125,0.04541015625,0.98297119140625
1631632645041,-0.185546875,0.044921875,0.97918701171875
1631632645042,-0.18536376953125,0.0428466796875,0.9744873046875
1631632645102,-0.18695068359375,0.042236328125,0.97967529296875
1631632645102,-0.186767578125,0.04638671875,0.97467041015625
1631632645102,-0.18853759765625,0.0465087890625,0.97991943359375
1631632645159,-0.1865234375,0.03948974609375,0.9822998046875
1631632645214,-0.1875,0.0419921875,0.98583984375
1631632645215,-0.18743896484375,0.03570556640625,0.98175048828125
1631632645216,-0.19000244140625,0.03253173828125,0.974853515625
1631632645286,-0.1856689453125,0.03955078125,0.97344970703125
1631632645286,-0.18450927734375,0.049072265625,0.9765625
1631632645287,-0.18524169921875,0.05072021484375,0.97686767578125
1631632645363,-0.18316650390625,0.04962158203125,0.98089599609375
1631632645364,-0.18487548828125,0.0494384765625,0.98236083984375
1631632645365,-0.18133544921875,0.0472412109375,0.984130859375
1631632645400,-0.18145751953125,0.04205322265625,0.98175048828125
1631632645400,-0.1846923828125,0.0426025390625,0.98358154296875
1631632645401,-0.18359375,0.038330078125,0.9794921875
1631632645459,-0.18402099609375,0.04193115234375,0.97454833984375
1631632645460,-0.18829345703125,0.03936767578125,0.9759521484375
1631632645460,-0.1883544921875,0.040771484375,0.97967529296875
1631632645534,-0.1866455078125,0.03814697265625,0.97552490234375
1631632645534,-0.18817138671875,0.038330078125,0.97552490234375
1631632645535,-0.18878173828125,0.04144287109375,0.980224609375
1631632645610,-0.1861572265625,0.045166015625,0.97906494140625
1631632645611,-0.18896484375,0.04522705078125,0.982666015625
1631632645613,-0.18682861328125,0.04034423828125,0.9815673828125
1631632645658,-0.18768310546875,0.04058837890625,0.98089599609375
1631632645659,-0.1884765625,0.0419921875,0.98046875
1631632645660,-0.18896484375,0.04229736328125,0.97784423828125
1631632645682,-0.19091796875,0.04046630859375,0.97613525390625
1631632645683,-0.19024658203125,0.038330078125,0.97509765625
1631632645683,-0.1925048828125,0.03912353515625,0.97674560546875
1631632645815,-0.18853759765625,0.0372314453125,0.97235107421875
1631632645816,-0.1917724609375,0.03790283203125,0.972412109375
1631632645817,-0.1865234375,0.03558349609375,0.97174072265625
1631632645832,-0.18646240234375,0.03729248046875,0.97552490234375
1631632645833,-0.19342041015625,0.040771484375,0.9786376953125
1631632645834,-0.18658447265625,0.04180908203125,0.97967529296875
1631632645886,-0.1844482421875,0.04010009765625,0.97900390625
1631632645887,-0.18218994140625,0.03765869140625,0.982421875
1631632645969,-0.1866455078125,0.03668212890625,0.98309326171875
1631632645971,-0.184814453125,0.03271484375,0.975830078125
1631632645972,-0.1878662109375,0.033203125,0.9757080078125
1631632646017,-0.1849365234375,0.04327392578125,0.9805908203125
1631632646017,-0.1864013671875,0.0369873046875,0.97589111328125
1631632646018,-0.18133544921875,0.0440673828125,0.97918701171875
1631632646074,-0.181396484375,0.04522705078125,0.98370361328125
1631632646075,-0.1790771484375,0.044921875,0.98431396484375
1631632646075,-0.18328857421875,0.04486083984375,0.98162841796875
1631632646105,-0.18609619140625,0.03875732421875,0.98004150390625
1631632646106,-0.1834716796875,0.03424072265625,0.9813232421875
1631632646106,-0.18505859375,0.03765869140625,0.9830322265625
1631632646206,-0.1817626953125,0.03607177734375,0.97723388671875
1631632646207,-0.18621826171875,0.03521728515625,0.97943115234375
1631632646208,-0.18634033203125,0.040283203125,0.981689453125
1631632646255,-0.18609619140625,0.0382080078125,0.97943115234375
1631632646263,-0.18707275390625,0.04052734375,0.98248291015625
1631632646265,-0.18487548828125,0.0384521484375,0.98309326171875
1631632646286,-0.188720703125,0.03900146484375,0.979736328125
1631632646287,-0.19219970703125,0.03607177734375,0.9774169921875
1631632646331,-0.18804931640625,0.0379638671875,0.9803466796875
1631632646331,-0.18939208984375,0.0391845703125,0.9754638671875
1631632646332,-0.18975830078125,0.04132080078125,0.97491455078125
1631632646426,-0.19207763671875,0.0418701171875,0.9764404296875
1631632646426,-0.1920166015625,0.036865234375,0.97662353515625
1631632646427,-0.1895751953125,0.0386962890625,0.9765625
1631632646469,-0.18646240234375,0.03985595703125,0.9732666015625
1631632646469,-0.18780517578125,0.0418701171875,0.97515869140625
1631632646470,-0.18731689453125,0.03900146484375,0.97503662109375
1631632646537,-0.18634033203125,0.04351806640625,0.9766845703125
1631632646538,-0.18670654296875,0.03973388671875,0.9808349609375
1631632646538,-0.18670654296875,0.04168701171875,0.97869873046875
1631632646566,-0.18609619140625,0.0360107421875,0.98211669921875
1631632646567,-0.184326171875,0.03533935546875,0.984375
1631632646568,-0.18597412109375,0.034423828125,0.98809814453125
1631632646657,-0.19097900390625,0.03656005859375,0.9881591796875
1631632646659,-0.189208984375,0.03521728515625,0.978515625
1631632646660,-0.18896484375,0.03509521484375,0.97265625
1631632646696,-0.18988037109375,0.04156494140625,0.972900390625
1631632646697,-0.18487548828125,0.04400634765625,0.97772216796875
1631632646698,-0.1845703125,0.047607421875,0.9794921875
1631632646745,-0.18243408203125,0.0452880859375,0.98223876953125
1631632646746,-0.1826171875,0.0506591796875,0.98187255859375
1631632646747,-0.18365478515625,0.046875,0.9786376953125
1631632646800,-0.18701171875,0.03924560546875,0.97796630859375
1631632646800,-0.18560791015625,0.0472412109375,0.9776611328125
1631632646801,-0.18792724609375,0.04052734375,0.97821044921875
1631632646903,-0.18658447265625,0.03814697265625,0.97723388671875
1631632646904,-0.189453125,0.039794921875,0.974853515625
1631632646905,-0.192626953125,0.03729248046875,0.9747314453125
1631632646935,-0.1878662109375,0.04266357421875,0.979736328125
1631632646935,-0.1883544921875,0.03790283203125,0.97540283203125
1631632646936,-0.1854248046875,0.04473876953125,0.98077392578125
1631632647015,-0.1875,0.0438232421875,0.983642578125
1631632647015,-0.1900634765625,0.04180908203125,0.9857177734375
1631632647016,-0.18560791015625,0.04541015625,0.98431396484375
1631632647042,-0.185791015625,0.04132080078125,0.98211669921875
1631632647042,-0.18951416015625,0.044189453125,0.98065185546875
1631632647043,-0.186767578125,0.04620361328125,0.97430419921875
1631632647112,-0.18963623046875,0.04241943359375,0.9781494140625
1631632647113,-0.19189453125,0.0418701171875,0.97918701171875
1631632647114,-0.189697265625,0.04119873046875,0.97637939453125
1631632647193,-0.18963623046875,0.0438232421875,0.97906494140625
1631632647195,-0.18878173828125,0.04571533203125,0.97674560546875
1631632647197,-0.18511962890625,0.04754638671875,0.974853515625
1631632647243,-0.18817138671875,0.04571533203125,0.9747314453125
1631632647245,-0.18609619140625,0.04827880859375,0.978759765625
1631632647246,-0.18438720703125,0.04449462890625,0.98187255859375
1631632647281,-0.18145751953125,0.0389404296875,0.98150634765625
1631632647282,-0.18402099609375,0.03741455078125,0.98724365234375
1631632647282,-0.18341064453125,0.03387451171875,0.98333740234375
1631632647359,-0.18701171875,0.04339599609375,0.98443603515625
1631632647361,-0.1868896484375,0.03631591796875,0.97650146484375
1631632647362,-0.18255615234375,0.04156494140625,0.970947265625
1631632647409,-0.1812744140625,0.04425048828125,0.97412109375
1631632647410,-0.1824951171875,0.04718017578125,0.9793701171875
1631632647410,-0.18377685546875,0.04925537109375,0.98382568359375
1631632647459,-0.177978515625,0.04681396484375,0.98492431640625
1631632647459,-0.18048095703125,0.044677734375,0.978759765625
1631632647460,-0.18304443359375,0.04364013671875,0.97900390625
1631632647527,-0.18475341796875,0.044189453125,0.97698974609375
1631632647528,-0.189453125,0.03997802734375,0.97607421875
1631632647529,-0.18804931640625,0.04302978515625,0.97235107421875
1631632647634,-0.18865966796875,0.04461669921875,0.97198486328125
1631632647640,-0.187744140625,0.040771484375,0.972412109375
1631632647640,-0.185302734375,0.0411376953125,0.9749755859375
1631632647652,-0.18798828125,0.03955078125,0.97735595703125
1631632647653,-0.18756103515625,0.04718017578125,0.9791259765625
1631632647654,-0.18414306640625,0.04156494140625,0.9842529296875
1631632647704,-0.18731689453125,0.04412841796875,0.987548828125
1631632647704,-0.18646240234375,0.0447998046875,0.9892578125
1631632647705,-0.18463134765625,0.047607421875,0.98809814453125
1631632647759,-0.18682861328125,0.04620361328125,0.9822998046875
1631632647760,-0.18572998046875,0.0455322265625,0.97918701171875
1631632647761,-0.1907958984375,0.04571533203125,0.9786376953125
1631632647807,-0.1878662109375,0.04095458984375,0.97296142578125
1631632647807,-0.1932373046875,0.0430908203125,0.97442626953125
1631632647807,-0.1900634765625,0.03997802734375,0.97509765625
1631632647882,-0.1883544921875,0.0452880859375,0.974365234375
1631632647884,-0.19036865234375,0.04791259765625,0.97222900390625
1631632647942,-0.1881103515625,0.04412841796875,0.9755859375
1631632647942,-0.18634033203125,0.0452880859375,0.97528076171875
1631632647943,-0.18170166015625,0.03985595703125,0.98223876953125
1631632648004,-0.18212890625,0.0399169921875,0.98663330078125
1631632648004,-0.18310546875,0.0372314453125,0.98590087890625
1631632648005,-0.1878662109375,0.04107666015625,0.9886474609375
1631632648071,-0.1864013671875,0.0401611328125,0.9830322265625
1631632648072,-0.1822509765625,0.03643798828125,0.97625732421875
1631632648073,-0.1826171875,0.041259765625,0.96990966796875
1631632648108,-0.1832275390625,0.047119140625,0.98126220703125
1631632648109,-0.18182373046875,0.04925537109375,0.98260498046875
1631632648110,-0.17864990234375,0.0545654296875,0.9837646484375
1631632648146,-0.177734375,0.04803466796875,0.98004150390625
1631632648146,-0.18218994140625,0.05242919921875,0.98175048828125
1631632648147,-0.18218994140625,0.044921875,0.9781494140625
1631632648218,-0.1844482421875,0.0433349609375,0.97698974609375
1631632648220,-0.184326171875,0.04107666015625,0.97998046875
1631632648222,-0.1812744140625,0.042724609375,0.97882080078125
1631632648316,-0.18719482421875,0.04119873046875,0.97894287109375
1631632648317,-0.1854248046875,0.038818359375,0.9765625
1631632648318,-0.1871337890625,0.0430908203125,0.97747802734375
1631632648343,-0.18408203125,0.03936767578125,0.9796142578125
1631632648344,-0.1859130859375,0.042236328125,0.98583984375
1631632648344,-0.180908203125,0.0399169921875,0.98260498046875
1631632648415,-0.18658447265625,0.04351806640625,0.98529052734375
1631632648417,-0.1895751953125,0.04705810546875,0.98406982421875
1631632648524,-0.18896484375,0.0457763671875,0.97979736328125
1631632648526,-0.18780517578125,0.04412841796875,0.98052978515625
1631632648527,-0.1893310546875,0.04132080078125,0.97308349609375
1631632648556,-0.192138671875,0.043701171875,0.97515869140625
1631632648558,-0.19390869140625,0.0445556640625,0.97235107421875
1631632648559,-0.19158935546875,0.042724609375,0.971923828125
1631632648604,-0.19158935546875,0.041748046875,0.9720458984375
1631632648605,-0.1905517578125,0.04132080078125,0.97027587890625
1631632648606,-0.1900634765625,0.040283203125,0.971435546875
1631632648632,-0.18597412109375,0.040771484375,0.98016357421875
1631632648632,-0.18707275390625,0.04278564453125,0.982421875
1631632648633,-0.18218994140625,0.040771484375,0.97833251953125
1631632648708,-0.1767578125,0.0406494140625,0.97845458984375
1631632648709,-0.1798095703125,0.04119873046875,0.98095703125
1631632648710,-0.18121337890625,0.04150390625,0.99359130859375
1631632648758,-0.18548583984375,0.0400390625,0.981201171875
1631632648758,-0.1864013671875,0.0390625,0.9871826171875
1631632648758,-0.18548583984375,0.03887939453125,0.98297119140625
1631632648834,-0.1785888671875,0.048828125,0.9798583984375
1631632648835,-0.1790771484375,0.04736328125,0.9832763671875
1631632648835,-0.17938232421875,0.05059814453125,0.98614501953125
1631632648877,-0.180908203125,0.04931640625,0.9808349609375
1631632648878,-0.18548583984375,0.042236328125,0.9779052734375
1631632648879,-0.18597412109375,0.040283203125,0.9755859375
1631632648933,-0.18841552734375,0.031494140625,0.9710693359375
1631632648933,-0.1922607421875,0.0289306640625,0.97198486328125
1631632648934,-0.18817138671875,0.03662109375,0.97412109375
1631632649032,-0.18804931640625,0.03961181640625,0.9761962890625
1631632649033,-0.18621826171875,0.0426025390625,0.97882080078125
1631632649033,-0.1904296875,0.0394287109375,0.980712890625
1631632649058,-0.183837890625,0.04791259765625,0.9830322265625
1631632649059,-0.18902587890625,0.04461669921875,0.97991943359375
1631632649059,-0.18408203125,0.04046630859375,0.98486328125
1631632649106,-0.18414306640625,0.040283203125,0.98443603515625
1631632649107,-0.18353271484375,0.04248046875,0.98468017578125
1631632649108,-0.18414306640625,0.0399169921875,0.98529052734375
1631632649195,-0.1871337890625,0.04571533203125,0.97998046875
1631632649197,-0.18804931640625,0.046142578125,0.97686767578125
1631632649197,-0.18438720703125,0.04510498046875,0.98004150390625
1631632649221,-0.18682861328125,0.0418701171875,0.97637939453125
1631632649222,-0.19195556640625,0.03985595703125,0.971435546875
1631632649222,-0.1923828125,0.0382080078125,0.9742431640625
1631632649297,-0.1876220703125,0.037841796875,0.9715576171875
1631632649298,-0.18927001953125,0.04046630859375,0.97113037109375
1631632649298,-0.19158935546875,0.0418701171875,0.975830078125
1631632649386,-0.18841552734375,0.04229736328125,0.97247314453125
1631632649388,-0.18658447265625,0.041748046875,0.9774169921875
1631632649388,-0.18218994140625,0.042724609375,0.9813232421875
1631632649429,-0.1856689453125,0.04046630859375,0.9801025390625
1631632649431,-0.1800537109375,0.03985595703125,0.98193359375
1631632649432,-0.18719482421875,0.0408935546875,0.98486328125
1631632649490,-0.185791015625,0.041259765625,0.98895263671875
1631632649491,-0.1865234375,0.0372314453125,0.983642578125
1631632649492,-0.18621826171875,0.03839111328125,0.97747802734375
1631632649540,-0.18658447265625,0.0423583984375,0.97332763671875
1631632649541,-0.1854248046875,0.04693603515625,0.97637939453125
1631632649542,-0.1878662109375,0.05084228515625,0.97955322265625
1631632649609,-0.1837158203125,0.04718017578125,0.976318359375
1631632649609,-0.1868896484375,0.04730224609375,0.981689453125
1631632649610,-0.18682861328125,0.04266357421875,0.9810791015625
1631632649650,-0.188232421875,0.03948974609375,0.97698974609375
1631632649652,-0.18670654296875,0.03662109375,0.98077392578125
1631632649652,-0.18572998046875,0.03802490234375,0.9781494140625
1631632649738,-0.18719482421875,0.041015625,0.97784423828125
1631632649741,-0.1827392578125,0.04302978515625,0.97833251953125
1631632649743,-0.18658447265625,0.04107666015625,0.97802734375
1631632649769,-0.188232421875,0.03778076171875,0.9759521484375
1631632649771,-0.18743896484375,0.04205322265625,0.97344970703125
1631632649772,-0.18682861328125,0.038330078125,0.98052978515625
1631632649831,-0.1868896484375,0.04180908203125,0.98431396484375
1631632649832,-0.18548583984375,0.04345703125,0.9859619140625
1631632649833,-0.18316650390625,0.0421142578125,0.98260498046875
1631632649917,-0.18621826171875,0.044189453125,0.981201171875
1631632649918,-0.18670654296875,0.0423583984375,0.9798583984375
1631632649920,-0.1893310546875,0.04156494140625,0.977294921875
1631632649940,-0.1890869140625,0.0372314453125,0.97454833984375
1631632649940,-0.19195556640625,0.041259765625,0.9744873046875
1631632649941,-0.1895751953125,0.04071044921875,0.96722412109375
1631632649986,-0.19488525390625,0.04095458984375,0.9736328125
1631632649987,-0.1922607421875,0.03985595703125,0.9747314453125
1631632649988,-0.18719482421875,0.041259765625,0.97650146484375
1631632650097,-0.188720703125,0.0394287109375,0.977783203125
1631632650098,-0.1859130859375,0.039794921875,0.98126220703125
1631632650099,-0.18450927734375,0.03900146484375,0.98077392578125
1631632650138,-0.185302734375,0.037353515625,0.97943115234375
1631632650138,-0.1866455078125,0.03900146484375,0.9781494140625
1631632650139,-0.18414306640625,0.03961181640625,0.98016357421875
1631632650185,-0.18499755859375,0.04217529296875,0.98309326171875
1631632650186,-0.17999267578125,0.04071044921875,0.98388671875
1631632650187,-0.18182373046875,0.03704833984375,0.9818115234375
1631632650233,-0.18719482421875,0.03875732421875,0.99163818359375
1631632650234,-0.18951416015625,0.03839111328125,0.9862060546875
1631632650235,-0.187744140625,0.03399658203125,0.974853515625
1631632650361,-0.18560791015625,0.03509521484375,0.97039794921875
1631632650362,-0.18505859375,0.041015625,0.96844482421875
1631632650363,-0.1839599609375,0.04693603515625,0.97259521484375
1631632650377,-0.1844482421875,0.0504150390625,0.980712890625
1631632650378,-0.18511962890625,0.0469970703125,0.98052978515625
1631632650380,-0.18255615234375,0.0460205078125,0.98419189453125
1631632650413,-0.1851806640625,0.045166015625,0.97796630859375
1631632650414,-0.1832275390625,0.03973388671875,0.98431396484375
1631632650414,-0.1861572265625,0.03692626953125,0.98431396484375
1631632650455,-0.18695068359375,0.0322265625,0.9832763671875
1631632650456,-0.18817138671875,0.0325927734375,0.98272705078125
1631632650456,-0.19049072265625,0.0328369140625,0.9815673828125
1631632650555,-0.1893310546875,0.03399658203125,0.97802734375
1631632650556,-0.18890380859375,0.03662109375,0.9754638671875
1631632650557,-0.19091796875,0.03814697265625,0.97808837890625
1631632650588,-0.1876220703125,0.035400390625,0.97894287109375
1631632650590,-0.1907958984375,0.03662109375,0.981689453125
1631632650592,-0.1890869140625,0.0372314453125,0.98529052734375
1631632650671,-0.1904296875,0.0411376953125,0.97833251953125
1631632650672,-0.188232421875,0.04168701171875,0.97833251953125
1631632650701,-0.189453125,0.0438232421875,0.97540283203125
1631632650701,-0.19049072265625,0.0390625,0.97320556640625
1631632650760,-0.1878662109375,0.03692626953125,0.97772216796875
1631632650760,-0.18756103515625,0.0404052734375,0.97906494140625
1631632650761,-0.187744140625,0.03741455078125,0.9771728515625
1631632650825,-0.18328857421875,0.03460693359375,0.9749755859375
1631632650826,-0.18695068359375,0.03662109375,0.9815673828125
1631632650828,-0.18511962890625,0.037841796875,0.9813232421875
1631632650858,-0.18487548828125,0.0360107421875,0.97808837890625
1631632650858,-0.1834716796875,0.0362548828125,0.978271484375
1631632650859,-0.18609619140625,0.0360107421875,0.98358154296875
