timestamp,ax,ay,az
1629807853163,-0.478972,0.672647,-0.547536
1629807853172,-0.479887,0.674294,-0.547841
1629807853182,-0.480497,0.67649,-0.545279
1629807853191,-0.47946,0.676856,-0.540826
1629807853201,-0.47939899999999996,0.679052,-0.537654
1629807853211,-0.478911,0.678686,-0.536373
1629807853220,-0.480863,0.679662,-0.538569
1629807853230,-0.482693,0.681065,-0.539728
1629807853239,-0.484157,0.6816139999999999,-0.5386299999999999
1629807853249,-0.486475,0.679662,-0.537654
1629807853259,-0.488,0.67771,-0.537837
1629807853268,-0.49019599999999997,0.678198,-0.539301
1629807853278,-0.492148,0.680882,-0.5401549999999999
1629807853287,-0.493063,0.684237,-0.540094
1629807853297,-0.49349,0.686555,-0.538813
1629807853307,-0.49263599999999996,0.6883239999999999,-0.538996
1629807853316,-0.492087,0.689178,-0.541192
1629807853326,-0.492575,0.6919839999999999,-0.545096
1629807853335,-0.493124,0.695095,-0.548268
1629807853345,-0.492087,0.696437,-0.54961
1629807853355,-0.48983,0.693875,-0.5444249999999999
1629807853364,-0.490562,0.688812,-0.536068
1629807853374,-0.486292,0.6892389999999999,-0.535458
1629807853383,-0.48501099999999997,0.688995,-0.535275
1629807853393,-0.489098,0.687531,-0.534726
1629807853403,-0.489525,0.689666,-0.535458
1629807853412,-0.48775599999999997,0.692228,-0.538081
1629807853422,-0.48745099999999997,0.69296,-0.536617
1629807853431,-0.485804,0.693997,-0.532896
1629807853441,-0.483364,0.69479,-0.532347
1629807853451,-0.482754,0.692106,-0.529419
1629807853460,-0.48348599999999997,0.690886,-0.529419
1629807853470,-0.483608,0.69113,-0.531005
1629807853479,-0.484584,0.692411,-0.532774
1629807853489,-0.484462,0.694485,-0.533201
1629807853499,-0.484889,0.696437,-0.532835
1629807853508,-0.48531599999999997,0.698206,-0.532042
1629807853518,-0.484279,0.698816,-0.5307
1629807853527,-0.484523,0.696559,-0.531188
1629807853537,-0.485072,0.694851,-0.534238
1629807853547,-0.485743,0.693082,-0.540826
1629807853556,-0.48434,0.68808,-0.541131
1629807853566,-0.485194,0.6819189999999999,-0.536617
1629807853575,-0.486048,0.680638,-0.537654
1629807853585,-0.48556,0.6810039999999999,-0.540216
1629807853595,-0.48373,0.681248,-0.5450349999999999
1629807853604,-0.48373,0.683932,-0.548573
1629807853614,-0.482754,0.688995,-0.55083
1629807853623,-0.48129,0.690642,-0.551379
1629807853633,-0.480375,0.688446,-0.5483899999999999
1629807853643,-0.478362,0.68686,-0.543388
1629807853652,-0.479155,0.686372,-0.539484
1629807853662,-0.478667,0.687836,-0.540704
1629807853671,-0.476776,0.690886,-0.544181
1629807853681,-0.474092,0.692045,-0.548817
1629807853691,-0.474092,0.689117,-0.545218
1629807853700,-0.474946,0.68808,-0.545828
1629807853710,-0.470066,0.692167,-0.54961
1629807853719,-0.46921199999999996,0.6922889999999999,-0.547658
1629807853729,-0.468968,0.694058,-0.547292
1629807853739,-0.46860199999999996,0.693326,-0.544486
1629807853748,-0.46726,0.693448,-0.542412
1629807853758,-0.464271,0.693082,-0.5395449999999999
1629807853767,-0.46341699999999997,0.694668,-0.540094
1629807853777,-0.463478,0.694607,-0.5422899999999999
1629807853787,-0.463905,0.693326,-0.5435099999999999
1629807853796,-0.464088,0.692777,-0.545401
1629807853806,-0.465308,0.6925939999999999,-0.546438
1629807853815,-0.466711,0.691496,-0.547414
1629807853825,-0.46921199999999996,0.689422,-0.549122
1629807853835,-0.468785,0.686982,-0.548024
1629807853844,-0.468846,0.686006,-0.55022
1629807853854,-0.467626,0.6886289999999999,-0.553148
1629807853863,-0.469517,0.691557,-0.554185
1629807853873,-0.469456,0.694241,-0.55571
1629807853883,-0.469944,0.69235,-0.552904
1629807853892,-0.47092,0.690093,-0.544669
1629807853902,-0.468968,0.6880189999999999,-0.5392399999999999
1629807853911,-0.470188,0.68503,-0.53375
1629807853921,-0.47146899999999997,0.683932,-0.540094
1629807853931,-0.471408,0.6858839999999999,-0.551379
1629807853940,-0.47275,0.688568,-0.557784
1629807853950,-0.472933,0.690703,-0.558516
1629807853959,-0.47360399999999997,0.6922889999999999,-0.552355
1629807853969,-0.47268899999999997,0.693387,-0.544791
1629807853979,-0.47329899999999997,0.692838,-0.539301
1629807853988,-0.472506,0.692411,-0.5380199999999999
1629807853998,-0.47397,0.691313,-0.539423
1629807854007,-0.47458,0.688873,-0.542656
1629807854017,-0.474641,0.687226,-0.543937
1629807854027,-0.475495,0.686677,-0.546316
1629807854036,-0.477508,0.684908,-0.546072
1629807854046,-0.480253,0.682712,-0.547414
1629807854055,-0.480985,0.681858,-0.547658
1629807854065,-0.481107,0.681858,-0.550464
1629807854075,-0.481656,0.6816139999999999,-0.552782
1629807854084,-0.481778,0.6816139999999999,-0.551684
1629807854094,-0.481839,0.680882,-0.549854
1629807854103,-0.48251,0.680882,-0.547231
1629807854113,-0.481351,0.680211,-0.546621
1629807854123,-0.481717,0.678381,-0.548634
1629807854132,-0.482083,0.676856,-0.550952
1629807854142,-0.483974,0.675209,-0.552843
1629807854151,-0.485194,0.674538,-0.555954
1629807854161,-0.486109,0.673928,-0.556747
1629807854171,-0.48714599999999997,0.673623,-0.557723
1629807854180,-0.48806099999999997,0.674294,-0.555039
1629807854190,-0.48739,0.675453,-0.553636
1629807854199,-0.48556,0.677405,-0.55266
1629807854209,-0.483974,0.679296,-0.550403
1629807854219,-0.482388,0.68259,-0.549793
1629807854228,-0.481717,0.686616,-0.552782
1629807854238,-0.479948,0.688385,-0.556198
1629807854247,-0.480375,0.685152,-0.554795
1629807854257,-0.483608,0.680272,-0.551867
1629807854267,-0.486353,0.678747,-0.55144
1629807854276,-0.488183,0.67832,-0.551074
1629807854286,-0.488183,0.675697,-0.547719
1629807854295,-0.488183,0.675209,-0.545584
1629807854305,-0.487024,0.674904,-0.545401
1629807854315,-0.486414,0.676612,-0.544608
1629807854324,-0.48592599999999997,0.678747,-0.543632
1629807854334,-0.48556,0.680272,-0.543876
1629807854343,-0.485133,0.683871,-0.5459499999999999
1629807854353,-0.484157,0.686433,-0.549122
1629807854363,-0.482693,0.687775,-0.550525
1629807854372,-0.48348599999999997,0.6893,-0.55144
1629807854382,-0.48470599999999997,0.688812,-0.554185
1629807854391,-0.485987,0.686006,-0.554917
1629807854401,-0.488305,0.681187,-0.553941
1629807854411,-0.48922,0.674477,-0.550159
1629807854420,-0.489037,0.671854,-0.5453399999999999
1629807854430,-0.48501099999999997,0.671915,-0.539484
1629807854439,-0.481412,0.676246,-0.536434
1629807854449,-0.479582,0.680333,-0.5361899999999999
1629807854459,-0.481107,0.682956,-0.542046
1629807854468,-0.48312,0.6794789999999999,-0.548512
1629807854478,-0.484828,0.671305,-0.554368
1629807854487,-0.48562099999999997,0.666242,-0.5623589999999999
1629807854497,-0.486902,0.665022,-0.569923
1629807854507,-0.484889,0.668316,-0.574803
1629807854516,-0.481778,0.673501,-0.567605
1629807854526,-0.47695899999999997,0.67954,-0.554856
1629807854535,-0.476532,0.6840539999999999,-0.542778
1629807854545,-0.474763,0.689788,-0.538447
1629807854555,-0.47512899999999997,0.693936,-0.5398499999999999
1629807854564,-0.476105,0.6954,-0.545706
1629807854574,-0.47634899999999997,0.69479,-0.55083
1629807854583,-0.475068,0.692472,-0.553636
1629807854593,-0.473726,0.690703,-0.554002
1629807854603,-0.47146899999999997,0.688812,-0.552782
1629807854612,-0.467626,0.6864939999999999,-0.555588
1629807854622,-0.464759,0.6846639999999999,-0.555649
1629807854631,-0.463539,0.6852739999999999,-0.559858
1629807854641,-0.459879,0.688385,-0.562176
1629807854651,-0.45658499999999996,0.689788,-0.559126
1629807854660,-0.452681,0.6922889999999999,-0.557479
1629807854670,-0.447984,0.693326,-0.558089
1629807854679,-0.44712999999999997,0.694546,-0.558577
1629807854689,-0.446764,0.696498,-0.562237
1629807854699,-0.445361,0.696986,-0.566141
1629807854708,-0.44408,0.69662,-0.570533
1629807854718,-0.444629,0.6954,-0.572668
1629807854727,-0.44273799999999996,0.692045,-0.574071
1629807854737,-0.44286,0.68808,-0.575108
1629807854747,-0.442006,0.685091,-0.577304
1629807854756,-0.44121299999999997,0.6803939999999999,-0.578158
1629807854766,-0.44164,0.676978,-0.581147
1629807854775,-0.441884,0.674782,-0.58255
1629807854785,-0.44029799999999997,0.674294,-0.581574
1629807854795,-0.439322,0.675148,-0.578463
1629807854804,-0.437187,0.676307,-0.578646
1629807854814,-0.437004,0.678015,-0.577243
1629807854823,-0.435906,0.6791739999999999,-0.578524
1629807854833,-0.43602799999999997,0.681553,-0.579866
1629807854843,-0.433344,0.683322,-0.582855
1629807854852,-0.431148,0.684298,-0.586637
1629807854862,-0.430904,0.681248,-0.587979
1629807854871,-0.433954,0.6791739999999999,-0.584014
1629807854881,-0.436882,0.678869,-0.5795
1629807854891,-0.438529,0.68015,-0.573461
1629807854900,-0.43816299999999997,0.6832,-0.567666
1629807854910,-0.436455,0.686006,-0.563213
1629807854919,-0.43676,0.688141,-0.561078
1629807854929,-0.440725,0.689056,-0.564433
1629807854939,-0.444019,0.6889339999999999,-0.569801
1629807854948,-0.443226,0.6913739999999999,-0.574315
1629807854958,-0.447374,0.686982,-0.576084
1629807854967,-0.448777,0.684908,-0.578036
1629807854977,-0.453047,0.681187,-0.577487
1629807854987,-0.457256,0.678747,-0.575718
1629807854996,-0.460306,0.678076,-0.576511
1629807855006,-0.462319,0.677832,-0.574864
1629807855015,-0.463661,0.677832,-0.5705939999999999
1629807855025,-0.46219699999999997,0.679052,-0.5669339999999999
1629807855035,-0.463539,0.679052,-0.566507
1629807855044,-0.463966,0.678747,-0.568337
1629807855054,-0.46494199999999997,0.677588,-0.570167
1629807855063,-0.467138,0.674721,-0.573766
1629807855073,-0.468968,0.674172,-0.575291
1629807855083,-0.47092,0.673135,-0.575108
1629807855092,-0.472811,0.673684,-0.573217
1629807855102,-0.47458,0.674294,-0.5724239999999999
1629807855111,-0.47543399999999997,0.674965,-0.569801
1629807855121,-0.475861,0.67405,-0.568276
1629807855131,-0.477996,0.67222,-0.567727
1629807855140,-0.47885,0.671,-0.568947
1629807855150,-0.479887,0.670329,-0.5696789999999999
1629807855159,-0.480497,0.6700849999999999,-0.569557
1629807855169,-0.479765,0.6694749999999999,-0.567605
1629807855179,-0.478972,0.668804,-0.569435
1629807855188,-0.47726399999999997,0.670146,-0.57157
1629807855198,-0.475678,0.67039,-0.57218
1629807855207,-0.472811,0.670756,-0.569557
1629807855217,-0.472567,0.67039,-0.566385
1629807855227,-0.471652,0.671854,-0.5666289999999999
1629807855236,-0.469029,0.675758,-0.564555
1629807855246,-0.466894,0.679113,-0.562237
1629807855255,-0.463356,0.677222,-0.559614
1629807855265,-0.465796,0.671183,-0.559614
1629807855275,-0.469822,0.6676449999999999,-0.567361
1629807855284,-0.470676,0.664717,-0.5734
1629807855294,-0.471713,0.661423,-0.575779
1629807855303,-0.47116399999999997,0.660874,-0.579744
1629807855313,-0.470005,0.6633749999999999,-0.583282
1629807855323,-0.469151,0.666364,-0.586149
1629807855332,-0.464576,0.670024,-0.583526
1629807855342,-0.46116,0.672952,-0.578585
1629807855351,-0.458659,0.674477,-0.575718
1629807855361,-0.456036,0.672159,-0.577304
1629807855371,-0.457378,0.668987,-0.57828
1629807855380,-0.460306,0.668926,-0.583099
1629807855390,-0.461343,0.669292,-0.5894429999999999
1629807855399,-0.45884199999999997,0.668194,-0.590541
1629807855409,-0.456829,0.665571,-0.5870029999999999
1629807855419,-0.455243,0.6670349999999999,-0.584685
1629807855428,-0.453474,0.671244,-0.583648
1629807855438,-0.45139999999999997,0.672586,-0.582306
1629807855447,-0.452864,0.673318,-0.582428
1629807855457,-0.45231499999999997,0.674538,-0.586271
1629807855467,-0.448716,0.67527,-0.583709
1629807855476,-0.445361,0.677527,-0.579439
1629807855486,-0.44426299999999996,0.684603,-0.578219
1629807855495,-0.446093,0.689483,-0.577487
1629807855505,-0.446703,0.691252,-0.574315
1629807855515,-0.444812,0.691801,-0.569313
1629807855524,-0.44426299999999996,0.69052,-0.56364
1629807855534,-0.446093,0.687165,-0.5644939999999999
1629807855543,-0.44895999999999997,0.682773,-0.5638839999999999
1629807855553,-0.451949,0.68015,-0.568886
1629807855563,-0.453596,0.68137,-0.573705
1629807855572,-0.453413,0.68198,-0.574132
1629807855582,-0.453291,0.684542,-0.572912
1629807855591,-0.451156,0.688568,-0.568581
1629807855601,-0.449936,0.691313,-0.56486
1629807855611,-0.449021,0.69052,-0.561871
1629807855620,-0.448228,0.687653,-0.557296
1629807855630,-0.450363,0.68625,-0.557174
1629807855639,-0.453169,0.687165,-0.557845
1629807855649,-0.453901,0.68564,-0.559065
1629807855659,-0.454999,0.6828339999999999,-0.554673
1629807855668,-0.457256,0.681797,-0.552599
1629807855678,-0.460611,0.682346,-0.55327
1629807855687,-0.463539,0.684237,-0.557296
1629807855697,-0.465186,0.686006,-0.5602239999999999
1629807855707,-0.467321,0.6867989999999999,-0.562786
1629807855716,-0.466894,0.687653,-0.564555
1629807855726,-0.466406,0.689361,-0.568703
1629807855735,-0.465491,0.690886,-0.569618
1629807855745,-0.465186,0.691496,-0.5696789999999999
1629807855755,-0.464454,0.689971,-0.565897
1629807855764,-0.46372199999999997,0.68869,-0.55998
1629807855774,-0.462136,0.6883239999999999,-0.554795
1629807855783,-0.4636,0.687287,-0.553758
1629807855793,-0.4636,0.686677,-0.556503
1629807855803,-0.46421,0.687775,-0.558699
1629807855812,-0.465125,0.687836,-0.560346
1629807855822,-0.46665,0.685396,-0.560346
1629807855831,-0.468541,0.683871,-0.560102
1629807855841,-0.469944,0.684481,-0.559248
1629807855851,-0.470127,0.68381,-0.55693
1629807855860,-0.46921199999999996,0.68259,-0.555832
1629807855870,-0.469639,0.681431,-0.554551
1629807855879,-0.470127,0.679662,-0.554734
1629807855889,-0.471835,0.676368,-0.555832
1629807855899,-0.472323,0.672281,-0.556686
1629807855908,-0.474275,0.668499,-0.559126
1629807855918,-0.476166,0.6661199999999999,-0.564128
1629807855927,-0.476593,0.665571,-0.5693739999999999
1629807855937,-0.475678,0.666059,-0.571692
1629807855947,-0.476105,0.665998,-0.573583
1629807855956,-0.4758,0.6645949999999999,-0.5724239999999999
1629807855966,-0.477935,0.663558,-0.571265
1629807855975,-0.478057,0.6633749999999999,-0.571753
1629807855985,-0.479216,0.661606,-0.574742
1629807855995,-0.480253,0.658617,-0.577792
1629807856004,-0.481839,0.654957,-0.578768
1629807856014,-0.482388,0.653005,-0.5795
1629807856023,-0.483364,0.651541,-0.578158
1629807856033,-0.48470599999999997,0.651419,-0.578829
1629807856043,-0.486597,0.65209,-0.579317
1629807856052,-0.48617,0.653981,-0.579927
1629807856062,-0.485072,0.654896,-0.580049
1629807856071,-0.484828,0.655872,-0.578768
1629807856081,-0.482144,0.654408,-0.575352
1629807856091,-0.48287599999999997,0.651236,-0.574376
1629807856100,-0.484523,0.649711,-0.577853
1629807856110,-0.487695,0.648674,-0.58438
1629807856119,-0.48836599999999997,0.647698,-0.588894
1629807856129,-0.489159,0.649467,-0.590846
1629807856139,-0.485987,0.658922,-0.59231
1629807856148,-0.47885,0.660996,-0.590236
1629807856158,-0.47878899999999996,0.656299,-0.5870029999999999
1629807856167,-0.481839,0.648613,-0.58499
1629807856177,-0.485194,0.643062,-0.5866979999999999
1629807856187,-0.486048,0.635254,-0.5897479999999999
1629807856196,-0.48897599999999997,0.633668,-0.590602
1629807856206,-0.493185,0.6417809999999999,-0.585051
1629807856215,-0.503494,0.663497,-0.537593
1629807856225,-0.5142909999999999,0.69052,-0.477447
1629807856235,-0.51179,0.71309,-0.459086
1629807856244,-0.50325,0.723704,-0.465918
1629807856254,-0.500078,0.726571,-0.494283
1629807856263,-0.49824799999999997,0.720898,-0.531005
1629807856273,-0.498431,0.7041229999999999,-0.559248
1629807856283,-0.500627,0.687348,-0.580415
1629807856292,-0.501725,0.674721,-0.591456
1629807856302,-0.498004,0.6661199999999999,-0.5903579999999999
1629807856311,-0.492697,0.6603249999999999,-0.578768
1629807856321,-0.488183,0.658983,-0.565043
1629807856331,-0.48409599999999997,0.6615449999999999,-0.553514
1629807856340,-0.481351,0.666364,-0.543022
1629807856350,-0.47970399999999996,0.670817,-0.535763
1629807856359,-0.476288,0.6771,-0.529175
1629807856369,-0.474397,0.685762,-0.529541
1629807856379,-0.472811,0.692167,-0.531432
1629807856388,-0.467931,0.698572,-0.532347
1629807856398,-0.46482,0.702842,-0.531066
1629807856407,-0.464088,0.706746,-0.529907
1629807856417,-0.46433199999999997,0.709064,-0.526735
1629807856427,-0.466101,0.711992,-0.523319
1629807856436,-0.466284,0.711382,-0.521794
1629807856446,-0.469456,0.708881,-0.5219159999999999
1629807856455,-0.471286,0.707112,-0.524539
1629807856465,-0.47360399999999997,0.703757,-0.526979
1629807856475,-0.473482,0.701439,-0.52948
1629807856484,-0.474092,0.700158,-0.526796
1629807856494,-0.474092,0.700707,-0.526186
1629807856503,-0.474458,0.701012,-0.527772
1629807856513,-0.475068,0.701134,-0.529663
1629807856523,-0.476715,0.701439,-0.532774
1629807856532,-0.478362,0.703635,-0.540216
1629807856542,-0.478972,0.70394,-0.546438
1629807856551,-0.478728,0.70272,-0.549854
1629807856561,-0.47885,0.701317,-0.552965
1629807856571,-0.478362,0.698328,-0.555588
1629807856580,-0.477325,0.694912,-0.555466
1629807856590,-0.475556,0.691801,-0.555405
1629807856599,-0.473665,0.689666,-0.557723
1629807856609,-0.470493,0.688751,-0.5612
1629807856619,-0.468358,0.68808,-0.56425
1629807856628,-0.467016,0.685396,-0.5638839999999999
1629807856638,-0.465003,0.683932,-0.5620539999999999
1629807856647,-0.462075,0.684603,-0.560712
1629807856657,-0.459818,0.685335,-0.5611389999999999
1629807856667,-0.458049,0.68564,-0.5614439999999999
1629807856676,-0.456402,0.687348,-0.5617489999999999
1629807856686,-0.452498,0.6910689999999999,-0.561993
1629807856695,-0.448228,0.693875,-0.561322
1629807856705,-0.444629,0.694668,-0.55815
1629807856715,-0.441701,0.69235,-0.555222
1629807856724,-0.440359,0.692106,-0.553819
1629807856734,-0.439322,0.691252,-0.553026
1629807856743,-0.43938299999999997,0.689788,-0.553514
1629807856753,-0.440115,0.68869,-0.553758
1629807856763,-0.440237,0.687531,-0.554002
1629807856772,-0.441152,0.6867989999999999,-0.556076
1629807856782,-0.441335,0.685762,-0.557784
1629807856791,-0.442006,0.686128,-0.55693
1629807856801,-0.444324,0.686372,-0.559004
1629807856811,-0.445849,0.686433,-0.563518
1629807856820,-0.449509,0.68625,-0.567483
1629807856830,-0.450424,0.687958,-0.568886
1629807856839,-0.451949,0.6913739999999999,-0.569557
1629807856849,-0.453047,0.692411,-0.571631
1629807856859,-0.455121,0.692228,-0.572851
1629807856868,-0.456158,0.693448,-0.5715089999999999
1629807856878,-0.45688999999999996,0.69479,-0.571265
1629807856887,-0.456097,0.693082,-0.570045
1629807856897,-0.457317,0.692106,-0.5678489999999999
1629807856907,-0.460245,0.690703,-0.567422
1629807856916,-0.461404,0.6910689999999999,-0.5672389999999999
1629807856926,-0.462746,0.691862,-0.565836
1629807856935,-0.463661,0.690642,-0.565043
1629807856945,-0.464698,0.689788,-0.564555
1629807856955,-0.466101,0.688812,-0.563213
1629807856964,-0.466528,0.68808,-0.5614439999999999
1629807856974,-0.465064,0.687287,-0.559614
1629807856983,-0.465125,0.687043,-0.55876
1629807856993,-0.462868,0.68808,-0.561078
1629807857003,-0.460123,0.684786,-0.558638
1629807857012,-0.460489,0.6832,-0.556869
1629807857022,-0.46006199999999997,0.68564,-0.557418
1629807857031,-0.460794,0.6855789999999999,-0.561017
1629807857041,-0.459513,0.685457,-0.558638
1629807857051,-0.458903,0.683505,-0.553209
1629807857060,-0.461465,0.682041,-0.5483899999999999
1629807857070,-0.46402699999999997,0.68381,-0.547658
1629807857079,-0.46341699999999997,0.686982,-0.552111
1629807857089,-0.463966,0.687165,-0.552721
1629807857099,-0.463905,0.689422,-0.555832
1629807857108,-0.462624,0.6910689999999999,-0.559126
1629807857118,-0.462319,0.692045,-0.5617489999999999
1629807857127,-0.461465,0.692716,-0.561688
1629807857137,-0.458781,0.693631,-0.559126
1629807857147,-0.45884199999999997,0.691557,-0.554795
1629807857156,-0.456646,0.691618,-0.551867
1629807857166,-0.455609,0.69174,-0.550098
1629807857175,-0.453962,0.692777,-0.550708
1629807857185,-0.452254,0.693692,-0.552965
1629807857195,-0.451217,0.695583,-0.554673
1629807857204,-0.450607,0.696315,-0.554734
1629807857214,-0.449509,0.697718,-0.554429
1629807857223,-0.45017999999999997,0.698511,-0.554307
1629807857233,-0.44895999999999997,0.70211,-0.554734
1629807857243,-0.447618,0.7050379999999999,-0.552965
1629807857252,-0.447069,0.70882,-0.551745
1629807857262,-0.444019,0.707905,-0.551623
1629807857271,-0.444141,0.708942,-0.55388
1629807857281,-0.443897,0.707966,-0.556625
1629807857291,-0.446215,0.70577,-0.559126
1629807857300,-0.443836,0.704001,-0.55937
1629807857310,-0.444446,0.703025,-0.558516
1629807857319,-0.443836,0.702476,-0.558089
1629807857329,-0.443592,0.702903,-0.561322
1629807857339,-0.44212799999999997,0.70333,-0.5644939999999999
1629807857348,-0.442006,0.702964,-0.569618
1629807857358,-0.439505,0.7035129999999999,-0.573278
1629807857367,-0.43816299999999997,0.70272,-0.575352
1629807857377,-0.43755299999999997,0.702476,-0.575169
1629807857387,-0.435906,0.700158,-0.571448
1629807857396,-0.43541799999999997,0.698206,-0.565531
1629807857406,-0.435784,0.69723,-0.55815
1629807857415,-0.436211,0.69784,-0.553392
1629807857425,-0.436455,0.698206,-0.549427
1629807857435,-0.43694299999999997,0.701439,-0.550098
1629807857444,-0.436089,0.704367,-0.550708
1629807857454,-0.437187,0.706624,-0.552294
1629807857463,-0.43816299999999997,0.705892,-0.553514
1629807857473,-0.440664,0.705221,-0.554063
1629807857483,-0.442982,0.7035129999999999,-0.554917
1629807857492,-0.445727,0.70028,-0.555161
1629807857502,-0.448106,0.696132,-0.554795
1629807857511,-0.450302,0.692228,-0.553758
1629807857521,-0.452681,0.6892389999999999,-0.554429
1629807857531,-0.455853,0.686738,-0.554612
1629807857540,-0.45872,0.684481,-0.554795
1629807857550,-0.46116,0.682773,-0.556198
1629807857559,-0.46250199999999997,0.68198,-0.557174
1629807857569,-0.46402699999999997,0.6810039999999999,-0.556442
1629807857579,-0.465186,0.6803939999999999,-0.557479
1629807857588,-0.46616199999999997,0.6819189999999999,-0.556686
1629807857598,-0.46677199999999996,0.684176,-0.55449
1629807857607,-0.466284,0.685396,-0.553392
1629807857617,-0.466406,0.6893,-0.553453
1629807857627,-0.46677199999999996,0.6907639999999999,-0.553331
1629807857636,-0.466284,0.69296,-0.553453
1629807857646,-0.46616199999999997,0.69357,-0.553636
1629807857655,-0.466406,0.694729,-0.552172
1629807857665,-0.46665,0.694729,-0.551318
1629807857675,-0.46616199999999997,0.69601,-0.54961
1629807857684,-0.46726,0.696681,-0.548756
1629807857694,-0.467321,0.696681,-0.548512
1629807857703,-0.467504,0.696986,-0.548207
1629807857713,-0.467321,0.697169,-0.547109
1629807857723,-0.466894,0.697718,-0.547048
1629807857732,-0.466223,0.698511,-0.5483899999999999
1629807857742,-0.466406,0.698938,-0.550403
1629807857751,-0.46768699999999996,0.698328,-0.553697
1629807857761,-0.465918,0.696132,-0.555771
1629807857771,-0.467443,0.69479,-0.555588
1629807857780,-0.466101,0.6938139999999999,-0.55571
1629807857790,-0.466101,0.6938139999999999,-0.557052
1629807857799,-0.463295,0.69296,-0.557662
1629807857809,-0.460794,0.690581,-0.556747
1629807857819,-0.460794,0.689056,-0.556442
1629807857828,-0.459269,0.689788,-0.558516
1629807857838,-0.458781,0.690825,-0.560407
1629807857847,-0.45536499999999996,0.692411,-0.55754
1629807857857,-0.454816,0.691252,-0.55205
1629807857867,-0.454572,0.692167,-0.546621
1629807857876,-0.453169,0.6944239999999999,-0.545401
1629807857886,-0.452437,0.697718,-0.545828
1629807857895,-0.45170499999999997,0.700707,-0.548329
1629807857905,-0.44987499999999997,0.704001,-0.550342
1629807857915,-0.449326,0.70516,-0.552904
1629807857924,-0.44834999999999997,0.706014,-0.555344
1629807857934,-0.448777,0.705465,-0.556442
1629807857943,-0.449448,0.7041229999999999,-0.555344
1629807857953,-0.449692,0.700158,-0.552111
1629807857963,-0.450119,0.69601,-0.55022
1629807857972,-0.448777,0.694607,-0.551806
1629807857982,-0.449326,0.6944239999999999,-0.551989
1629807857991,-0.450241,0.694302,-0.551379
1629807858001,-0.449814,0.695766,-0.553453
1629807858011,-0.44956999999999997,0.696132,-0.55449
1629807858020,-0.450912,0.698267,-0.554917
1629807858030,-0.450119,0.701927,-0.554246
1629807858039,-0.450302,0.704794,-0.554124
1629807858049,-0.449448,0.707539,-0.553148
1629807858059,-0.448289,0.7071729999999999,-0.552233
1629807858068,-0.448594,0.7062579999999999,-0.552782
1629807858078,-0.448533,0.70394,-0.553575
1629807858087,-0.451034,0.701256,-0.553636
1629807858097,-0.450668,0.698572,-0.557357
1629807858107,-0.450729,0.697596,-0.554917
1629807858116,-0.451156,0.69723,-0.551318
1629807858126,-0.452193,0.696742,-0.55144
1629807858135,-0.45170499999999997,0.697535,-0.550281
1629807858145,-0.452132,0.697718,-0.552782
1629807858155,-0.451949,0.698206,-0.555222
1629807858164,-0.452498,0.699121,-0.557906
1629807858174,-0.453352,0.698877,-0.560102
1629807858183,-0.45261999999999997,0.697962,-0.558943
1629807858193,-0.45231499999999997,0.697596,-0.557723
1629807858203,-0.45261999999999997,0.696803,-0.553697
1629807858212,-0.452559,0.695034,-0.552294
1629807858222,-0.452803,0.695034,-0.550464
1629807858231,-0.454267,0.694729,-0.548939
1629807858241,-0.454511,0.695339,-0.550952
1629807858251,-0.45627999999999996,0.696376,-0.551928
1629807858260,-0.45566999999999996,0.696498,-0.55266
1629807858270,-0.455487,0.696925,-0.553148
1629807858279,-0.457012,0.697291,-0.552416
1629807858289,-0.456463,0.696864,-0.550708
1629807858299,-0.45627999999999996,0.696315,-0.549427
1629807858308,-0.45627999999999996,0.695766,-0.549183
1629807858318,-0.458354,0.69479,-0.55022
1629807858327,-0.45914699999999997,0.694363,-0.55022
1629807858337,-0.460306,0.693875,-0.549854
1629807858347,-0.460428,0.692838,-0.550647
1629807858356,-0.46128199999999997,0.693448,-0.551257
1629807858366,-0.462258,0.69357,-0.551196
1629807858375,-0.462868,0.693753,-0.551623
1629807858385,-0.46189199999999997,0.693387,-0.55205
1629807858395,-0.46238,0.693082,-0.552233
1629807858404,-0.46238,0.694973,-0.55144
1629807858414,-0.46116,0.694851,-0.550891
1629807858423,-0.46036699999999997,0.695949,-0.550769
1629807858433,-0.460184,0.696864,-0.551684
1629807858443,-0.459269,0.699121,-0.55266
1629807858452,-0.458903,0.700585,-0.551623
1629807858462,-0.457256,0.701134,-0.551257
1629807858471,-0.45688999999999996,0.700219,-0.550464
1629807858481,-0.456951,0.699426,-0.550342
1629807858491,-0.45688999999999996,0.697596,-0.550769
1629807858500,-0.457256,0.698267,-0.550708
1629807858510,-0.456463,0.69784,-0.551623
1629807858519,-0.456219,0.698084,-0.551074
1629807858529,-0.456646,0.698511,-0.550586
1629807858539,-0.455914,0.697108,-0.551806
1629807858548,-0.454877,0.697657,-0.551562
1629807858558,-0.456158,0.697657,-0.551623
1629807858567,-0.456341,0.697718,-0.552416
1629807858577,-0.455914,0.698511,-0.552111
1629807858587,-0.456219,0.698145,-0.553514
1629807858596,-0.456646,0.698694,-0.555161
1629807858606,-0.456951,0.697352,-0.554246
1629807858615,-0.45627999999999996,0.693387,-0.552965
1629807858625,-0.456646,0.6932039999999999,-0.551867
1629807858635,-0.456829,0.693082,-0.551257
1629807858644,-0.45688999999999996,0.69052,-0.553331
1629807858654,-0.456219,0.687958,-0.551562
1629807858663,-0.457378,0.690703,-0.553392
1629807858673,-0.458964,0.692411,-0.557906
1629807858683,-0.45914699999999997,0.693753,-0.558699
1629807858692,-0.459208,0.693326,-0.553758
1629807858702,-0.460794,0.694241,-0.547048
1629807858711,-0.460611,0.695888,-0.545767
1629807858721,-0.46067199999999997,0.697291,-0.547536
1629807858731,-0.459696,0.697901,-0.550891
1629807858740,-0.46036699999999997,0.697962,-0.552599
1629807858750,-0.459208,0.696742,-0.553392
1629807858759,-0.45945199999999997,0.695949,-0.553941
1629807858769,-0.46055,0.694302,-0.551928
1629807858779,-0.461404,0.691557,-0.549488
1629807858788,-0.462136,0.6898489999999999,-0.546011
1629807858798,-0.46219699999999997,0.688202,-0.546011
1629807858807,-0.462441,0.68808,-0.547109
1629807858817,-0.463356,0.689117,-0.549732
1629807858827,-0.462136,0.690398,-0.551257
1629807858836,-0.463234,0.692106,-0.552721
1629807858846,-0.462624,0.694485,-0.554063
1629807858855,-0.462624,0.694912,-0.554246
1629807858865,-0.462929,0.696071,-0.553392
1629807858875,-0.462929,0.696681,-0.55205
1629807858884,-0.463966,0.696254,-0.551135
1629807858894,-0.46372199999999997,0.695461,-0.550891
1629807858903,-0.461831,0.69357,-0.550769
1629807858913,-0.461648,0.694485,-0.553941
1629807858923,-0.463539,0.6944239999999999,-0.55571
1629807858932,-0.462014,0.693875,-0.557906
1629807858942,-0.461221,0.6919839999999999,-0.554917
1629807858951,-0.461648,0.6913739999999999,-0.549549
1629807858961,-0.463966,0.691862,-0.5456449999999999
1629807858971,-0.462258,0.691923,-0.546133
1629807858980,-0.461831,0.694607,-0.549793
1629807858990,-0.46158699999999997,0.696437,-0.553392
1629807858999,-0.461404,0.697413,-0.556015
1629807859009,-0.461709,0.696925,-0.556564
1629807859019,-0.461526,0.696681,-0.555893
1629807859028,-0.462014,0.695339,-0.553697
1629807859038,-0.46158699999999997,0.6935089999999999,-0.552233
1629807859047,-0.461648,0.691801,-0.551196
1629807859057,-0.462685,0.689788,-0.551135
1629807859067,-0.46280699999999997,0.689117,-0.551318
1629807859076,-0.463661,0.688568,-0.552538
1629807859086,-0.463478,0.6895439999999999,-0.553941
1629807859095,-0.463295,0.690337,-0.554917
1629807859105,-0.46299,0.6904589999999999,-0.555283
1629807859115,-0.463539,0.691618,-0.554856
1629807859124,-0.46311199999999997,0.691313,-0.555405
1629807859134,-0.463234,0.691435,-0.554429
1629807859143,-0.463356,0.691008,-0.553026
1629807859153,-0.463478,0.6901539999999999,-0.553148
1629807859163,-0.463783,0.6893,-0.552477
1629807859172,-0.463295,0.6893,-0.552172
1629807859182,-0.463234,0.689422,-0.55327
1629807859191,-0.463356,0.6892389999999999,-0.55266
1629807859201,-0.463539,0.689788,-0.553453
1629807859211,-0.462929,0.690276,-0.554551
1629807859220,-0.463478,0.6904589999999999,-0.554124
1629807859230,-0.463051,0.691313,-0.554368
1629807859239,-0.462563,0.690947,-0.554795
1629807859249,-0.462136,0.692411,-0.554185
1629807859259,-0.461526,0.6922889999999999,-0.552111
1629807859268,-0.462014,0.6932039999999999,-0.552294
1629807859278,-0.46158699999999997,0.6935089999999999,-0.552538
1629807859287,-0.46116,0.693997,-0.55144
1629807859297,-0.460428,0.694058,-0.551745
1629807859307,-0.459391,0.694973,-0.550342
1629807859316,-0.45933,0.694912,-0.550586
1629807859326,-0.458232,0.696498,-0.550525
1629807859335,-0.458476,0.697779,-0.550159
1629807859345,-0.458415,0.697474,-0.546438
1629807859355,-0.459025,0.69784,-0.546621
1629807859364,-0.458232,0.699304,-0.545828
1629807859374,-0.457256,0.699121,-0.545889
1629807859383,-0.457683,0.700158,-0.547658
1629807859393,-0.457561,0.701073,-0.547353
1629807859403,-0.457744,0.700768,-0.546499
1629807859412,-0.457622,0.699548,-0.546072
1629807859422,-0.458049,0.699365,-0.544791
1629807859431,-0.459208,0.70028,-0.544608
1629807859441,-0.459025,0.700646,-0.544974
1629807859451,-0.459208,0.700951,-0.5468649999999999
1629807859460,-0.459818,0.70089,-0.549244
1629807859470,-0.45933,0.699914,-0.549244
1629807859479,-0.460855,0.69845,-0.546987
1629807859489,-0.460184,0.695705,-0.545523
1629807859499,-0.460184,0.695766,-0.545096
1629807859508,-0.459208,0.69601,-0.545889
1629807859518,-0.457622,0.693448,-0.548268
1629807859527,-0.45884199999999997,0.693631,-0.549732
1629807859537,-0.45933,0.697291,-0.551684
1629807859547,-0.46097699999999997,0.697779,-0.551562
1629807859556,-0.46116,0.698389,-0.549427
1629807859566,-0.460245,0.699609,-0.5459499999999999
1629807859575,-0.461343,0.700707,-0.5432049999999999
1629807859585,-0.460245,0.702476,-0.544669
1629807859595,-0.458415,0.703086,-0.546804
1629807859604,-0.458476,0.701988,-0.549061
1629807859614,-0.459208,0.699914,-0.549793
1629807859623,-0.459269,0.698267,-0.550342
1629807859633,-0.459086,0.696681,-0.548939
1629807859643,-0.459696,0.695522,-0.546377
1629807859652,-0.459879,0.696498,-0.543571
1629807859662,-0.459879,0.695827,-0.5435099999999999
1629807859671,-0.459391,0.696193,-0.5444249999999999
1629807859681,-0.459086,0.695644,-0.545218
1629807859691,-0.458232,0.697047,-0.546987
1629807859700,-0.458232,0.696864,-0.547597
1629807859710,-0.457927,0.698938,-0.5483899999999999
1629807859719,-0.45872,0.69967,-0.549366
1629807859729,-0.45914699999999997,0.700402,-0.548146
1629807859739,-0.459025,0.700768,-0.5477799999999999
1629807859748,-0.458293,0.702659,-0.548268
1629807859758,-0.458598,0.703757,-0.545767
1629807859767,-0.458354,0.701927,-0.545157
1629807859777,-0.4575,0.700402,-0.547597
1629807859787,-0.457988,0.700158,-0.549061
1629807859796,-0.45811,0.699426,-0.550098
1629807859806,-0.458232,0.698023,-0.551318
1629807859815,-0.456524,0.696986,-0.546377
1629807859825,-0.457012,0.695705,-0.540094
1629807859835,-0.459025,0.696681,-0.5392399999999999
1629807859844,-0.459696,0.698145,-0.540887
1629807859854,-0.459696,0.700768,-0.544547
1629807859863,-0.460611,0.702537,-0.547719
1629807859873,-0.459818,0.7053429999999999,-0.550464
1629807859883,-0.459635,0.705709,-0.550952
1629807859892,-0.45994,0.7050379999999999,-0.54961
1629807859902,-0.460184,0.704306,-0.546682
1629807859911,-0.460916,0.702781,-0.544547
1629807859921,-0.46067199999999997,0.701927,-0.543388
1629807859931,-0.46055,0.700585,-0.543754
1629807859940,-0.46097699999999997,0.699487,-0.543388
1629807859950,-0.460733,0.698206,-0.543876
1629807859959,-0.46097699999999997,0.698023,-0.544791
1629807859969,-0.46055,0.699243,-0.545584
1629807859979,-0.460916,0.699548,-0.545218
1629807859988,-0.460489,0.700341,-0.544181
1629807859998,-0.46067199999999997,0.700463,-0.543632
1629807860007,-0.461404,0.700585,-0.543937
1629807860017,-0.460306,0.700768,-0.5428999999999999
1629807860027,-0.460123,0.699853,-0.542961
1629807860036,-0.46036699999999997,0.700829,-0.542656
1629807860046,-0.459879,0.699487,-0.543632
1629807860055,-0.460489,0.699914,-0.544608
1629807860065,-0.460794,0.700097,-0.545462
1629807860075,-0.459086,0.700158,-0.545279
1629807860084,-0.458781,0.701195,-0.544669
1629807860094,-0.45872,0.701622,-0.544669
1629807860103,-0.457256,0.7015,-0.5456449999999999
1629807860113,-0.456768,0.701317,-0.544181
1629807860123,-0.456768,0.701744,-0.544364
1629807860132,-0.456829,0.702659,-0.5435099999999999
1629807860142,-0.455792,0.703025,-0.542961
1629807860151,-0.454694,0.70333,-0.542656
1629807860161,-0.454877,0.704184,-0.543327
1629807860171,-0.454084,0.704245,-0.543571
1629807860180,-0.455304,0.704855,-0.542839
1629807860190,-0.455853,0.7056479999999999,-0.542656
1629807860199,-0.45597499999999996,0.706319,-0.543998
1629807860209,-0.45505999999999996,0.706807,-0.542839
1629807860219,-0.455792,0.707295,-0.542717
1629807860228,-0.455792,0.707539,-0.542473
1629807860238,-0.456646,0.707295,-0.542778
1629807860247,-0.456768,0.706441,-0.542656
1629807860257,-0.455731,0.706441,-0.542717
1629807860267,-0.456158,0.706746,-0.543937
1629807860276,-0.456524,0.705892,-0.543083
1629807860286,-0.45627999999999996,0.704916,-0.542961
1629807860295,-0.457683,0.7035129999999999,-0.542107
1629807860305,-0.457866,0.703452,-0.5413749999999999
1629807860315,-0.457744,0.70333,-0.542839
1629807860324,-0.456829,0.703452,-0.543632
1629807860334,-0.457439,0.70272,-0.543144
1629807860343,-0.457378,0.701317,-0.5432049999999999
1629807860353,-0.45658499999999996,0.701317,-0.543632
1629807860363,-0.458232,0.701561,-0.542229
1629807860372,-0.458781,0.700402,-0.543266
1629807860382,-0.458476,0.70089,-0.544974
1629807860391,-0.45933,0.701012,-0.546377
1629807860401,-0.45994,0.700341,-0.5474749999999999
1629807860411,-0.46097699999999997,0.69967,-0.547963
1629807860420,-0.46116,0.698816,-0.548451
1629807860430,-0.46055,0.69601,-0.548512
1629807860439,-0.460489,0.695278,-0.547902
1629807860449,-0.46097699999999997,0.693936,-0.548817
1629807860459,-0.459574,0.6895439999999999,-0.548146
1629807860468,-0.459391,0.688568,-0.549305
1629807860478,-0.460306,0.693631,-0.55144
1629807860487,-0.460184,0.695949,-0.552538
1629807860497,-0.459086,0.69662,-0.549976
1629807860507,-0.459696,0.696925,-0.543266
1629807860516,-0.460733,0.699548,-0.541009
1629807860526,-0.460184,0.702537,-0.5435099999999999
1629807860535,-0.459818,0.704367,-0.546438
1629807860545,-0.45872,0.705282,-0.549244
1629807860555,-0.459574,0.7047329999999999,-0.549305
1629807860564,-0.459208,0.704062,-0.549305
1629807860574,-0.458293,0.702659,-0.549915
1629807860583,-0.458598,0.700524,-0.5480849999999999
1629807860593,-0.459025,0.699487,-0.5453399999999999
1629807860603,-0.45884199999999997,0.69723,-0.544303
1629807860612,-0.457744,0.695888,-0.5453399999999999
1629807860622,-0.458171,0.694546,-0.547414
1629807860631,-0.4575,0.694912,-0.548756
1629807860641,-0.457195,0.695583,-0.550891
1629807860651,-0.45688999999999996,0.696376,-0.551318
1629807860660,-0.456402,0.697108,-0.551074
1629807860670,-0.457012,0.697718,-0.55083
1629807860679,-0.456097,0.699243,-0.550159
1629807860689,-0.456158,0.70028,-0.550586
1629807860699,-0.456158,0.70089,-0.55083
1629807860708,-0.455487,0.700829,-0.550342
1629807860718,-0.454938,0.700341,-0.549427
1629807860727,-0.453169,0.698572,-0.549732
1629807860737,-0.45414499999999997,0.698511,-0.551806
1629807860747,-0.453962,0.698084,-0.552355
1629807860756,-0.453291,0.695644,-0.55266
1629807860766,-0.45414499999999997,0.693692,-0.55022
1629807860775,-0.45444999999999997,0.693143,-0.545462
1629807860785,-0.454877,0.693692,-0.542046
1629807860795,-0.45566999999999996,0.69601,-0.5432049999999999
1629807860804,-0.455731,0.698999,-0.547536
1629807860814,-0.45566999999999996,0.700707,-0.550342
1629807860823,-0.456341,0.703147,-0.552172
1629807860833,-0.4575,0.703879,-0.553636
1629807860843,-0.457561,0.7035129999999999,-0.553697
1629807860852,-0.457744,0.702354,-0.550525
1629807860862,-0.459086,0.700829,-0.548207
1629807860871,-0.459635,0.699121,-0.545523
1629807860881,-0.459818,0.698572,-0.5453399999999999
1629807860891,-0.459391,0.698267,-0.545706
1629807860900,-0.460123,0.697474,-0.546377
1629807860910,-0.460916,0.697474,-0.547902
1629807860919,-0.459574,0.698206,-0.547658
1629807860929,-0.460733,0.698389,-0.546682
1629807860939,-0.45994,0.698267,-0.546926
1629807860948,-0.460123,0.699121,-0.547292
1629807860958,-0.460306,0.699548,-0.546682
1629807860967,-0.460489,0.699182,-0.547536
1629807860977,-0.460855,0.69906,-0.5477799999999999
1629807860987,-0.461404,0.697169,-0.547109
1629807860996,-0.462136,0.696864,-0.547414
1629807861006,-0.461038,0.696864,-0.548024
1629807861015,-0.460916,0.69601,-0.548573
1629807861025,-0.46055,0.696132,-0.548634
1629807861035,-0.45945199999999997,0.695949,-0.549427
1629807861044,-0.459696,0.69601,-0.550525
1629807861054,-0.46006199999999997,0.69662,-0.550891
1629807861063,-0.459086,0.696071,-0.550952
1629807861073,-0.457988,0.696681,-0.551135
1629807861083,-0.456951,0.696681,-0.550098
1629807861092,-0.456402,0.697108,-0.550403
1629807861102,-0.45505999999999996,0.697535,-0.549183
1629807861111,-0.45353499999999997,0.69845,-0.548695
1629807861121,-0.453779,0.700402,-0.549061
1629807861131,-0.453718,0.7015,-0.550769
1629807861140,-0.452864,0.702842,-0.550586
1629807861150,-0.45170499999999997,0.702232,-0.550464
1629807861159,-0.451522,0.702354,-0.550769
1629807861169,-0.45139999999999997,0.702964,-0.551074
1629807861179,-0.451217,0.701805,-0.550281
1629807861188,-0.45139999999999997,0.701256,-0.550525
1629807861198,-0.450729,0.702354,-0.551989
1629807861207,-0.450607,0.70211,-0.551318
1629807861217,-0.450119,0.701317,-0.550891
1629807861227,-0.450241,0.702415,-0.551257
1629807861236,-0.451278,0.701012,-0.551867
1629807861246,-0.449326,0.701744,-0.552294
1629807861255,-0.450241,0.70089,-0.553087
1629807861265,-0.450363,0.700768,-0.552416
1629807861275,-0.449753,0.700463,-0.551379
1629807861284,-0.451461,0.699426,-0.552111
1629807861294,-0.450668,0.699609,-0.553026
1629807861303,-0.449936,0.699853,-0.55388
1629807861313,-0.450729,0.699548,-0.553758
1629807861323,-0.449936,0.698511,-0.553819
1629807861332,-0.450424,0.697718,-0.553026
1629807861342,-0.450363,0.69662,-0.552111
1629807861351,-0.451644,0.697474,-0.551867
1629807861361,-0.45139999999999997,0.698145,-0.551806
1629807861371,-0.450912,0.698023,-0.552355
1629807861380,-0.451156,0.698145,-0.552843
1629807861390,-0.450668,0.698511,-0.551562
1629807861399,-0.450546,0.698328,-0.550708
1629807861409,-0.450668,0.69906,-0.55022
1629807861419,-0.451583,0.700036,-0.550403
1629807861428,-0.451461,0.700646,-0.551196
1629807861438,-0.452864,0.700219,-0.552477
1629807861447,-0.453047,0.698328,-0.553209
1629807861457,-0.453596,0.697657,-0.553087
1629807861467,-0.452864,0.697901,-0.553636
1629807861476,-0.45383999999999997,0.699304,-0.554002
1629807861486,-0.452803,0.698206,-0.556808
1629807861495,-0.451644,0.694363,-0.555039
1629807861505,-0.452437,0.694668,-0.555161
1629807861515,-0.453108,0.696498,-0.557479
1629807861524,-0.452254,0.696742,-0.55815
1629807861534,-0.450729,0.698023,-0.553758
1629807861543,-0.450912,0.696864,-0.546438
1629807861553,-0.452193,0.698328,-0.542168
1629807861563,-0.45200999999999997,0.702293,-0.5435099999999999
1629807861572,-0.451827,0.705526,-0.547292
1629807861582,-0.451156,0.70821,-0.549305
1629807861591,-0.450363,0.708942,-0.550891
1629807861601,-0.451278,0.708576,-0.552294
1629807861611,-0.452193,0.708576,-0.55205
1629807861620,-0.45292499999999997,0.70699,-0.550891
1629807861630,-0.452742,0.705282,-0.549183
1629807861639,-0.45292499999999997,0.702842,-0.549366
1629807861649,-0.453901,0.700951,-0.548817
1629807861659,-0.454023,0.69845,-0.550037
1629807861668,-0.453291,0.695949,-0.551196
1629807861678,-0.452559,0.695217,-0.552355
1629807861687,-0.452681,0.695522,-0.554246
1629807861697,-0.452376,0.696376,-0.554124
1629807861707,-0.452132,0.697779,-0.553148
1629807861716,-0.452193,0.69845,-0.551806
1629807861726,-0.452498,0.700158,-0.552782
1629807861735,-0.453108,0.701317,-0.553026
1629807861745,-0.452132,0.703757,-0.552111
1629807861755,-0.451522,0.70333,-0.550769
1629807861764,-0.45017999999999997,0.701866,-0.550952
1629807861774,-0.451278,0.7015,-0.552843
1629807861783,-0.45170499999999997,0.70089,-0.554307
1629807861793,-0.451339,0.699243,-0.555954
1629807861803,-0.450851,0.697291,-0.554612
1629807861812,-0.450546,0.696498,-0.551074
1629807861822,-0.450729,0.69479,-0.548634
1629807861831,-0.450302,0.696376,-0.548146
1629807861841,-0.44987499999999997,0.698145,-0.549488
1629807861851,-0.451034,0.69967,-0.552721
1629807861860,-0.450912,0.7015,-0.555466
1629807861870,-0.451278,0.702354,-0.557113
1629807861879,-0.451461,0.702903,-0.558516
1629807861889,-0.45078999999999997,0.702659,-0.558028
1629807861899,-0.451278,0.700829,-0.555039
1629807861908,-0.451522,0.699609,-0.553026
1629807861918,-0.451461,0.69906,-0.552538
1629807861927,-0.451888,0.698084,-0.553392
1629807861937,-0.451278,0.698328,-0.552782
1629807861947,-0.451888,0.697901,-0.553636
1629807861956,-0.452132,0.697718,-0.553514
1629807861966,-0.450912,0.697413,-0.553453
1629807861975,-0.450851,0.698755,-0.552843
1629807861985,-0.451217,0.699487,-0.553758
1629807861995,-0.451583,0.699853,-0.553392
1629807862004,-0.451827,0.69967,-0.553819
1629807862014,-0.451522,0.698084,-0.553087
1629807862023,-0.45170499999999997,0.698999,-0.553026
1629807862033,-0.452498,0.697718,-0.552965
1629807862043,-0.453901,0.69845,-0.554124
1629807862052,-0.45414499999999997,0.697352,-0.554307
1629807862062,-0.453718,0.696376,-0.556137
1629807862071,-0.453657,0.696376,-0.555771
1629807862081,-0.453596,0.695705,-0.555954
1629807862091,-0.45475499999999996,0.6954,-0.555588
1629807862100,-0.454206,0.695156,-0.556198
1629807862110,-0.453718,0.695522,-0.556015
1629807862119,-0.454267,0.695461,-0.555588
1629807862129,-0.452803,0.695278,-0.554307
1629807862139,-0.452986,0.695522,-0.554856
1629807862148,-0.453169,0.695583,-0.554856
1629807862158,-0.452986,0.696742,-0.554612
1629807862167,-0.45292499999999997,0.695827,-0.553514
1629807862177,-0.454206,0.696193,-0.554429
1629807862187,-0.452498,0.696437,-0.55449
1629807862196,-0.45322999999999997,0.696437,-0.553209
1629807862206,-0.452681,0.698206,-0.552172
1629807862215,-0.452742,0.698816,-0.55266
1629807862225,-0.452864,0.698694,-0.551867
1629807862235,-0.451949,0.698633,-0.552416
1629807862244,-0.452254,0.698511,-0.553026
1629807862254,-0.453108,0.699304,-0.552355
1629807862263,-0.453657,0.697962,-0.551806
1629807862273,-0.452986,0.69845,-0.551928
1629807862283,-0.452742,0.698084,-0.551745
1629807862292,-0.45383999999999997,0.698511,-0.551806
1629807862302,-0.454328,0.697901,-0.551806
1629807862311,-0.455182,0.697718,-0.552416
1629807862321,-0.45627999999999996,0.69784,-0.553758
1629807862331,-0.455792,0.697474,-0.554124
1629807862340,-0.455792,0.696132,-0.553636
1629807862350,-0.457378,0.69662,-0.553819
1629807862359,-0.45658499999999996,0.696986,-0.55327
1629807862369,-0.45811,0.696254,-0.553758
1629807862379,-0.457805,0.696254,-0.551867
1629807862388,-0.45688999999999996,0.69479,-0.551501
1629807862398,-0.457561,0.696132,-0.552233
1629807862407,-0.456951,0.697474,-0.552416
1629807862417,-0.45627999999999996,0.69845,-0.551806
1629807862427,-0.456036,0.698633,-0.55266
1629807862436,-0.455914,0.69784,-0.553636
1629807862446,-0.456463,0.697352,-0.554612
1629807862455,-0.457012,0.69723,-0.554978
1629807862465,-0.456341,0.696132,-0.556869
1629807862475,-0.456402,0.694546,-0.557479
1629807862484,-0.457683,0.693021,-0.555771
1629807862494,-0.455609,0.690642,-0.552965
1629807862503,-0.455121,0.689178,-0.550769
1629807862513,-0.456158,0.690886,-0.552843
1629807862523,-0.454938,0.689178,-0.555466
1629807862532,-0.455548,0.688568,-0.552538
1629807862542,-0.457073,0.690825,-0.555039
1629807862551,-0.4575,0.6954,-0.556076
1629807862561,-0.456219,0.697108,-0.556686
1629807862571,-0.45627999999999996,0.697474,-0.550952
1629807862580,-0.457744,0.69906,-0.5459499999999999
1629807862590,-0.458598,0.701988,-0.5462549999999999
1629807862599,-0.458293,0.703147,-0.547963
1629807862609,-0.45811,0.702842,-0.548634
1629807862619,-0.458415,0.702537,-0.549732
1629807862628,-0.457805,0.701561,-0.55083
1629807862638,-0.457012,0.701073,-0.552294
1629807862647,-0.456707,0.698816,-0.550891
1629807862657,-0.456463,0.698084,-0.549183
1629807862667,-0.4575,0.695217,-0.546377
1629807862676,-0.457805,0.694912,-0.545462
1629807862686,-0.458964,0.69418,-0.5465599999999999
1629807862695,-0.45914699999999997,0.696071,-0.548451
1629807862705,-0.45914699999999997,0.696864,-0.550037
1629807862715,-0.457805,0.697474,-0.550586
1629807862724,-0.45811,0.698389,-0.550708
1629807862734,-0.456951,0.698938,-0.551379
1629807862743,-0.457073,0.699853,-0.551318
1629807862753,-0.456402,0.699853,-0.55022
1629807862763,-0.457317,0.69967,-0.550037
1629807862772,-0.45688999999999996,0.701134,-0.549549
1629807862782,-0.45658499999999996,0.701256,-0.547597
1629807862791,-0.456097,0.700158,-0.548146
1629807862801,-0.455182,0.698633,-0.54961
1629807862811,-0.454938,0.698816,-0.550586
1629807862820,-0.45627999999999996,0.697474,-0.552111
1629807862830,-0.45688999999999996,0.695461,-0.551562
1629807862839,-0.45597499999999996,0.694302,-0.545767
1629807862849,-0.456707,0.693936,-0.541192
1629807862859,-0.458354,0.696071,-0.541131
1629807862868,-0.457378,0.698084,-0.5435099999999999
1629807862878,-0.457988,0.701683,-0.5465599999999999
1629807862887,-0.458476,0.70394,-0.549366
1629807862897,-0.457622,0.705587,-0.551501
1629807862907,-0.458232,0.705404,-0.552843
1629807862916,-0.457805,0.705709,-0.551867
1629807862926,-0.457622,0.7035129999999999,-0.549793
1629807862935,-0.45884199999999997,0.700707,-0.547963
1629807862945,-0.458537,0.699182,-0.546987
1629807862955,-0.45994,0.697962,-0.546682
1629807862964,-0.45872,0.697474,-0.547658
1629807862974,-0.458659,0.697901,-0.5477799999999999
1629807862983,-0.458476,0.698816,-0.55022
1629807862993,-0.458293,0.70028,-0.55022
1629807863003,-0.456829,0.699914,-0.549
1629807863012,-0.456951,0.700036,-0.549061
1629807863022,-0.457744,0.700951,-0.54961
1629807863031,-0.457256,0.700036,-0.549366
1629807863041,-0.457866,0.699914,-0.548817
1629807863051,-0.45688999999999996,0.698328,-0.549427
1629807863060,-0.457866,0.698633,-0.548878
1629807863070,-0.457317,0.698816,-0.550281
1629807863079,-0.4575,0.698267,-0.548512
1629807863089,-0.457378,0.69784,-0.549244
1629807863099,-0.45688999999999996,0.699304,-0.550037
1629807863108,-0.456524,0.698999,-0.549854
1629807863118,-0.456402,0.698389,-0.549976
1629807863127,-0.45627999999999996,0.698572,-0.549427
1629807863137,-0.456219,0.698389,-0.549427
1629807863147,-0.456219,0.699304,-0.549305
1629807863156,-0.45688999999999996,0.699731,-0.548573
1629807863166,-0.45536499999999996,0.699426,-0.548634
1629807863175,-0.455731,0.699365,-0.547902
1629807863185,-0.45566999999999996,0.699243,-0.546926
1629807863195,-0.45566999999999996,0.700463,-0.546987
1629807863204,-0.454084,0.702232,-0.5468649999999999
1629807863214,-0.45505999999999996,0.703147,-0.546804
1629807863223,-0.455426,0.7035129999999999,-0.546804
1629807863233,-0.454511,0.70394,-0.546499
1629807863243,-0.455304,0.703757,-0.5450349999999999
1629807863252,-0.454999,0.704794,-0.545279
1629807863262,-0.454389,0.704977,-0.545218
1629807863271,-0.45566999999999996,0.703696,-0.5450349999999999
1629807863281,-0.45597499999999996,0.70333,-0.545279
1629807863291,-0.455121,0.703086,-0.545096
1629807863300,-0.455548,0.70211,-0.545096
1629807863310,-0.456036,0.702232,-0.545889
1629807863319,-0.456463,0.702537,-0.5459499999999999
1629807863329,-0.456158,0.703147,-0.547109
1629807863339,-0.456463,0.7035129999999999,-0.548634
1629807863348,-0.456646,0.702476,-0.547109
1629807863358,-0.456707,0.700463,-0.546011
1629807863367,-0.45566999999999996,0.701134,-0.547231
1629807863377,-0.455548,0.701988,-0.547597
1629807863387,-0.45566999999999996,0.700707,-0.547292
1629807863396,-0.456768,0.700158,-0.548146
1629807863406,-0.45566999999999996,0.700158,-0.548939
1629807863415,-0.454023,0.701683,-0.549366
1629807863425,-0.45383999999999997,0.70333,-0.550464
1629807863435,-0.45414499999999997,0.702659,-0.549549
1629807863444,-0.454206,0.702415,-0.551074
1629807863454,-0.455182,0.701378,-0.55205
1629807863463,-0.455121,0.698572,-0.551074
1629807863473,-0.455487,0.698572,-0.551806
1629807863483,-0.455304,0.69662,-0.551806
1629807863492,-0.453962,0.6941189999999999,-0.551135
1629807863502,-0.454389,0.693326,-0.549976
1629807863511,-0.453657,0.693021,-0.551745
1629807863521,-0.45261999999999997,0.691191,-0.553392
1629807863531,-0.453047,0.691801,-0.554002
1629807863540,-0.453718,0.695705,-0.554368
1629807863550,-0.454938,0.696254,-0.554978
1629807863559,-0.455426,0.698755,-0.555527
1629807863569,-0.460916,0.69784,-0.554185
1629807863579,-0.452498,0.703086,-0.548756
1629807863588,-0.451583,0.705282,-0.550525
1629807863598,-0.451034,0.706502,-0.553087
1629807863607,-0.45170499999999997,0.70455,-0.553453
1629807863617,-0.451461,0.700158,-0.550647
1629807863627,-0.451522,0.698938,-0.549183
1629807863636,-0.452376,0.699243,-0.549793
1629807863646,-0.45322999999999997,0.697291,-0.548817
1629807863655,-0.45353499999999997,0.696742,-0.547353
1629807863665,-0.453718,0.697291,-0.546133
1629807863675,-0.452437,0.697779,-0.546133
1629807863684,-0.453291,0.698877,-0.546804
1629807863694,-0.454389,0.698572,-0.549427
1629807863703,-0.454206,0.699548,-0.550037
1629807863713,-0.455121,0.699487,-0.55083
1629807863723,-0.453474,0.700951,-0.551867
1629807863732,-0.454999,0.700829,-0.552599
1629807863742,-0.455548,0.700341,-0.551501
1629807863751,-0.454694,0.701012,-0.551867
1629807863761,-0.455121,0.702354,-0.551562
1629807863771,-0.455548,0.702171,-0.550098
1629807863780,-0.453901,0.699365,-0.54961
1629807863790,-0.453352,0.699426,-0.550769
1629807863799,-0.454023,0.699487,-0.551928
1629807863809,-0.454206,0.698023,-0.553087
1629807863819,-0.453291,0.697596,-0.552294
1629807863828,-0.451766,0.697535,-0.546194
1629807863838,-0.45353499999999997,0.696071,-0.543083
1629807863847,-0.45475499999999996,0.698694,-0.544059
1629807863857,-0.45475499999999996,0.701805,-0.548146
1629807863867,-0.454633,0.70394,-0.551989
1629807863876,-0.454938,0.704001,-0.554734
1629807863886,-0.454389,0.705526,-0.556015
1629807863895,-0.454328,0.704672,-0.554124
1629807863905,-0.45536499999999996,0.702598,-0.552904
1629807863915,-0.455548,0.701073,-0.551928
1629807863924,-0.455853,0.699182,-0.549976
1629807863934,-0.455792,0.696681,-0.548512
1629807863943,-0.455731,0.69601,-0.548817
1629807863953,-0.455853,0.695644,-0.549183
1629807863963,-0.457561,0.695644,-0.550281
1629807863972,-0.456524,0.696132,-0.550403
1629807863982,-0.455914,0.697596,-0.55022
1629807863991,-0.456402,0.697718,-0.550403
1629807864001,-0.456402,0.69784,-0.550342
1629807864011,-0.455121,0.697901,-0.549793
1629807864020,-0.456402,0.697779,-0.550159
1629807864030,-0.457744,0.697535,-0.551684
1629807864039,-0.457622,0.696437,-0.55083
1629807864049,-0.457378,0.696742,-0.550342
1629807864059,-0.4575,0.697291,-0.551379
1629807864068,-0.456707,0.696925,-0.551989
1629807864078,-0.457012,0.695827,-0.55266
1629807864087,-0.458354,0.695034,-0.554002
1629807864097,-0.457927,0.69601,-0.553026
1629807864107,-0.456341,0.695034,-0.554734
1629807864116,-0.456463,0.695766,-0.554246
1629807864126,-0.455914,0.694851,-0.55327
1629807864135,-0.455792,0.695339,-0.55266
1629807864145,-0.45566999999999996,0.696681,-0.552904
1629807864155,-0.455487,0.695705,-0.551623
1629807864164,-0.454938,0.695522,-0.55083
1629807864174,-0.452864,0.697108,-0.551684
1629807864183,-0.451278,0.698206,-0.551074
1629807864193,-0.45231499999999997,0.698877,-0.549427
1629807864203,-0.45261999999999997,0.698694,-0.549671
1629807864212,-0.451766,0.699853,-0.549732
1629807864222,-0.452376,0.699731,-0.550586
1629807864231,-0.45292499999999997,0.699792,-0.550586
1629807864241,-0.455548,0.698084,-0.55022
1629807864251,-0.454938,0.697657,-0.550586
1629807864260,-0.454328,0.698816,-0.550098
1629807864270,-0.454328,0.699609,-0.551318
1629807864279,-0.454633,0.699914,-0.551379
1629807864289,-0.455182,0.700158,-0.551623
1629807864299,-0.455609,0.699182,-0.551318
1629807864308,-0.455609,0.69906,-0.550464
1629807864318,-0.456097,0.698572,-0.548146
1629807864327,-0.457134,0.698206,-0.547902
1629807864337,-0.45627999999999996,0.699792,-0.547536
1629807864347,-0.456707,0.700158,-0.547048
1629807864356,-0.457317,0.701988,-0.546987
1629807864366,-0.457805,0.701866,-0.547719
1629807864375,-0.457744,0.701622,-0.5480849999999999
1629807864385,-0.457805,0.702171,-0.5480849999999999
1629807864395,-0.458964,0.701988,-0.548024
1629807864404,-0.459574,0.702415,-0.549061
1629807864414,-0.459818,0.702049,-0.550586
1629807864423,-0.460855,0.701012,-0.551074
1629807864433,-0.461404,0.700707,-0.551013
1629807864443,-0.46067199999999997,0.699914,-0.55022
1629807864452,-0.46055,0.696864,-0.549
1629807864462,-0.45975699999999997,0.69418,-0.548024
1629807864471,-0.460428,0.695278,-0.549854
1629807864481,-0.459208,0.692777,-0.550891
1629807864491,-0.4575,0.690398,-0.54961
1629807864500,-0.45914699999999997,0.6928989999999999,-0.55205
1629807864510,-0.458781,0.695766,-0.554063
1629807864519,-0.457378,0.696132,-0.552294
1629807864529,-0.457866,0.696132,-0.546377
1629807864539,-0.457988,0.698755,-0.5422899999999999
1629807864548,-0.458415,0.701683,-0.545157
1629807864558,-0.456768,0.70455,-0.5477799999999999
1629807864567,-0.455487,0.705099,-0.550464
1629807864577,-0.455182,0.704489,-0.55144
1629807864587,-0.455487,0.703452,-0.550708
1629807864596,-0.454389,0.702293,-0.549366
1629807864606,-0.453596,0.7015,-0.547414
1629807864615,-0.453962,0.699792,-0.544913
1629807864625,-0.454206,0.698633,-0.543632
1629807864635,-0.453962,0.697474,-0.544669
1629807864644,-0.454328,0.699182,-0.5465599999999999
1629807864654,-0.453596,0.69967,-0.547902
1629807864663,-0.452437,0.700951,-0.548512
1629807864673,-0.45261999999999997,0.702171,-0.548878
1629807864683,-0.452803,0.702171,-0.54961
1629807864692,-0.452681,0.703025,-0.549549
1629807864702,-0.453047,0.703574,-0.549793
1629807864711,-0.45322999999999997,0.70394,-0.54961
1629807864721,-0.454389,0.703635,-0.550342
1629807864731,-0.454633,0.702537,-0.55022
1629807864740,-0.453352,0.7050379999999999,-0.549427
1629807864750,-0.45292499999999997,0.703086,-0.548573
1629807864759,-0.452193,0.701256,-0.549976
1629807864769,-0.45292499999999997,0.701317,-0.55144
1629807864779,-0.452986,0.700341,-0.551806
1629807864788,-0.452376,0.697657,-0.552782
1629807864798,-0.452681,0.696193,-0.548451
1629807864807,-0.453474,0.694668,-0.542351
1629807864817,-0.45475499999999996,0.696193,-0.541741
1629807864827,-0.455792,0.698328,-0.545584
1629807864836,-0.455609,0.700158,-0.550586
1629807864846,-0.455853,0.702293,-0.553209
1629807864855,-0.456158,0.703574,-0.554673
1629807864865,-0.45658499999999996,0.702659,-0.555527
1629807864875,-0.456463,0.702476,-0.554734
1629807864884,-0.45688999999999996,0.701622,-0.552538
1629807864894,-0.458293,0.699304,-0.55022
1629807864903,-0.457439,0.697108,-0.548695
1629807864913,-0.458171,0.695278,-0.547841
1629807864923,-0.457927,0.694973,-0.549549
1629807864932,-0.457744,0.695644,-0.549122
1629807864942,-0.457561,0.696254,-0.549549
1629807864951,-0.457195,0.697413,-0.550342
1629807864961,-0.457195,0.697657,-0.550403
1629807864971,-0.457012,0.698206,-0.549854
1629807864980,-0.457134,0.697596,-0.55022
1629807864990,-0.457805,0.698145,-0.550525
1629807864999,-0.458232,0.697169,-0.550586
1629807865009,-0.458598,0.696498,-0.549488
1629807865019,-0.459574,0.696132,-0.549793
1629807865028,-0.457988,0.696437,-0.551257
1629807865038,-0.459879,0.696803,-0.551623
1629807865047,-0.459025,0.695949,-0.551684
1629807865057,-0.458293,0.69601,-0.552233
1629807865067,-0.45811,0.696376,-0.552355
1629807865076,-0.457195,0.69723,-0.552782
1629807865086,-0.456951,0.695522,-0.552416
1629807865095,-0.457134,0.695522,-0.551684
1629807865105,-0.45658499999999996,0.695705,-0.551623
1629807865115,-0.455792,0.695278,-0.551135
1629807865124,-0.455853,0.696376,-0.551928
1629807865134,-0.455609,0.696925,-0.552233
1629807865143,-0.454877,0.697962,-0.551135
1629807865153,-0.45475499999999996,0.698694,-0.551074
1629807865163,-0.45383999999999997,0.699426,-0.551318
1629807865172,-0.454084,0.699914,-0.55144
1629807865182,-0.452986,0.699426,-0.550342
1629807865191,-0.45353499999999997,0.700097,-0.550708
1629807865201,-0.45322999999999997,0.69967,-0.549061
1629807865211,-0.453047,0.700951,-0.550586
1629807865220,-0.453474,0.701378,-0.550952
1629807865230,-0.453657,0.700646,-0.549976
1629807865239,-0.45383999999999997,0.70089,-0.549183
1629807865249,-0.45444999999999997,0.700707,-0.55022
1629807865259,-0.453962,0.700402,-0.551562
1629807865268,-0.454267,0.699731,-0.551684
1629807865278,-0.454389,0.699548,-0.551562
1629807865287,-0.453718,0.700341,-0.55083
1629807865297,-0.45383999999999997,0.700341,-0.550281
1629807865307,-0.45536499999999996,0.69845,-0.549305
1629807865316,-0.45536499999999996,0.697962,-0.548878
1629807865326,-0.454694,0.69784,-0.549915
1629807865335,-0.455487,0.697413,-0.549854
1629807865345,-0.456829,0.69723,-0.550464
1629807865355,-0.455304,0.698206,-0.551013
1629807865364,-0.455792,0.69906,-0.55083
1629807865374,-0.456097,0.699548,-0.550098
1629807865383,-0.456097,0.69967,-0.550281
1629807865393,-0.457073,0.699914,-0.551379
1629807865403,-0.456646,0.699914,-0.552416
1629807865412,-0.457317,0.700219,-0.552172
1629807865422,-0.457683,0.698023,-0.552721
1629807865431,-0.457378,0.69601,-0.551379
1629807865441,-0.456463,0.695156,-0.550159
1629807865451,-0.45627999999999996,0.694546,-0.552965
1629807865460,-0.454633,0.693082,-0.55327
1629807865470,-0.45414499999999997,0.6907639999999999,-0.552416
1629807865479,-0.45505999999999996,0.692411,-0.555283
1629807865489,-0.456219,0.695522,-0.556686
1629807865499,-0.454572,0.695522,-0.555222
1629807865508,-0.45383999999999997,0.695888,-0.548878
1629807865518,-0.454694,0.697291,-0.544547
1629807865527,-0.454938,0.701073,-0.5456449999999999
1629807865537,-0.454633,0.703696,-0.551074
1629807865547,-0.454938,0.705099,-0.553758
1629807865556,-0.453474,0.704977,-0.554978
1629807865566,-0.45353499999999997,0.703757,-0.553758
1629807865575,-0.452864,0.702049,-0.552538
1629807865585,-0.453718,0.700524,-0.551196
1629807865595,-0.454389,0.698694,-0.548756
1629807865604,-0.454999,0.697108,-0.548024
1629807865614,-0.454633,0.697108,-0.548817
1629807865623,-0.453352,0.696925,-0.549183
1629807865633,-0.454572,0.697291,-0.55266
1629807865643,-0.453108,0.697108,-0.553514
1629807865652,-0.453169,0.697352,-0.554612
1629807865662,-0.453718,0.698694,-0.554368
1629807865671,-0.45292499999999997,0.698999,-0.554063
1629807865681,-0.452742,0.698755,-0.552538
1629807865691,-0.452498,0.698511,-0.551196
1629807865700,-0.452742,0.698938,-0.55205
1629807865710,-0.45231499999999997,0.698877,-0.551989
1629807865719,-0.45200999999999997,0.700707,-0.551318
1629807865729,-0.452742,0.69967,-0.550769
1629807865739,-0.45139999999999997,0.697169,-0.550952
1629807865748,-0.45200999999999997,0.698572,-0.554063
1629807865758,-0.453108,0.698389,-0.55571
1629807865767,-0.454511,0.694607,-0.556991
1629807865777,-0.45383999999999997,0.69418,-0.5551
1629807865787,-0.454267,0.694729,-0.549244
1629807865796,-0.456097,0.693875,-0.546804
1629807865806,-0.455304,0.695156,-0.54961
1629807865815,-0.455487,0.697718,-0.554795
1629807865825,-0.455426,0.699243,-0.558455
1629807865835,-0.456036,0.699853,-0.560102
1629807865844,-0.455914,0.698877,-0.560651
1629807865854,-0.455853,0.697718,-0.559553
1629807865863,-0.456768,0.695705,-0.556808
1629807865873,-0.456463,0.694607,-0.554124
1629807865883,-0.457317,0.692838,-0.552965
1629807865892,-0.456768,0.691496,-0.551989
1629807865902,-0.457805,0.690032,-0.552172
1629807865911,-0.457134,0.689727,-0.553148
1629807865921,-0.457683,0.6907639999999999,-0.552355
1629807865931,-0.457988,0.692045,-0.552599
1629807865940,-0.457622,0.69296,-0.55388
1629807865950,-0.457866,0.694058,-0.552294
1629807865959,-0.459025,0.694668,-0.552843
1629807865969,-0.45945199999999997,0.694607,-0.553209
1629807865979,-0.459818,0.694058,-0.552965
1629807865988,-0.46128199999999997,0.693082,-0.554246
1629807865998,-0.461343,0.691618,-0.554429
1629807866007,-0.461648,0.692106,-0.554307
1629807866017,-0.461343,0.692045,-0.554856
1629807866027,-0.461526,0.692777,-0.554673
1629807866036,-0.461343,0.692106,-0.555405
1629807866046,-0.46189199999999997,0.692167,-0.556198
1629807866055,-0.46097699999999997,0.691252,-0.556869
1629807866065,-0.46036699999999997,0.692472,-0.555588
1629807866075,-0.460489,0.691862,-0.556015
1629807866084,-0.459635,0.6913739999999999,-0.556015
1629807866094,-0.458354,0.6913739999999999,-0.557052
1629807866103,-0.458476,0.6925939999999999,-0.556442
1629807866113,-0.457195,0.6938139999999999,-0.556991
1629807866123,-0.45688999999999996,0.693387,-0.555832
1629807866132,-0.455609,0.6938139999999999,-0.555893
1629807866142,-0.454694,0.695034,-0.55571
1629807866151,-0.45444999999999997,0.694912,-0.556198
1629807866161,-0.453718,0.694363,-0.556259
1629807866171,-0.454267,0.694912,-0.555039
1629807866180,-0.45383999999999997,0.694729,-0.555466
1629807866190,-0.453657,0.695095,-0.554978
1629807866199,-0.45322999999999997,0.693692,-0.555222
1629807866209,-0.453474,0.694607,-0.554917
1629807866219,-0.453291,0.694363,-0.5551
1629807866228,-0.454084,0.695034,-0.554734
1629807866238,-0.453779,0.695888,-0.555039
1629807866247,-0.453352,0.695217,-0.55449
1629807866257,-0.454633,0.6954,-0.553697
1629807866267,-0.45536499999999996,0.696437,-0.554856
1629807866276,-0.454938,0.696193,-0.554734
1629807866286,-0.45597499999999996,0.696315,-0.554551
1629807866295,-0.456341,0.695583,-0.553392
1629807866305,-0.456402,0.695034,-0.551989
1629807866315,-0.457134,0.694668,-0.552721
1629807866324,-0.457195,0.694668,-0.553026
1629807866334,-0.457134,0.694851,-0.552355
1629807866343,-0.457683,0.694546,-0.552355
1629807866353,-0.4575,0.695217,-0.55327
1629807866363,-0.4575,0.695766,-0.552782
1629807866372,-0.457439,0.696498,-0.552294
1629807866382,-0.458659,0.696742,-0.552538
1629807866391,-0.457622,0.696437,-0.552721
1629807866401,-0.457927,0.697169,-0.552965
1629807866411,-0.457988,0.697596,-0.553331
1629807866420,-0.459025,0.696986,-0.553697
1629807866430,-0.460184,0.695156,-0.554002
1629807866439,-0.458598,0.693631,-0.55205
1629807866449,-0.459635,0.6935089999999999,-0.55327
1629807866459,-0.457866,0.691008,-0.555222
1629807866468,-0.456768,0.68869,-0.552721
1629807866478,-0.457378,0.690215,-0.553331
1629807866487,-0.457866,0.694668,-0.556015
1629807866497,-0.457927,0.69662,-0.55571
1629807866507,-0.456158,0.696132,-0.550403
1629807866516,-0.45688999999999996,0.697718,-0.544913
1629807866526,-0.457622,0.701134,-0.545767
1629807866535,-0.456036,0.70333,-0.549732
1629807866545,-0.454999,0.704245,-0.552599
1629807866555,-0.45627999999999996,0.7032079999999999,-0.552172
1629807866564,-0.45505999999999996,0.702659,-0.55266
1629807866574,-0.454206,0.701378,-0.552782
1629807866583,-0.45475499999999996,0.700036,-0.549427
1629807866593,-0.454572,0.697596,-0.547109
1629807866603,-0.45536499999999996,0.696498,-0.544181
1629807866612,-0.455609,0.694607,-0.544181
1629807866622,-0.45566999999999996,0.69662,-0.5459499999999999
1629807866631,-0.454328,0.698938,-0.549183
1629807866641,-0.453718,0.699792,-0.550708
1629807866651,-0.45322999999999997,0.700524,-0.55083
1629807866660,-0.453901,0.702171,-0.551745
1629807866670,-0.45383999999999997,0.701988,-0.551318
1629807866679,-0.453596,0.701012,-0.55022
1629807866689,-0.452681,0.700951,-0.551135
1629807866699,-0.45292499999999997,0.700402,-0.550647
1629807866708,-0.452742,0.700524,-0.551501
1629807866718,-0.452742,0.702049,-0.55205
1629807866727,-0.452681,0.701439,-0.552843
1629807866737,-0.450973,0.698755,-0.553514
1629807866747,-0.450729,0.69784,-0.554124
1629807866756,-0.451888,0.697169,-0.554612
1629807866766,-0.451278,0.696803,-0.556259
1629807866775,-0.44926499999999997,0.69601,-0.553026
1629807866785,-0.450729,0.696254,-0.546743
1629807866795,-0.452132,0.697291,-0.5465599999999999
1629807866804,-0.451278,0.700036,-0.548756
1629807866814,-0.450546,0.7044279999999999,-0.55144
1629807866823,-0.44987499999999997,0.704916,-0.554368
1629807866833,-0.449936,0.7068679999999999,-0.556564
1629807866843,-0.45017999999999997,0.706441,-0.557113
1629807866852,-0.450058,0.7047329999999999,-0.556198
1629807866862,-0.450546,0.703086,-0.552538
1629807866871,-0.45170499999999997,0.700036,-0.549549
1629807866881,-0.452803,0.698023,-0.548268
1629807866891,-0.452437,0.696742,-0.5477799999999999
1629807866900,-0.453047,0.695034,-0.547536
1629807866910,-0.451949,0.695461,-0.549427
1629807866919,-0.45139999999999997,0.696864,-0.551623
1629807866929,-0.451888,0.699304,-0.550891
1629807866939,-0.453352,0.7015,-0.550891
1629807866948,-0.45292499999999997,0.70211,-0.550525
1629807866958,-0.452559,0.7035129999999999,-0.549488
1629807866967,-0.45292499999999997,0.7044279999999999,-0.549549
1629807866977,-0.453108,0.7035129999999999,-0.549061
1629807866987,-0.452742,0.703086,-0.547902
1629807866996,-0.453779,0.702598,-0.548695
1629807867006,-0.455792,0.701988,-0.549488
1629807867015,-0.455304,0.702171,-0.548695
1629807867025,-0.455914,0.701927,-0.549
1629807867035,-0.454633,0.701378,-0.548939
1629807867044,-0.454938,0.7015,-0.549976
1629807867054,-0.454633,0.699609,-0.548756
1629807867063,-0.454938,0.699304,-0.549732
1629807867073,-0.454389,0.700158,-0.544974
1629807867083,-0.452437,0.701256,-0.546682
1629807867092,-0.453474,0.702049,-0.547902
1629807867102,-0.450546,0.704245,-0.5474749999999999
1629807867111,-0.449387,0.705709,-0.547231
1629807867121,-0.449387,0.70821,-0.547719
1629807867131,-0.448106,0.709552,-0.546987
1629807867140,-0.447984,0.709491,-0.546072
1629807867150,-0.448228,0.7077829999999999,-0.542717
1629807867159,-0.447801,0.707112,-0.541802
1629807867169,-0.44773999999999997,0.70882,-0.542717
1629807867179,-0.447862,0.708576,-0.542534
1629807867188,-0.448228,0.711016,-0.543022
1629807867198,-0.449387,0.71126,-0.542961
1629807867207,-0.451949,0.708759,-0.541863
1629807867217,-0.452132,0.7086979999999999,-0.542107
1629807867227,-0.45200999999999997,0.71004,-0.5432049999999999
1629807867236,-0.451461,0.709064,-0.542717
1629807867246,-0.450912,0.709491,-0.542839
1629807867255,-0.451583,0.7096129999999999,-0.543876
1629807867265,-0.450119,0.709735,-0.544608
1629807867275,-0.450607,0.70943,-0.545401
1629807867284,-0.450241,0.706807,-0.5450349999999999
1629807867294,-0.45231499999999997,0.704855,-0.543266
1629807867303,-0.450851,0.705526,-0.542168
1629807867313,-0.44987499999999997,0.706624,-0.541192
1629807867323,-0.449997,0.706502,-0.542534
1629807867332,-0.450363,0.7071729999999999,-0.5450349999999999
1629807867342,-0.450973,0.706441,-0.544181
1629807867351,-0.450546,0.706685,-0.543998
1629807867361,-0.450546,0.706685,-0.545584
1629807867371,-0.452559,0.707051,-0.545218
1629807867380,-0.453779,0.7065629999999999,-0.546316
1629807867390,-0.453596,0.707112,-0.547048
1629807867399,-0.454572,0.706441,-0.547292
1629807867409,-0.454877,0.70394,-0.544913
1629807867419,-0.453169,0.701378,-0.543754
1629807867428,-0.45139999999999997,0.700768,-0.5422899999999999
1629807867438,-0.451827,0.702354,-0.5450349999999999
1629807867447,-0.449448,0.700463,-0.5450349999999999
1629807867457,-0.450241,0.698694,-0.544974
1629807867467,-0.451888,0.702781,-0.546377
1629807867476,-0.451949,0.705587,-0.549061
1629807867486,-0.45109499999999997,0.7044279999999999,-0.545828
1629807867495,-0.451644,0.705404,-0.540094
1629807867505,-0.45200999999999997,0.707661,-0.538386
1629807867515,-0.452559,0.7102229999999999,-0.543632
1629807867524,-0.45261999999999997,0.7114429999999999,-0.548268
1629807867534,-0.451644,0.7102229999999999,-0.5477799999999999
1629807867543,-0.452864,0.707844,-0.546926
1629807867553,-0.453108,0.704916,-0.5465599999999999
1629807867563,-0.454328,0.703147,-0.546194
1629807867572,-0.454511,0.701134,-0.545401
1629807867582,-0.454999,0.699792,-0.543571
1629807867591,-0.455121,0.698999,-0.542229
1629807867601,-0.454267,0.699792,-0.542351
1629807867611,-0.455548,0.702232,-0.544974
1629807867620,-0.454938,0.703025,-0.546011
1629807867630,-0.45444999999999997,0.703147,-0.545767
1629807867639,-0.455243,0.705099,-0.546316
1629807867649,-0.454938,0.7053429999999999,-0.547109
1629807867659,-0.455121,0.70577,-0.547536
1629807867668,-0.455548,0.706197,-0.546804
1629807867678,-0.455731,0.705709,-0.5465599999999999
1629807867687,-0.455914,0.705587,-0.545828
1629807867697,-0.457256,0.7056479999999999,-0.544852
1629807867707,-0.456036,0.705465,-0.543632
1629807867716,-0.454938,0.70394,-0.544669
1629807867726,-0.454572,0.701866,-0.546011
1629807867735,-0.454694,0.703452,-0.547109
1629807867745,-0.45475499999999996,0.701134,-0.548573
1629807867755,-0.455182,0.699853,-0.547963
1629807867764,-0.45444999999999997,0.698694,-0.541314
1629807867774,-0.454328,0.698999,-0.5377149999999999
1629807867783,-0.45597499999999996,0.700707,-0.5395449999999999
1629807867793,-0.457134,0.702171,-0.5450349999999999
1629807867803,-0.456768,0.704245,-0.547963
1629807867812,-0.456036,0.705404,-0.5480849999999999
1629807867822,-0.455426,0.706746,-0.548512
1629807867831,-0.455243,0.7068679999999999,-0.547048
1629807867841,-0.455731,0.70638,-0.546743
1629807867851,-0.455487,0.707539,-0.544486
1629807867860,-0.454816,0.703574,-0.541924
1629807867870,-0.454572,0.703269,-0.5416799999999999
1629807867879,-0.454877,0.702903,-0.541131
1629807867889,-0.45627999999999996,0.700768,-0.541253
1629807867899,-0.456097,0.701866,-0.541619
1629807867908,-0.455914,0.702293,-0.541192
1629807867918,-0.455548,0.704672,-0.540277
1629807867927,-0.454938,0.706136,-0.541192
1629807867937,-0.453352,0.707539,-0.5422899999999999
1629807867947,-0.453657,0.7086979999999999,-0.5413749999999999
1629807867956,-0.454389,0.70882,-0.541314
1629807867966,-0.453718,0.707966,-0.5410699999999999
1629807867975,-0.455548,0.707722,-0.541863
1629807867985,-0.456829,0.707966,-0.5432049999999999
1629807867995,-0.457378,0.706624,-0.543022
1629807868004,-0.456951,0.706929,-0.543998
1629807868014,-0.456402,0.707539,-0.5450349999999999
1629807868023,-0.457134,0.706014,-0.546072
1629807868033,-0.4575,0.704306,-0.5465599999999999
1629807868043,-0.458537,0.703025,-0.546072
1629807868052,-0.45688999999999996,0.701439,-0.545096
1629807868062,-0.456707,0.701683,-0.545706
1629807868071,-0.455853,0.701683,-0.545584
1629807868081,-0.455548,0.703086,-0.545523
1629807868091,-0.45200999999999997,0.704672,-0.544181
1629807868100,-0.451949,0.705892,-0.544303
1629807868110,-0.451339,0.707295,-0.543144
1629807868119,-0.450851,0.708942,-0.541192
1629807868129,-0.449692,0.70943,-0.540094
1629807868139,-0.450851,0.709857,-0.539362
1629807868148,-0.452437,0.709369,-0.542168
1629807868158,-0.45139999999999997,0.708942,-0.541192
1629807868167,-0.452071,0.708027,-0.540277
1629807868177,-0.451766,0.7071729999999999,-0.541863
1629807868187,-0.451278,0.706685,-0.542168
1629807868196,-0.451949,0.70638,-0.543388
1629807868206,-0.452803,0.705465,-0.543266
1629807868215,-0.453169,0.702781,-0.544303
1629807868225,-0.454084,0.701622,-0.5456449999999999
1629807868235,-0.456158,0.699304,-0.546621
1629807868244,-0.456829,0.698267,-0.548573
1629807868254,-0.4575,0.698328,-0.548634
1629807868263,-0.456768,0.698206,-0.547841
1629807868273,-0.45688999999999996,0.699182,-0.5477799999999999
1629807868283,-0.45872,0.69967,-0.547353
1629807868292,-0.4575,0.699853,-0.546438
1629807868302,-0.457073,0.701195,-0.545218
1629807868311,-0.455792,0.704245,-0.545279
1629807868321,-0.454999,0.704184,-0.545157
1629807868331,-0.455914,0.704672,-0.543937
1629807868340,-0.454328,0.704672,-0.544303
1629807868350,-0.45444999999999997,0.70455,-0.543449
1629807868359,-0.45566999999999996,0.704245,-0.543632
1629807868369,-0.458415,0.702232,-0.545767
1629807868379,-0.458171,0.700463,-0.546438
1629807868388,-0.460184,0.700951,-0.5471699999999999
1629807868398,-0.458781,0.69845,-0.547231
1629807868407,-0.460855,0.697596,-0.547841
1629807868417,-0.4636,0.694912,-0.552233
1629807868427,-0.46097699999999997,0.694546,-0.550342
1629807868436,-0.45627999999999996,0.692472,-0.55144
1629807868446,-0.457317,0.69418,-0.549854
1629807868455,-0.45811,0.698206,-0.551989
1629807868465,-0.457256,0.699365,-0.551867
1629807868475,-0.45566999999999996,0.699853,-0.544303
1629807868484,-0.455914,0.700158,-0.540216
1629807868494,-0.459574,0.701866,-0.540277
1629807868503,-0.458049,0.706624,-0.5441199999999999
1629807868513,-0.456524,0.709247,-0.547109
1629807868523,-0.457378,0.7093079999999999,-0.548573
1629807868532,-0.457866,0.708515,-0.548573
1629807868542,-0.45597499999999996,0.707966,-0.549122
1629807868551,-0.456646,0.705831,-0.547658
1629807868561,-0.455243,0.703025,-0.546621
1629807868571,-0.452193,0.700768,-0.5456449999999999
1629807868580,-0.451766,0.696803,-0.544181
1629807868590,-0.45200999999999997,0.69479,-0.543693
1629807868599,-0.449997,0.69357,-0.541436
1629807868609,-0.450546,0.692228,-0.542168
1629807868619,-0.451644,0.694241,-0.543876
1629807868628,-0.45078999999999997,0.695888,-0.544791
1629807868638,-0.451583,0.698633,-0.547841
1629807868647,-0.450546,0.700402,-0.550525
1629807868657,-0.450912,0.703147,-0.551989
1629807868667,-0.45139999999999997,0.703696,-0.550952
1629807868676,-0.45200999999999997,0.703696,-0.55022
1629807868686,-0.453047,0.704855,-0.549732
1629807868695,-0.452071,0.704672,-0.548878
1629807868705,-0.451888,0.70272,-0.550342
1629807868715,-0.451888,0.703147,-0.552355
1629807868724,-0.451034,0.703879,-0.553941
1629807868734,-0.45170499999999997,0.701622,-0.553697
1629807868743,-0.451827,0.700158,-0.550708
1629807868753,-0.451583,0.70028,-0.546804
1629807868763,-0.451522,0.700036,-0.543327
1629807868772,-0.452803,0.700158,-0.5435099999999999
1629807868782,-0.452254,0.702354,-0.5474749999999999
1629807868791,-0.453352,0.704916,-0.551562
1629807868801,-0.45414499999999997,0.704855,-0.552904
1629807868811,-0.454389,0.706014,-0.555405
1629807868820,-0.454023,0.7062579999999999,-0.555344
1629807868830,-0.453474,0.704855,-0.553209
1629807868839,-0.453291,0.7047329999999999,-0.551745
1629807868849,-0.453779,0.70333,-0.550525
1629807868859,-0.453596,0.701805,-0.55022
1629807868868,-0.454084,0.699853,-0.549549
1629807868878,-0.455548,0.698267,-0.54961
1629807868887,-0.455731,0.696986,-0.549671
1629807868897,-0.455792,0.696437,-0.549793
1629807868907,-0.455426,0.696925,-0.551318
1629807868916,-0.455182,0.697291,-0.550525
1629807868926,-0.45566999999999996,0.697413,-0.549366
1629807868935,-0.454206,0.696986,-0.5483899999999999
1629807868945,-0.455426,0.697169,-0.548268
1629807868955,-0.455792,0.696864,-0.547841
1629807868964,-0.456097,0.696559,-0.548146
1629807868974,-0.45688999999999996,0.695827,-0.548268
1629807868983,-0.456829,0.696254,-0.548756
1629807868993,-0.456768,0.696376,-0.54961
1629807869003,-0.458049,0.697047,-0.549122
1629807869012,-0.457439,0.696925,-0.549061
1629807869022,-0.457317,0.696803,-0.549244
1629807869031,-0.457927,0.696376,-0.550403
1629807869041,-0.458171,0.697596,-0.549488
1629807869051,-0.456768,0.697352,-0.547841
1629807869060,-0.457683,0.697291,-0.548817
1629807869070,-0.457805,0.698572,-0.5480849999999999
1629807869079,-0.458171,0.699609,-0.547902
1629807869089,-0.456036,0.701073,-0.548146
1629807869099,-0.456646,0.701256,-0.546133
1629807869108,-0.45536499999999996,0.703086,-0.547048
1629807869118,-0.455609,0.70394,-0.547109
1629807869127,-0.455304,0.703635,-0.547658
1629807869137,-0.454572,0.703452,-0.547414
1629807869147,-0.454328,0.703269,-0.546987
1629807869156,-0.454389,0.703452,-0.546072
1629807869166,-0.454694,0.704489,-0.545706
1629807869175,-0.454023,0.704367,-0.545096
1629807869185,-0.453901,0.7047329999999999,-0.5456449999999999
1629807869195,-0.454023,0.7059529999999999,-0.546926
1629807869204,-0.452986,0.705709,-0.546682
1629807869214,-0.452742,0.706075,-0.546133
1629807869223,-0.451827,0.705282,-0.544608
1629807869233,-0.451827,0.7053429999999999,-0.5447299999999999
1629807869243,-0.452376,0.705831,-0.545584
1629807869252,-0.453047,0.70455,-0.545767
1629807869262,-0.452437,0.7047329999999999,-0.5474749999999999
1629807869271,-0.45322999999999997,0.703391,-0.549122
1629807869281,-0.453474,0.703391,-0.548329
1629807869291,-0.454023,0.703391,-0.5483899999999999
1629807869300,-0.453962,0.702476,-0.55022
1629807869310,-0.452986,0.702598,-0.55266
1629807869319,-0.45048499999999997,0.699731,-0.551074
1629807869329,-0.451766,0.696681,-0.550525
1629807869339,-0.452193,0.696193,-0.552172
1629807869348,-0.45292499999999997,0.696498,-0.553209
1629807869358,-0.452742,0.698084,-0.552965
1629807869367,-0.451156,0.698694,-0.547597
1629807869377,-0.451278,0.698084,-0.540582
1629807869387,-0.453596,0.699853,-0.537959
1629807869396,-0.452132,0.704306,-0.541436
1629807869406,-0.452254,0.706807,-0.544181
1629807869415,-0.452864,0.708576,-0.547414
1629807869425,-0.452437,0.709674,-0.549549
1629807869435,-0.45353499999999997,0.710101,-0.551074
1629807869444,-0.45353499999999997,0.709125,-0.550708
1629807869454,-0.45414499999999997,0.706746,-0.549244
1629807869463,-0.454816,0.70394,-0.547292
1629807869473,-0.454572,0.700829,-0.546743
1629807869483,-0.45322999999999997,0.698511,-0.546133
1629807869492,-0.45261999999999997,0.696498,-0.5441199999999999
1629807869502,-0.452437,0.69662,-0.545889
1629807869511,-0.451827,0.697535,-0.546194
1629807869521,-0.452132,0.699914,-0.5471699999999999
1629807869531,-0.452559,0.701256,-0.548939
1629807869540,-0.452254,0.704062,-0.550464
1629807869550,-0.452559,0.704855,-0.549488
1629807869559,-0.452071,0.7065629999999999,-0.549488
1629807869569,-0.451949,0.7080879999999999,-0.549
1629807869579,-0.452193,0.7093079999999999,-0.5477799999999999
1629807869588,-0.450851,0.707539,-0.546194
1629807869598,-0.450668,0.7053429999999999,-0.5474749999999999
1629807869607,-0.45139999999999997,0.704184,-0.548817
1629807869617,-0.451583,0.7041229999999999,-0.550098
1629807869627,-0.452132,0.70089,-0.552111
1629807869636,-0.451766,0.699731,-0.549976
1629807869646,-0.45170499999999997,0.698938,-0.545462
1629807869655,-0.45200999999999997,0.698633,-0.542778
1629807869665,-0.452498,0.699487,-0.543876
1629807869675,-0.452193,0.701012,-0.547109
1629807869684,-0.452864,0.702476,-0.550159
1629807869694,-0.453169,0.704184,-0.553026
1629807869703,-0.453779,0.7041229999999999,-0.554185
1629807869713,-0.453962,0.704001,-0.553758
1629807869723,-0.45353499999999997,0.703147,-0.551745
1629807869732,-0.453962,0.701134,-0.549488
1629807869742,-0.45444999999999997,0.70028,-0.548268
1629807869751,-0.45566999999999996,0.699792,-0.547231
1629807869761,-0.45536499999999996,0.699548,-0.5483899999999999
1629807869771,-0.45536499999999996,0.699365,-0.548695
1629807869780,-0.455609,0.699487,-0.549183
1629807869790,-0.455914,0.699609,-0.549122
1629807869799,-0.45444999999999997,0.699182,-0.548756
1629807869809,-0.45444999999999997,0.699975,-0.548146
1629807869819,-0.455243,0.70028,-0.547597
1629807869828,-0.45505999999999996,0.700402,-0.5474749999999999
1629807869838,-0.454938,0.701012,-0.549122
1629807869847,-0.45627999999999996,0.699792,-0.550037
1629807869857,-0.456646,0.699731,-0.548817
1629807869867,-0.456646,0.698633,-0.549305
1629807869876,-0.456707,0.698694,-0.549427
1629807869886,-0.456524,0.69967,-0.548817
1629807869895,-0.456219,0.698816,-0.548512
1629807869905,-0.456524,0.69967,-0.549305
1629807869915,-0.456707,0.700585,-0.550098
1629807869924,-0.455487,0.700402,-0.550464
1629807869934,-0.45505999999999996,0.699426,-0.55022
1629807869943,-0.455243,0.698938,-0.549488
1629807869953,-0.454023,0.698206,-0.54961
1629807869963,-0.453962,0.698877,-0.547902
1629807869972,-0.453596,0.699792,-0.548451
1629807869982,-0.452742,0.701317,-0.547536
1629807869991,-0.452986,0.701805,-0.548451
1629807870001,-0.451644,0.701866,-0.548756
1629807870011,-0.452376,0.70272,-0.548573
1629807870020,-0.452193,0.7032079999999999,-0.549366
1629807870030,-0.451766,0.7038179999999999,-0.549305
1629807870039,-0.452132,0.703574,-0.549488
1629807870049,-0.450912,0.702415,-0.548573
1629807870059,-0.450912,0.702842,-0.548817
1629807870068,-0.450668,0.703269,-0.548756
1629807870078,-0.45139999999999997,0.703452,-0.547719
1629807870087,-0.45048499999999997,0.7038179999999999,-0.548146
1629807870097,-0.450668,0.703879,-0.549183
1629807870107,-0.45017999999999997,0.7038179999999999,-0.549183
1629807870116,-0.450119,0.7035129999999999,-0.548024
1629807870126,-0.450912,0.704062,-0.547292
1629807870135,-0.450119,0.704184,-0.547597
1629807870145,-0.451583,0.7035129999999999,-0.548695
1629807870155,-0.452193,0.7032079999999999,-0.551013
1629807870164,-0.453108,0.701073,-0.551928
1629807870174,-0.453962,0.701378,-0.551257
1629807870183,-0.45261999999999997,0.701134,-0.550708
1629807870193,-0.453779,0.702598,-0.552538
1629807870203,-0.452864,0.702354,-0.553148
1629807870212,-0.45078999999999997,0.699304,-0.553575
1629807870222,-0.451034,0.695583,-0.552355
1629807870231,-0.451461,0.694851,-0.552843
1629807870241,-0.452132,0.694851,-0.554002
1629807870251,-0.450851,0.696803,-0.554429
1629807870260,-0.449448,0.697779,-0.549122
1629807870270,-0.44926499999999997,0.699609,-0.542412
1629807870279,-0.450546,0.701988,-0.5419849999999999
1629807870289,-0.451522,0.7041229999999999,-0.543998
1629807870299,-0.450607,0.7071729999999999,-0.546987
1629807870308,-0.45139999999999997,0.70821,-0.548695
1629807870318,-0.450912,0.707112,-0.550037
1629807870327,-0.450424,0.707905,-0.551501
1629807870337,-0.450973,0.7059529999999999,-0.552477
1629807870347,-0.451949,0.7041229999999999,-0.550952
1629807870356,-0.452498,0.700768,-0.549122
1629807870366,-0.452864,0.698511,-0.547719
1629807870375,-0.454206,0.695644,-0.547597
1629807870385,-0.452803,0.695217,-0.549244
1629807870395,-0.45292499999999997,0.695217,-0.55022
1629807870404,-0.452803,0.695888,-0.551013
1629807870414,-0.45200999999999997,0.697657,-0.551013
1629807870423,-0.452071,0.700829,-0.550891
1629807870433,-0.451278,0.70211,-0.551257
1629807870443,-0.451583,0.7044279999999999,-0.549976
1629807870452,-0.451949,0.706197,-0.548756
1629807870462,-0.451339,0.708332,-0.548207
1629807870471,-0.450241,0.707844,-0.547902
1629807870481,-0.449814,0.7053429999999999,-0.546926
1629807870491,-0.450912,0.704062,-0.549427
1629807870500,-0.451644,0.702598,-0.55083
1629807870510,-0.451827,0.701561,-0.55388
1629807870519,-0.451278,0.70028,-0.552782
1629807870529,-0.451766,0.698206,-0.5480849999999999
1629807870539,-0.452986,0.696742,-0.544608
1629807870548,-0.453718,0.697413,-0.545584
1629807870558,-0.45292499999999997,0.699243,-0.548329
1629807870567,-0.453657,0.701195,-0.551074
1629807870577,-0.454267,0.702781,-0.554124
1629807870587,-0.454572,0.703452,-0.555283
1629807870596,-0.454816,0.703696,-0.556808
1629807870606,-0.454206,0.702964,-0.555588
1629807870615,-0.454328,0.702049,-0.552599
1629807870625,-0.45383999999999997,0.700158,-0.550708
1629807870635,-0.453718,0.698816,-0.5483899999999999
1629807870644,-0.45414499999999997,0.699304,-0.548573
1629807870654,-0.453169,0.698938,-0.549976
1629807870663,-0.45261999999999997,0.699792,-0.55022
1629807870673,-0.453962,0.699365,-0.550525
1629807870683,-0.454267,0.699914,-0.550769
1629807870692,-0.45414499999999997,0.699548,-0.550647
1629807870702,-0.45444999999999997,0.700402,-0.550281
1629807870711,-0.45414499999999997,0.70028,-0.55022
1629807870721,-0.453901,0.69967,-0.549854
1629807870731,-0.454206,0.699304,-0.549244
1629807870740,-0.454877,0.698084,-0.550769
1629807870750,-0.455426,0.69662,-0.55144
1629807870759,-0.456036,0.696071,-0.551684
1629807870769,-0.456646,0.69601,-0.551379
1629807870779,-0.456158,0.695156,-0.55205
1629807870788,-0.456707,0.696193,-0.55205
1629807870798,-0.45688999999999996,0.696437,-0.552355
1629807870807,-0.456158,0.697169,-0.551928
1629807870817,-0.455121,0.696498,-0.551074
1629807870827,-0.455243,0.696925,-0.549915
1629807870836,-0.455182,0.698084,-0.549366
1629807870846,-0.454938,0.699243,-0.550647
1629807870855,-0.454633,0.698816,-0.549976
1629807870865,-0.45353499999999997,0.70089,-0.549793
1629807870875,-0.453352,0.700951,-0.550281
1629807870884,-0.454877,0.700646,-0.54961
1629807870894,-0.453962,0.700829,-0.549915
1629807870903,-0.454328,0.699609,-0.548939
1629807870913,-0.454206,0.700646,-0.549244
1629807870923,-0.453169,0.700463,-0.548634
1629807870932,-0.45322999999999997,0.700768,-0.548024
1629807870942,-0.453291,0.700585,-0.549122
1629807870951,-0.453474,0.702232,-0.549732
1629807870961,-0.453596,0.702232,-0.549732
1629807870971,-0.452986,0.702842,-0.55022
1629807870980,-0.453718,0.702842,-0.549061
1629807870990,-0.454816,0.702171,-0.548024
1629807870999,-0.453901,0.7032079999999999,-0.549
1629807871009,-0.453962,0.704245,-0.549488
1629807871019,-0.45353499999999997,0.705282,-0.5474749999999999
1629807871028,-0.452986,0.7062579999999999,-0.5474749999999999
1629807871038,-0.451888,0.707905,-0.546194
1629807871047,-0.451644,0.707966,-0.546377
1629807871057,-0.452681,0.7083929999999999,-0.5477799999999999
1629807871067,-0.45261999999999997,0.70821,-0.548573
1629807871076,-0.45444999999999997,0.707844,-0.552294
1629807871086,-0.455243,0.706502,-0.554124
1629807871095,-0.454694,0.704062,-0.553331
1629807871105,-0.454267,0.700463,-0.55388
1629807871115,-0.454389,0.696498,-0.552233
1629807871124,-0.453291,0.694363,-0.551562
1629807871134,-0.45292499999999997,0.692045,-0.553331
1629807871143,-0.452498,0.688568,-0.552904
1629807871153,-0.452437,0.689727,-0.5551
1629807871163,-0.454328,0.692716,-0.558943
1629807871172,-0.454023,0.693387,-0.558638
1629807871182,-0.452559,0.692167,-0.554002
1629807871191,-0.453352,0.69296,-0.549427
1629807871201,-0.454572,0.695095,-0.5471699999999999
1629807871211,-0.454206,0.698572,-0.550403
1629807871220,-0.453169,0.700707,-0.553575
1629807871230,-0.45261999999999997,0.699426,-0.554734
1629807871239,-0.452803,0.697291,-0.555039
1629807871249,-0.452437,0.697108,-0.553636
1629807871259,-0.45261999999999997,0.694668,-0.551867
1629807871268,-0.45475499999999996,0.693448,-0.548817
1629807871278,-0.454938,0.6919839999999999,-0.547414
1629807871287,-0.456646,0.6907639999999999,-0.546804
1629807871297,-0.457988,0.690886,-0.548573
1629807871307,-0.458232,0.69052,-0.550342
1629807871316,-0.45872,0.691313,-0.55205
1629807871326,-0.458781,0.692838,-0.552721
1629807871335,-0.45975699999999997,0.694668,-0.554002
1629807871345,-0.460184,0.697047,-0.553819
1629807871355,-0.460123,0.696498,-0.552904
1629807871364,-0.461465,0.698511,-0.552721
1629807871374,-0.461343,0.699609,-0.551074
1629807871383,-0.46238,0.700402,-0.55022
1629807871393,-0.460306,0.699121,-0.551562
1629807871403,-0.45933,0.698328,-0.550891
1629807871412,-0.459879,0.698938,-0.55205
1629807871422,-0.46158699999999997,0.698145,-0.554002
1629807871431,-0.46055,0.696925,-0.556442
1629807871441,-0.459391,0.694546,-0.551623
1629807871451,-0.460001,0.693082,-0.547536
1629807871460,-0.45994,0.692106,-0.545706
1629807871470,-0.460794,0.693082,-0.547658
1629807871479,-0.460794,0.695278,-0.551318
1629807871489,-0.460306,0.69662,-0.553819
1629807871499,-0.46006199999999997,0.697596,-0.555832
1629807871508,-0.459635,0.699182,-0.557174
1629807871518,-0.459818,0.699487,-0.555771
1629807871527,-0.459513,0.699304,-0.554185
1629807871537,-0.45933,0.696986,-0.552477
1629807871547,-0.45933,0.695583,-0.552233
1629807871556,-0.46006199999999997,0.6944239999999999,-0.551501
1629807871566,-0.460184,0.693692,-0.552843
1629807871575,-0.459574,0.692777,-0.551013
1629807871585,-0.45933,0.692533,-0.552416
1629807871595,-0.45914699999999997,0.693448,-0.552111
1629807871604,-0.459208,0.6935089999999999,-0.551989
1629807871614,-0.459696,0.6938139999999999,-0.552172
1629807871623,-0.45914699999999997,0.693875,-0.551257
1629807871633,-0.459269,0.694058,-0.551501
1629807871643,-0.459391,0.6944239999999999,-0.551196
1629807871652,-0.459086,0.695217,-0.551196
1629807871662,-0.45811,0.693997,-0.55144
1629807871671,-0.459025,0.6944239999999999,-0.549854
1629807871681,-0.45994,0.694363,-0.551867
1629807871691,-0.458354,0.69479,-0.552599
1629807871700,-0.459269,0.695522,-0.553148
1629807871710,-0.457805,0.694607,-0.552538
1629807871719,-0.45658499999999996,0.6938139999999999,-0.553087
1629807871729,-0.455792,0.695644,-0.55266
1629807871739,-0.456036,0.696132,-0.55144
1629807871748,-0.455853,0.696742,-0.551013
1629807871758,-0.455182,0.696681,-0.551684
1629807871767,-0.45414499999999997,0.697535,-0.551562
1629807871777,-0.452742,0.69845,-0.552416
1629807871787,-0.452498,0.699121,-0.551379
1629807871796,-0.45200999999999997,0.699853,-0.55022
1629807871806,-0.451278,0.70028,-0.550159
1629807871815,-0.450668,0.700951,-0.549854
1629807871825,-0.451034,0.702354,-0.550647
1629807871835,-0.450851,0.702293,-0.55083
1629807871844,-0.451888,0.702659,-0.55022
1629807871854,-0.451156,0.702659,-0.551562
1629807871863,-0.451827,0.702842,-0.551196
1629807871873,-0.450851,0.702964,-0.550769
1629807871883,-0.451461,0.701988,-0.550403
1629807871892,-0.451522,0.702171,-0.548939
1629807871902,-0.451461,0.700951,-0.549488
1629807871911,-0.45200999999999997,0.700402,-0.548024
1629807871921,-0.451949,0.700646,-0.547536
1629807871931,-0.453108,0.70272,-0.548634
1629807871940,-0.452132,0.703574,-0.548756
1629807871950,-0.45261999999999997,0.703391,-0.549244
1629807871959,-0.453169,0.703574,-0.549976
1629807871969,-0.45231499999999997,0.703574,-0.549122
1629807871979,-0.45292499999999997,0.70394,-0.550159
1629807871988,-0.45414499999999997,0.703025,-0.552843
1629807871998,-0.454511,0.701988,-0.552843
1629807872007,-0.455487,0.701988,-0.551684
1629807872017,-0.454816,0.699548,-0.550952
1629807872027,-0.454877,0.695888,-0.549366
1629807872036,-0.455182,0.694668,-0.549305
1629807872046,-0.453596,0.6954,-0.552233
1629807872055,-0.45139999999999997,0.693326,-0.553209
1629807872065,-0.451217,0.69296,-0.553392
1629807872075,-0.452193,0.696132,-0.551501
1629807872084,-0.453596,0.696803,-0.550281
1629807872094,-0.453657,0.700951,-0.552843
1629807872103,-0.45139999999999997,0.7035129999999999,-0.549915
1629807872113,-0.451278,0.705831,-0.549488
1629807872123,-0.450607,0.707844,-0.549854
1629807872132,-0.449631,0.709186,-0.552416
1629807872142,-0.448411,0.707112,-0.552477
1629807872151,-0.449143,0.7035129999999999,-0.551135
1629807872161,-0.449143,0.700768,-0.55022
1629807872171,-0.44956999999999997,0.698572,-0.549244
1629807872180,-0.450302,0.697718,-0.547658
1629807872190,-0.450851,0.697596,-0.546804
1629807872199,-0.44987499999999997,0.69784,-0.546133
1629807872209,-0.450851,0.699487,-0.546133
1629807872219,-0.451217,0.702293,-0.548878
1629807872228,-0.450851,0.703086,-0.550342
1629807872238,-0.450363,0.70333,-0.551257
1629807872247,-0.451217,0.704306,-0.553087
1629807872257,-0.45170499999999997,0.704184,-0.553575
1629807872267,-0.452132,0.7047329999999999,-0.55449
1629807872276,-0.451644,0.703879,-0.554246
1629807872286,-0.451583,0.704245,-0.551745
1629807872295,-0.450912,0.704794,-0.55022
1629807872305,-0.448838,0.700829,-0.550769
1629807872315,-0.44804499999999997,0.700402,-0.55022
1629807872324,-0.450668,0.70089,-0.551623
1629807872334,-0.450729,0.700585,-0.554368
1629807872343,-0.44865499999999997,0.700951,-0.553758
1629807872353,-0.44804499999999997,0.700036,-0.5477799999999999
1629807872363,-0.448533,0.699731,-0.543754
1629807872372,-0.449509,0.701256,-0.543937
1629807872382,-0.44895999999999997,0.703696,-0.547658
1629807872391,-0.448716,0.7053429999999999,-0.549244
1629807872401,-0.450546,0.70638,-0.550952
1629807872411,-0.450363,0.707356,-0.552416
1629807872420,-0.449631,0.707051,-0.55205
1629807872430,-0.450546,0.707112,-0.551745
1629807872439,-0.45078999999999997,0.7056479999999999,-0.550891
1629807872449,-0.45109499999999997,0.7038179999999999,-0.549427
1629807872459,-0.452132,0.702964,-0.548146
1629807872468,-0.452437,0.701439,-0.548573
1629807872478,-0.453047,0.700097,-0.548451
1629807872487,-0.453962,0.700768,-0.548878
1629807872497,-0.453718,0.70028,-0.549305
1629807872507,-0.453108,0.700829,-0.549793
1629807872516,-0.452681,0.702598,-0.549427
1629807872526,-0.452864,0.70333,-0.549122
1629807872535,-0.451888,0.702598,-0.548268
1629807872545,-0.451888,0.7032079999999999,-0.547109
1629807872555,-0.45200999999999997,0.701622,-0.546987
1629807872564,-0.452376,0.701561,-0.548268
1629807872574,-0.452437,0.702415,-0.548329
1629807872583,-0.453047,0.701927,-0.549732
1629807872593,-0.452498,0.701195,-0.549488
1629807872603,-0.451949,0.699975,-0.548268
1629807872612,-0.453047,0.699609,-0.549183
1629807872622,-0.453962,0.699914,-0.55022
1629807872631,-0.452376,0.699731,-0.550037
1629807872641,-0.45322999999999997,0.699304,-0.551074
1629807872651,-0.452071,0.699548,-0.551074
1629807872660,-0.451156,0.700158,-0.550098
1629807872670,-0.45139999999999997,0.700036,-0.54961
1629807872679,-0.451644,0.700097,-0.549732
1629807872689,-0.450912,0.700768,-0.549244
1629807872699,-0.451217,0.701683,-0.549061
1629807872708,-0.450668,0.703452,-0.549732
1629807872718,-0.451034,0.704611,-0.549305
1629807872727,-0.450668,0.706014,-0.547902
1629807872737,-0.45017999999999997,0.706502,-0.547719
1629807872747,-0.450119,0.706807,-0.547109
1629807872756,-0.449387,0.707905,-0.5477799999999999
1629807872766,-0.449448,0.706807,-0.5471699999999999
1629807872775,-0.449509,0.7076,-0.548024
1629807872785,-0.449753,0.705587,-0.546011
1629807872795,-0.450729,0.70577,-0.5459499999999999
1629807872804,-0.449997,0.705282,-0.5459499999999999
1629807872814,-0.44987499999999997,0.7047329999999999,-0.546987
1629807872823,-0.450302,0.704489,-0.546499
1629807872833,-0.450668,0.703696,-0.5468649999999999
1629807872843,-0.450607,0.703879,-0.546682
1629807872852,-0.450363,0.7050379999999999,-0.546682
1629807872862,-0.45017999999999997,0.706014,-0.5471699999999999
1629807872871,-0.45078999999999997,0.706136,-0.5480849999999999
1629807872881,-0.450851,0.706746,-0.549427
1629807872891,-0.451278,0.7050379999999999,-0.5483899999999999
1629807872900,-0.450729,0.704062,-0.549
1629807872910,-0.45170499999999997,0.7035129999999999,-0.547231
1629807872919,-0.451888,0.701134,-0.545767
1629807872929,-0.451522,0.699182,-0.545828
1629807872939,-0.451949,0.699365,-0.546377
1629807872948,-0.45170499999999997,0.698145,-0.549366
1629807872958,-0.450058,0.695827,-0.549793
1629807872967,-0.451583,0.696864,-0.54961
1629807872977,-0.453108,0.699304,-0.548756
1629807872987,-0.455182,0.701683,-0.549732
1629807872996,-0.455304,0.705709,-0.549305
1629807873006,-0.453718,0.707844,-0.548024
1629807873015,-0.453108,0.7090029999999999,-0.546499
1629807873025,-0.452986,0.7111379999999999,-0.549
1629807873035,-0.450912,0.7102229999999999,-0.550891
1629807873044,-0.452193,0.706624,-0.549061
1629807873054,-0.451949,0.7032079999999999,-0.547231
1629807873063,-0.45170499999999997,0.701805,-0.5462549999999999
1629807873073,-0.451034,0.699914,-0.545889
1629807873083,-0.450668,0.698816,-0.544608
1629807873092,-0.450912,0.699182,-0.543144
1629807873102,-0.45017999999999997,0.69967,-0.5432049999999999
1629807873111,-0.451034,0.701561,-0.545157
1629807873121,-0.451156,0.703147,-0.5474749999999999
1629807873131,-0.450851,0.704916,-0.548268
1629807873140,-0.451766,0.705404,-0.548512
1629807873150,-0.451217,0.706624,-0.549183
1629807873159,-0.450668,0.707356,-0.549305
1629807873169,-0.450424,0.707905,-0.549915
1629807873179,-0.450302,0.706807,-0.549427
1629807873188,-0.450668,0.7071729999999999,-0.5480849999999999
1629807873198,-0.451278,0.707539,-0.548024
1629807873207,-0.449448,0.706807,-0.5480849999999999
1629807873217,-0.448228,0.702415,-0.549671
1629807873227,-0.449021,0.70089,-0.55083
1629807873236,-0.450424,0.699853,-0.551318
1629807873246,-0.45017999999999997,0.699243,-0.552172
1629807873255,-0.44834999999999997,0.699182,-0.546621
1629807873265,-0.448411,0.698938,-0.5407649999999999
1629807873275,-0.450302,0.700463,-0.540826
1629807873284,-0.450607,0.70333,-0.544242
1629807873294,-0.451217,0.7071729999999999,-0.55022
1629807873303,-0.452193,0.7077829999999999,-0.553758
1629807873313,-0.451461,0.7080879999999999,-0.55388
1629807873323,-0.452559,0.70699,-0.552538
1629807873332,-0.452742,0.706746,-0.551074
1629807873342,-0.453291,0.7059529999999999,-0.549671
1629807873351,-0.45292499999999997,0.704245,-0.547597
1629807873361,-0.45353499999999997,0.702232,-0.546621
1629807873371,-0.453596,0.701012,-0.546682
1629807873380,-0.454328,0.700646,-0.547719
1629807873390,-0.45475499999999996,0.700158,-0.548024
1629807873399,-0.454816,0.700829,-0.548512
1629807873409,-0.454328,0.701439,-0.548817
1629807873419,-0.453962,0.7015,-0.5477799999999999
1629807873428,-0.453779,0.702049,-0.548268
1629807873438,-0.453962,0.702354,-0.5468649999999999
1629807873447,-0.454206,0.70333,-0.5462549999999999
1629807873457,-0.454206,0.702049,-0.545767
1629807873467,-0.454023,0.70211,-0.546499
1629807873476,-0.454206,0.702476,-0.547902
1629807873486,-0.454572,0.702049,-0.548146
1629807873495,-0.454816,0.702415,-0.548756
1629807873505,-0.454206,0.70211,-0.549366
1629807873515,-0.454389,0.702171,-0.549244
1629807873524,-0.453474,0.702415,-0.549366
1629807873534,-0.45292499999999997,0.701744,-0.549854
1629807873543,-0.451766,0.700951,-0.549366
1629807873553,-0.45139999999999997,0.700341,-0.5480849999999999
1629807873563,-0.45109499999999997,0.701622,-0.548024
1629807873572,-0.450912,0.702476,-0.548817
1629807873582,-0.450119,0.702049,-0.549427
1629807873591,-0.448716,0.70394,-0.549
1629807873601,-0.447618,0.7041229999999999,-0.549
1629807873611,-0.447923,0.705831,-0.547719
1629807873620,-0.447618,0.7059529999999999,-0.547597
1629807873630,-0.446154,0.707112,-0.547963
1629807873639,-0.446703,0.706746,-0.548512
1629807873649,-0.446947,0.707112,-0.5480849999999999
1629807873659,-0.447496,0.70699,-0.549
1629807873668,-0.446947,0.707295,-0.548329
1629807873678,-0.447008,0.7076,-0.548939
1629807873687,-0.446703,0.7077829999999999,-0.550159
1629807873697,-0.44773999999999997,0.706502,-0.549183
1629807873707,-0.44773999999999997,0.70455,-0.548207
1629807873716,-0.448472,0.704184,-0.547414
1629807873726,-0.448472,0.704611,-0.547902
1629807873735,-0.44895999999999997,0.704306,-0.548451
1629807873745,-0.44926499999999997,0.704611,-0.549427
1629807873755,-0.448838,0.704062,-0.548878
1629807873764,-0.44895999999999997,0.704489,-0.548634
1629807873774,-0.449814,0.7050379999999999,-0.548207
1629807873783,-0.450302,0.7062579999999999,-0.5483899999999999
1629807873793,-0.450729,0.706746,-0.548634
1629807873803,-0.450424,0.705892,-0.548756
1629807873812,-0.451888,0.7053429999999999,-0.550525
1629807873822,-0.452742,0.70394,-0.549488
1629807873831,-0.45292499999999997,0.701378,-0.548451
1629807873841,-0.452193,0.699426,-0.5471699999999999
1629807873851,-0.452681,0.700463,-0.551562
1629807873860,-0.451766,0.697779,-0.549549
1629807873870,-0.451522,0.69357,-0.548451
1629807873879,-0.45200999999999997,0.696376,-0.550464
1629807873889,-0.452803,0.699548,-0.552904
1629807873899,-0.453047,0.699304,-0.552904
1629807873908,-0.45322999999999997,0.699426,-0.548207
1629807873918,-0.45383999999999997,0.701561,-0.543998
1629807873927,-0.455121,0.704245,-0.544486
1629807873937,-0.454328,0.707356,-0.5474749999999999
1629807873947,-0.453108,0.708759,-0.550647
1629807873956,-0.451949,0.7076,-0.549976
1629807873966,-0.452681,0.70638,-0.549427
1629807873975,-0.452498,0.705831,-0.548634
1629807873985,-0.452559,0.704855,-0.546438
1629807873995,-0.452742,0.703391,-0.545828
1629807874004,-0.452986,0.701622,-0.544364
1629807874014,-0.45322999999999997,0.699182,-0.545462
1629807874023,-0.453413,0.700036,-0.547719
1629807874033,-0.453352,0.700158,-0.549488
1629807874043,-0.45231499999999997,0.699792,-0.550891
1629807874052,-0.452498,0.700951,-0.550769
1629807874062,-0.450668,0.701622,-0.551745
1629807874071,-0.45078999999999997,0.701561,-0.551196
1629807874081,-0.45078999999999997,0.702415,-0.549854
1629807874091,-0.450241,0.70272,-0.55083
1629807874100,-0.449936,0.702537,-0.551074
1629807874110,-0.450424,0.703696,-0.551928
1629807874119,-0.45017999999999997,0.70394,-0.550464
1629807874129,-0.450058,0.704306,-0.549671
1629807874139,-0.449143,0.702293,-0.550159
1629807874148,-0.44926499999999997,0.701256,-0.552355
1629807874158,-0.449326,0.700768,-0.554673
1629807874167,-0.449631,0.698572,-0.554673
1629807874177,-0.449082,0.695827,-0.551928
1629807874187,-0.450424,0.695034,-0.5456449999999999
1629807874196,-0.451766,0.694607,-0.5425949999999999
1629807874206,-0.452437,0.697474,-0.546804
1629807874215,-0.45139999999999997,0.69845,-0.552416
1629807874225,-0.45261999999999997,0.700768,-0.555283
1629807874235,-0.453596,0.70211,-0.556198
1629807874244,-0.453413,0.702903,-0.557662
1629807874254,-0.454023,0.702964,-0.555161
1629807874263,-0.45475499999999996,0.7015,-0.553941
1629807874273,-0.455487,0.700219,-0.552721
1629807874283,-0.454938,0.698145,-0.550586
1629807874292,-0.455304,0.697169,-0.551074
1629807874302,-0.454816,0.695888,-0.550098
1629807874311,-0.455487,0.6954,-0.548634
1629807874321,-0.45444999999999997,0.695156,-0.549305
1629807874331,-0.454511,0.695827,-0.548878
1629807874340,-0.455792,0.697352,-0.548939
1629807874350,-0.454694,0.698694,-0.549366
1629807874359,-0.454511,0.699365,-0.549549
1629807874369,-0.456158,0.698816,-0.550281
1629807874379,-0.457439,0.699365,-0.551257
1629807874388,-0.457378,0.698877,-0.550342
1629807874398,-0.457866,0.69784,-0.549488
1629807874407,-0.457439,0.698572,-0.549488
1629807874417,-0.457988,0.698267,-0.5480849999999999
1629807874427,-0.457744,0.699487,-0.548573
1629807874436,-0.457256,0.699853,-0.549488
1629807874446,-0.457073,0.700829,-0.549976
1629807874455,-0.456829,0.700829,-0.548939
1629807874465,-0.456219,0.702354,-0.549549
1629807874475,-0.456341,0.7015,-0.547719
1629807874484,-0.456158,0.702232,-0.546804
1629807874494,-0.455487,0.702964,-0.546804
1629807874503,-0.454572,0.703452,-0.546438
1629807874513,-0.45475499999999996,0.704306,-0.545706
1629807874523,-0.452498,0.70516,-0.5453399999999999
1629807874532,-0.45322999999999997,0.704611,-0.544791
1629807874542,-0.453596,0.7050379999999999,-0.545523
1629807874551,-0.45414499999999997,0.705526,-0.545096
1629807874561,-0.453718,0.705709,-0.546011
1629807874571,-0.45322999999999997,0.7053429999999999,-0.545279
1629807874580,-0.45322999999999997,0.705526,-0.5453399999999999
1629807874590,-0.453413,0.7053429999999999,-0.545889
1629807874599,-0.452376,0.7056479999999999,-0.546438
1629807874609,-0.453108,0.70638,-0.546072
1629807874619,-0.452437,0.706746,-0.546499
1629807874628,-0.451888,0.7050379999999999,-0.5450349999999999
1629807874638,-0.45261999999999997,0.704001,-0.545828
1629807874647,-0.452681,0.703391,-0.545523
1629807874657,-0.452132,0.704001,-0.546072
1629807874667,-0.452681,0.70272,-0.546926
1629807874676,-0.452193,0.702659,-0.547963
1629807874686,-0.453169,0.702354,-0.548024
1629807874695,-0.453047,0.701866,-0.5468649999999999
1629807874705,-0.454816,0.700951,-0.546316
1629807874715,-0.45414499999999997,0.700829,-0.5456449999999999
1629807874724,-0.454816,0.70089,-0.545828
1629807874734,-0.45383999999999997,0.701439,-0.5462549999999999
1629807874743,-0.454328,0.701134,-0.546438
1629807874753,-0.454572,0.701012,-0.545767
1629807874763,-0.454206,0.701683,-0.545096
1629807874772,-0.455182,0.701195,-0.544852
1629807874782,-0.455426,0.702354,-0.545828
1629807874791,-0.456646,0.701622,-0.546621
1629807874801,-0.457073,0.702415,-0.548634
1629807874811,-0.457134,0.70211,-0.549366
1629807874820,-0.458598,0.700097,-0.550342
1629807874830,-0.457256,0.70028,-0.548451
1629807874839,-0.45658499999999996,0.700829,-0.5483899999999999
1629807874849,-0.455609,0.700585,-0.550525
1629807874859,-0.455121,0.697535,-0.549061
1629807874868,-0.454023,0.695339,-0.547902
1629807874878,-0.454572,0.697352,-0.549671
1629807874887,-0.45536499999999996,0.70028,-0.551928
1629807874897,-0.452742,0.701988,-0.549366
1629807874907,-0.451522,0.701012,-0.542168
1629807874916,-0.453596,0.702598,-0.537288
1629807874926,-0.454633,0.705831,-0.5392399999999999
1629807874935,-0.454206,0.709674,-0.544059
1629807874945,-0.454511,0.711199,-0.547536
1629807874955,-0.45383999999999997,0.71065,-0.549427
1629807874964,-0.454084,0.710589,-0.549244
1629807874974,-0.45505999999999996,0.709064,-0.548146
1629807874983,-0.454694,0.705892,-0.546682
1629807874993,-0.454572,0.703147,-0.544547
1629807875003,-0.455548,0.700768,-0.543754
1629807875012,-0.456097,0.698755,-0.545096
1629807875022,-0.455243,0.697352,-0.546743
1629807875031,-0.456463,0.697962,-0.548878
1629807875041,-0.455548,0.698084,-0.549854
1629807875051,-0.455121,0.697901,-0.549793
1629807875060,-0.454389,0.699304,-0.548756
1629807875070,-0.454694,0.700036,-0.548329
1629807875079,-0.454206,0.701195,-0.547902
1629807875089,-0.454877,0.701622,-0.5474749999999999
1629807875099,-0.453474,0.703086,-0.547597
1629807875108,-0.45353499999999997,0.70394,-0.546377
1629807875118,-0.45383999999999997,0.7056479999999999,-0.546194
1629807875127,-0.453169,0.70516,-0.545157
1629807875137,-0.452193,0.703452,-0.5459499999999999
1629807875147,-0.452986,0.703086,-0.549549
1629807875156,-0.453657,0.700829,-0.549793
1629807875166,-0.454084,0.698145,-0.550403
1629807875175,-0.453657,0.69723,-0.548817
1629807875185,-0.453108,0.696376,-0.543022
1629807875195,-0.453596,0.69662,-0.541802
1629807875204,-0.452864,0.699487,-0.544974
1629807875214,-0.452071,0.702049,-0.547048
1629807875223,-0.452376,0.703025,-0.548512
1629807875233,-0.454206,0.705465,-0.55144
1629807875243,-0.453474,0.707295,-0.551074
1629807875252,-0.45292499999999997,0.706807,-0.550586
1629807875262,-0.453901,0.706197,-0.549671
1629807875271,-0.453901,0.705892,-0.548878
1629807875281,-0.453413,0.704611,-0.5462549999999999
1629807875291,-0.453169,0.703635,-0.545828
1629807875300,-0.452864,0.702293,-0.545584
1629807875310,-0.453657,0.702232,-0.546133
1629807875319,-0.454572,0.701561,-0.545767
1629807875329,-0.45536499999999996,0.701988,-0.547231
1629807875339,-0.454694,0.70211,-0.546316
1629807875348,-0.45444999999999997,0.703086,-0.548207
1629807875358,-0.455304,0.702049,-0.549
1629807875367,-0.455731,0.702049,-0.548024
1629807875377,-0.456036,0.702232,-0.548451
1629807875387,-0.455304,0.701012,-0.548146
1629807875396,-0.456219,0.700036,-0.548512
1629807875406,-0.45658499999999996,0.699426,-0.548512
1629807875415,-0.455731,0.698999,-0.549488
1629807875425,-0.455548,0.69845,-0.549915
1629807875435,-0.455609,0.697901,-0.550464
1629807875444,-0.454938,0.697718,-0.549671
1629807875454,-0.455426,0.698206,-0.550647
1629807875463,-0.454206,0.69784,-0.551318
1629807875473,-0.453291,0.698206,-0.551013
1629807875483,-0.453474,0.69784,-0.549976
1629807875492,-0.452071,0.698755,-0.54961
1629807875502,-0.45261999999999997,0.699548,-0.549366
1629807875511,-0.452803,0.700707,-0.550281
1629807875521,-0.452254,0.700158,-0.54961
1629807875531,-0.450546,0.701134,-0.547963
1629807875540,-0.450607,0.70089,-0.547902
1629807875550,-0.450119,0.7035129999999999,-0.548146
1629807875559,-0.449387,0.704306,-0.547597
1629807875569,-0.449143,0.7050379999999999,-0.546804
1629807875579,-0.449204,0.70638,-0.547536
1629807875588,-0.449204,0.706014,-0.547353
1629807875598,-0.44956999999999997,0.706319,-0.5465599999999999
1629807875607,-0.450058,0.705892,-0.547109
1629807875617,-0.449936,0.705831,-0.547109
1629807875627,-0.450546,0.705526,-0.546987
1629807875636,-0.451156,0.703757,-0.5468649999999999
1629807875646,-0.451644,0.704611,-0.547902
1629807875655,-0.45139999999999997,0.704916,-0.548146
1629807875665,-0.452254,0.70455,-0.548817
1629807875675,-0.453047,0.704489,-0.5477799999999999
1629807875684,-0.45353499999999997,0.7041229999999999,-0.5483899999999999
1629807875694,-0.453169,0.7038179999999999,-0.548695
1629807875703,-0.454023,0.702537,-0.549244
1629807875713,-0.453596,0.701866,-0.548512
1629807875723,-0.453779,0.702049,-0.548512
1629807875732,-0.45292499999999997,0.702476,-0.548817
1629807875742,-0.453657,0.701805,-0.548939
1629807875751,-0.45353499999999997,0.701622,-0.549122
1629807875761,-0.453413,0.701073,-0.54961
1629807875771,-0.45353499999999997,0.700768,-0.548146
1629807875780,-0.453962,0.699853,-0.5477799999999999
1629807875790,-0.45414499999999997,0.698694,-0.5477799999999999
1629807875799,-0.453901,0.700036,-0.548573
1629807875809,-0.453108,0.700097,-0.548573
1629807875819,-0.452986,0.699853,-0.549427
1629807875828,-0.452803,0.699914,-0.5477799999999999
1629807875838,-0.452742,0.701622,-0.547292
1629807875847,-0.453169,0.701805,-0.547414
1629807875857,-0.45261999999999997,0.702171,-0.548268
1629807875867,-0.453718,0.701622,-0.548878
1629807875876,-0.45383999999999997,0.701866,-0.549244
1629807875886,-0.454267,0.701561,-0.550037
1629807875895,-0.454328,0.700524,-0.550342
1629807875905,-0.454206,0.700463,-0.550891
1629807875915,-0.454084,0.701439,-0.549732
1629807875924,-0.45261999999999997,0.702232,-0.551989
1629807875934,-0.451949,0.701561,-0.550647
1629807875943,-0.452376,0.69784,-0.552477
1629807875953,-0.45322999999999997,0.697474,-0.552294
1629807875963,-0.452681,0.697596,-0.552843
1629807875972,-0.453047,0.698023,-0.554124
1629807875982,-0.450363,0.699731,-0.548756
1629807875991,-0.450607,0.700158,-0.539179
1629807876001,-0.451766,0.701561,-0.5367999999999999
1629807876011,-0.452498,0.704916,-0.541131
1629807876020,-0.452681,0.707966,-0.545706
1629807876030,-0.453779,0.7105279999999999,-0.548878
1629807876039,-0.453474,0.7111379999999999,-0.550464
1629807876049,-0.454023,0.710772,-0.551562
1629807876059,-0.455182,0.708576,-0.55022
1629807876068,-0.454511,0.70577,-0.548329
1629807876078,-0.454694,0.7032079999999999,-0.546133
1629807876087,-0.455609,0.699853,-0.546011
1629807876097,-0.454816,0.69723,-0.546194
1629807876107,-0.455792,0.695888,-0.546926
1629807876116,-0.45536499999999996,0.69479,-0.548024
1629807876126,-0.455121,0.695827,-0.551074
1629807876135,-0.454267,0.697413,-0.55144
1629807876145,-0.453413,0.698572,-0.550464
1629807876155,-0.453169,0.698999,-0.550037
1629807876164,-0.452742,0.700341,-0.55022
1629807876174,-0.453108,0.701988,-0.549061
1629807876183,-0.452437,0.70333,-0.548634
1629807876193,-0.452254,0.7041229999999999,-0.5483899999999999
1629807876203,-0.451888,0.706014,-0.547109
1629807876212,-0.450668,0.704489,-0.547597
1629807876222,-0.45109499999999997,0.703757,-0.548634
1629807876231,-0.451583,0.702354,-0.551135
1629807876241,-0.45261999999999997,0.701622,-0.551684
1629807876251,-0.451522,0.699914,-0.55205
1629807876260,-0.450729,0.698755,-0.549122
1629807876270,-0.452071,0.698023,-0.544364
1629807876279,-0.45170499999999997,0.698511,-0.544364
1629807876289,-0.451339,0.700219,-0.547719
1629807876299,-0.452437,0.702598,-0.549976
1629807876308,-0.452742,0.7044279999999999,-0.551318
1629807876318,-0.453169,0.705282,-0.552965
1629807876327,-0.453413,0.70577,-0.553697
1629807876337,-0.453352,0.70699,-0.552477
1629807876347,-0.453108,0.705831,-0.550586
1629807876356,-0.453413,0.7041229999999999,-0.54961
1629807876366,-0.453291,0.702903,-0.547414
1629807876375,-0.452803,0.700951,-0.546804
1629807876385,-0.452559,0.700707,-0.545096
1629807876395,-0.45414499999999997,0.70028,-0.546072
1629807876404,-0.453413,0.700402,-0.548268
1629807876414,-0.454816,0.700402,-0.549122
1629807876423,-0.454023,0.701683,-0.548146
1629807876433,-0.455731,0.701744,-0.5483899999999999
1629807876443,-0.454816,0.701561,-0.548451
1629807876452,-0.455853,0.701561,-0.548756
1629807876462,-0.455548,0.701317,-0.548329
1629807876471,-0.455243,0.701317,-0.548878
1629807876481,-0.455548,0.700524,-0.550342
1629807876491,-0.456341,0.698938,-0.549
1629807876500,-0.45627999999999996,0.697779,-0.547658
1629807876510,-0.456768,0.69662,-0.5474749999999999
1629807876519,-0.456341,0.697047,-0.547536
1629807876529,-0.455609,0.697657,-0.548329
1629807876539,-0.45505999999999996,0.69784,-0.549488
1629807876548,-0.455731,0.698023,-0.55022
1629807876558,-0.453596,0.698511,-0.549671
1629807876567,-0.455304,0.69906,-0.549854
1629807876577,-0.45414499999999997,0.699914,-0.549732
1629807876587,-0.454084,0.70089,-0.55022
1629807876596,-0.453291,0.701866,-0.549122
1629807876606,-0.453901,0.701378,-0.548512
1629807876615,-0.45322999999999997,0.702842,-0.548024
1629807876625,-0.452132,0.7035129999999999,-0.5471699999999999
1629807876635,-0.451278,0.704245,-0.5471699999999999
1629807876644,-0.451766,0.7041229999999999,-0.5468649999999999
1629807876654,-0.451217,0.704306,-0.544913
1629807876663,-0.45139999999999997,0.704916,-0.545767
1629807876673,-0.45109499999999997,0.704245,-0.547048
1629807876683,-0.451888,0.704672,-0.547292
1629807876692,-0.452498,0.7047329999999999,-0.5459499999999999
1629807876702,-0.453413,0.704367,-0.547292
1629807876711,-0.454206,0.704184,-0.548817
1629807876721,-0.454084,0.7038179999999999,-0.548146
1629807876731,-0.454816,0.702903,-0.548878
1629807876740,-0.45475499999999996,0.703391,-0.548634
1629807876750,-0.453718,0.703635,-0.548024
1629807876759,-0.454389,0.703269,-0.548512
1629807876769,-0.453596,0.702659,-0.547719
1629807876779,-0.454084,0.701805,-0.548634
1629807876788,-0.454084,0.701805,-0.548451
1629807876798,-0.45414499999999997,0.701378,-0.547658
1629807876807,-0.454694,0.700219,-0.548329
1629807876817,-0.455487,0.699853,-0.548756
1629807876827,-0.455609,0.699487,-0.550586
1629807876836,-0.455853,0.699243,-0.550769
1629807876846,-0.456036,0.69906,-0.550098
1629807876855,-0.455121,0.698633,-0.548695
1629807876865,-0.45475499999999996,0.698877,-0.548329
1629807876875,-0.454267,0.699365,-0.549061
1629807876884,-0.45444999999999997,0.700341,-0.5474749999999999
1629807876894,-0.454023,0.701378,-0.547902
1629807876903,-0.453779,0.700707,-0.547658
1629807876913,-0.45292499999999997,0.701195,-0.547597
1629807876923,-0.453169,0.701561,-0.547536
1629807876932,-0.453718,0.701317,-0.5465599999999999
1629807876942,-0.453657,0.702659,-0.548756
1629807876951,-0.454999,0.702415,-0.548634
1629807876961,-0.45444999999999997,0.701744,-0.550342
1629807876971,-0.455304,0.7015,-0.549732
1629807876980,-0.454938,0.699975,-0.551257
1629807876990,-0.453718,0.700463,-0.549732
1629807876999,-0.453596,0.7015,-0.551135
1629807877009,-0.451644,0.701073,-0.552904
1629807877019,-0.451339,0.697352,-0.551562
1629807877028,-0.450973,0.6954,-0.550586
1629807877038,-0.451888,0.69723,-0.55144
1629807877047,-0.452437,0.698206,-0.554246
1629807877057,-0.450851,0.699731,-0.55022
1629807877067,-0.449631,0.700219,-0.541558
1629807877076,-0.451034,0.700768,-0.537593
1629807877086,-0.452254,0.704855,-0.538996
1629807877095,-0.45261999999999997,0.708576,-0.5432049999999999
1629807877105,-0.452864,0.71065,-0.548634
1629807877115,-0.45383999999999997,0.711199,-0.551684
1629807877124,-0.45444999999999997,0.7120529999999999,-0.55449
1629807877134,-0.453779,0.709064,-0.555344
1629807877143,-0.454084,0.707051,-0.552233
1629807877153,-0.453596,0.704062,-0.549061
1629807877163,-0.453291,0.700402,-0.5477799999999999
1629807877172,-0.452864,0.698694,-0.5465599999999999
1629807877182,-0.451461,0.697901,-0.546743
1629807877191,-0.450424,0.696803,-0.548146
1629807877201,-0.450119,0.698816,-0.5477799999999999
1629807877211,-0.448106,0.699304,-0.548695
1629807877220,-0.448533,0.701866,-0.549488
1629807877230,-0.447923,0.704184,-0.549488
1629807877239,-0.44743499999999997,0.705465,-0.55022
1629807877249,-0.447191,0.706197,-0.55083
1629807877259,-0.44712999999999997,0.706807,-0.549976
1629807877268,-0.447008,0.707966,-0.549854
1629807877278,-0.446154,0.708332,-0.549061
1629807877287,-0.446581,0.705831,-0.548634
1629807877297,-0.446764,0.704367,-0.550769
1629807877307,-0.445483,0.7041229999999999,-0.551074
1629807877316,-0.446276,0.703452,-0.552965
1629807877326,-0.446093,0.701561,-0.554551
1629807877335,-0.446154,0.701744,-0.548573
1629807877345,-0.44652,0.701012,-0.543876
1629807877355,-0.446398,0.702964,-0.545096
1629807877364,-0.446764,0.705099,-0.547719
1629807877374,-0.445178,0.70577,-0.550586
1629807877383,-0.446154,0.707051,-0.551928
1629807877393,-0.44652,0.708332,-0.552782
1629807877403,-0.44682499999999997,0.707905,-0.553148
1629807877412,-0.446703,0.7076,-0.551806
1629807877422,-0.447008,0.707417,-0.550098
1629807877431,-0.447557,0.706502,-0.548146
1629807877441,-0.447557,0.7047329999999999,-0.547658
1629807877451,-0.447496,0.704611,-0.5477799999999999
1629807877460,-0.44773999999999997,0.703757,-0.547658
1629807877470,-0.448533,0.703391,-0.547292
1629807877479,-0.449143,0.703269,-0.5474749999999999
1629807877489,-0.44926499999999997,0.7044279999999999,-0.547536
1629807877499,-0.448899,0.704611,-0.547719
1629807877508,-0.449204,0.704855,-0.548695
1629807877518,-0.44987499999999997,0.7062579999999999,-0.549305
1629807877527,-0.450058,0.705831,-0.549854
1629807877537,-0.449631,0.70577,-0.549915
1629807877547,-0.450546,0.70577,-0.548634
1629807877556,-0.450912,0.704062,-0.548329
1629807877566,-0.450973,0.703269,-0.548878
1629807877575,-0.449509,0.703086,-0.5483899999999999
1629807877585,-0.449936,0.701927,-0.548451
1629807877595,-0.449448,0.703391,-0.549061
1629807877604,-0.450119,0.703757,-0.548817
1629807877614,-0.448228,0.704184,-0.548634
1629807877623,-0.449326,0.704794,-0.548207
1629807877633,-0.447801,0.705404,-0.548268
1629807877643,-0.448106,0.705831,-0.547841
1629807877652,-0.44773999999999997,0.705221,-0.546438
1629807877662,-0.44773999999999997,0.7059529999999999,-0.546316
1629807877671,-0.447374,0.707356,-0.546926
1629807877681,-0.446276,0.707966,-0.5483899999999999
1629807877691,-0.44652,0.707112,-0.5483899999999999
1629807877700,-0.447313,0.7065629999999999,-0.546926
1629807877710,-0.447313,0.707112,-0.547536
1629807877719,-0.447252,0.707234,-0.546743
1629807877729,-0.44743499999999997,0.707661,-0.546926
1629807877739,-0.447252,0.70821,-0.547902
1629807877748,-0.44712999999999997,0.70882,-0.547048
1629807877758,-0.447069,0.708027,-0.5474749999999999
1629807877767,-0.44682499999999997,0.708271,-0.548024
1629807877777,-0.446032,0.707966,-0.546438
1629807877787,-0.445788,0.707844,-0.546743
1629807877796,-0.446642,0.708576,-0.5459499999999999
1629807877806,-0.447191,0.708759,-0.546133
1629807877815,-0.447008,0.707539,-0.546072
1629807877825,-0.446947,0.707905,-0.546926
1629807877835,-0.446764,0.70821,-0.546804
1629807877844,-0.447374,0.7071729999999999,-0.547597
1629807877854,-0.447191,0.706624,-0.5474749999999999
1629807877863,-0.447801,0.7062579999999999,-0.547048
1629807877873,-0.448472,0.705831,-0.546743
1629807877883,-0.447984,0.705526,-0.546133
1629807877892,-0.44834999999999997,0.706441,-0.547414
1629807877902,-0.448472,0.705831,-0.5474749999999999
1629807877911,-0.44865499999999997,0.705404,-0.547048
1629807877921,-0.44895999999999997,0.705221,-0.547719
1629807877931,-0.44987499999999997,0.704977,-0.5480849999999999
1629807877940,-0.449143,0.705892,-0.547292
1629807877950,-0.448594,0.7059529999999999,-0.547231
1629807877959,-0.448289,0.705892,-0.547292
1629807877969,-0.448594,0.706136,-0.546682
1629807877979,-0.448777,0.705404,-0.548451
1629807877988,-0.449509,0.704184,-0.547048
1629807877998,-0.450241,0.704855,-0.546316
1629807878007,-0.450119,0.703452,-0.545584
1629807878017,-0.44956999999999997,0.70272,-0.543937
1629807878027,-0.449448,0.705465,-0.546499
