timestamp,ax,ay,az
1629808534243,-0.468175,-0.286639,0.857599
1629808534253,-0.46543,-0.285724,0.859795
1629808534262,-0.464881,-0.280234,0.860893
1629808534272,-0.464088,-0.275659,0.858209
1629808534282,-0.461343,-0.27175499999999997,0.854244
1629808534291,-0.459086,-0.271816,0.850645
1629808534301,-0.457744,-0.272853,0.848754
1629808534310,-0.456219,-0.275659,0.8468019999999999
1629808534320,-0.454816,-0.27755,0.847473
1629808534330,-0.453352,-0.27694,0.846375
1629808534339,-0.452681,-0.275415,0.84973
1629808534349,-0.451278,-0.274317,0.8519869999999999
1629808534358,-0.451949,-0.272792,0.849059
1629808534368,-0.451034,-0.271267,0.84729
1629808534378,-0.449082,-0.270169,0.845765
1629808534387,-0.44926499999999997,-0.272243,0.8479
1629808534397,-0.451522,-0.271938,0.850096
1629808534406,-0.45261999999999997,-0.271877,0.851133
1629808534416,-0.453047,-0.273768,0.85339
1629808534426,-0.45322999999999997,-0.273829,0.8532069999999999
1629808534435,-0.452376,-0.270474,0.850706
1629808534445,-0.454389,-0.27175499999999997,0.851926
1629808534454,-0.455853,-0.272853,0.8535119999999999
1629808534464,-0.457256,-0.274012,0.853329
1629808534474,-0.457195,-0.277367,0.853268
1629808534483,-0.456707,-0.280051,0.853878
1629808534493,-0.45627999999999996,-0.278404,0.8553419999999999
1629808534502,-0.453596,-0.274683,0.856013
1629808534512,-0.454816,-0.273036,0.854
1629808534522,-0.454572,-0.27266999999999997,0.852414
1629808534531,-0.453962,-0.272609,0.850584
1629808513389,-0.453413,-0.273219,0.85217
1629808513399,-0.453962,-0.275537,0.85217
1629808513409,-0.452681,-0.274439,0.854854
1629808513418,-0.452681,-0.27419499999999997,0.856135
1629808513428,-0.451461,-0.274317,0.8568669999999999
1629808513437,-0.450668,-0.273097,0.8559519999999999
1629808513447,-0.44956999999999997,-0.271084,0.855708
1629808513457,-0.450851,-0.270169,0.854915
1629808513466,-0.451156,-0.270108,0.854976
1629808513476,-0.450973,-0.269986,0.853878
1629808513485,-0.44987499999999997,-0.271084,0.85461
1629808513495,-0.450363,-0.271572,0.855281
1629808513505,-0.44956999999999997,-0.271511,0.8562569999999999
1629808513514,-0.449814,-0.27083999999999997,0.857233
1629808513524,-0.44926499999999997,-0.269376,0.857965
1629808513533,-0.45048499999999997,-0.26961999999999997,0.859551
1629808513543,-0.447923,-0.269071,0.860161
1629808513553,-0.446154,-0.26779,0.858148
1629808513562,-0.44743499999999997,-0.267241,0.8583919999999999
1629808513572,-0.448594,-0.267668,0.85583
1629808513581,-0.448899,-0.26839999999999997,0.852231
1629808513591,-0.44987499999999997,-0.270779,0.8516819999999999
1629808513601,-0.450851,-0.271877,0.851865
1629808513610,-0.450424,-0.27175499999999997,0.853329
1629808513620,-0.449509,-0.270047,0.855708
1629808513629,-0.44834999999999997,-0.267973,0.85583
1629808513639,-0.449082,-0.266814,0.854244
1629808513649,-0.448777,-0.266143,0.851743
1629808513658,-0.449814,-0.266021,0.852719
1629808513668,-0.449143,-0.267912,0.8522919999999999
1629808513677,-0.449021,-0.270291,0.851499
1629808513687,-0.450058,-0.269742,0.853146
1629808513697,-0.44987499999999997,-0.266875,0.850645
1629808513706,-0.448899,-0.260226,0.849303
1629808513716,-0.45322999999999997,-0.261202,0.856135
1629808513725,-0.455548,-0.262483,0.860344
1629808513735,-0.454633,-0.266814,0.862601
1629808513745,-0.45536499999999996,-0.271572,0.865468
1629808513754,-0.457378,-0.272548,0.867359
1629808513764,-0.457805,-0.266875,0.86437
1629808513773,-0.454206,-0.265167,0.861198
1629808513783,-0.450424,-0.265594,0.8608319999999999
1629808513793,-0.446947,-0.263337,0.85949
1629808513802,-0.445971,-0.25986,0.85949
1629808513812,-0.444934,-0.257969,0.856989
1629808513821,-0.446093,-0.256932,0.8580869999999999
1629808513831,-0.4453,-0.257542,0.86132
1629808513841,-0.445361,-0.25681,0.860588
1629808513850,-0.4453,-0.254492,0.8593069999999999
1629808513860,-0.443714,-0.254126,0.858026
1629808513869,-0.44395799999999996,-0.255041,0.859795
1629808513879,-0.445666,-0.254797,0.861381
1629808513889,-0.44773999999999997,-0.255712,0.8623569999999999
1629808513898,-0.447191,-0.255407,0.863089
1629808513908,-0.44865499999999997,-0.255102,0.864553
1629808513917,-0.449448,-0.255895,0.864614
1629808513927,-0.450058,-0.257664,0.86498
1629808513937,-0.450241,-0.25699299999999997,0.861076
1629808513946,-0.448411,-0.252784,0.85644
1629808513956,-0.448838,-0.253333,0.855098
1629808513965,-0.45109499999999997,-0.252418,0.853756
1629808513975,-0.45261999999999997,-0.253394,0.854
1629808513985,-0.452498,-0.25882299999999997,0.857904
1629808513994,-0.452437,-0.260592,0.860283
1629808514004,-0.45383999999999997,-0.258335,0.859856
1629808514013,-0.455731,-0.257542,0.859246
1629808514023,-0.45597499999999996,-0.256932,0.858758
1629808514033,-0.454084,-0.2562,0.8586969999999999
1629808514042,-0.453718,-0.256322,0.8571719999999999
1629808514052,-0.454206,-0.25699299999999997,0.8565619999999999
1629808514061,-0.453718,-0.258091,0.857843
1629808514071,-0.453657,-0.257542,0.857233
1629808514081,-0.453474,-0.25821299999999997,0.8583919999999999
1629808514090,-0.45383999999999997,-0.25925,0.8602219999999999
1629808514100,-0.454023,-0.25790799999999997,0.861076
1629808514109,-0.455304,-0.256017,0.860588
1629808514119,-0.454267,-0.256078,0.860039
1629808514129,-0.452681,-0.255956,0.858514
1629808514138,-0.45353499999999997,-0.255102,0.85888
1629808514148,-0.451949,-0.255712,0.860344
1629808514157,-0.452132,-0.255956,0.8602219999999999
1629808514167,-0.451827,-0.255285,0.861198
1629808514177,-0.451278,-0.255285,0.8614419999999999
1629808514186,-0.452803,-0.2562,0.861686
1629808514196,-0.452498,-0.257664,0.8614419999999999
1629808514205,-0.452864,-0.256322,0.861686
1629808514215,-0.451339,-0.255956,0.8620519999999999
1629808514225,-0.45048499999999997,-0.255956,0.860954
1629808514234,-0.450119,-0.25498,0.861076
1629808514244,-0.449204,-0.253516,0.860466
1629808514253,-0.448777,-0.25132,0.861076
1629808514263,-0.446947,-0.250222,0.862723
1629808514273,-0.446886,-0.250771,0.863028
1629808514282,-0.447923,-0.250954,0.863394
1629808514292,-0.448777,-0.253028,0.862479
1629808514301,-0.44834999999999997,-0.254858,0.8590019999999999
1629808514311,-0.44743499999999997,-0.255407,0.855098
1629808514321,-0.447374,-0.253699,0.853573
1629808514330,-0.44834999999999997,-0.254736,0.856989
1629808514340,-0.448899,-0.253821,0.8571719999999999
1629808514349,-0.45048499999999997,-0.251076,0.855708
1629808514359,-0.451461,-0.25193,0.8580869999999999
1629808514369,-0.452803,-0.251381,0.8614419999999999
1629808514378,-0.453962,-0.251991,0.862845
1629808514388,-0.454023,-0.25803,0.864858
1629808514397,-0.454816,-0.263093,0.86742
1629808514407,-0.455548,-0.265289,0.867664
1629808514417,-0.453474,-0.260409,0.864736
1629808514426,-0.449936,-0.253333,0.86132
1629808514436,-0.447618,-0.25071,0.860161
1629808514445,-0.445056,-0.24881899999999998,0.860771
1629808514455,-0.44164,-0.246806,0.861015
1629808514465,-0.439444,-0.248087,0.862113
1629808514474,-0.439566,-0.249673,0.864736
1629808514484,-0.440054,-0.248941,0.866078
1629808514493,-0.438102,-0.246135,0.866505
1629808514503,-0.437492,-0.243329,0.867847
1629808514513,-0.43785799999999997,-0.242414,0.868457
1629808514522,-0.437309,-0.23985199999999998,0.868579
1629808514532,-0.438041,-0.23893699999999998,0.869494
1629808514541,-0.439322,-0.23985199999999998,0.869311
1629808514551,-0.441091,-0.240706,0.871995
1629808514561,-0.441945,-0.244732,0.8723
1629808514570,-0.441762,-0.244427,0.8723
1629808514580,-0.44243299999999997,-0.246745,0.873093
1629808514589,-0.44029799999999997,-0.24631799999999998,0.87047
1629808514599,-0.439627,-0.24662299999999998,0.866444
1629808514609,-0.44151799999999997,-0.24888,0.866932
1629808514618,-0.442799,-0.24759899999999999,0.864919
1629808514628,-0.443592,-0.246684,0.860344
1629808514637,-0.44469,-0.250344,0.85949
1629808514647,-0.445056,-0.253455,0.85949
1629808514657,-0.444385,-0.254004,0.860466
1629808514666,-0.444812,-0.252052,0.860405
1629808514676,-0.445056,-0.249978,0.86193
1629808514685,-0.445727,-0.249612,0.86254
1629808514695,-0.445971,-0.249978,0.8632719999999999
1629808514705,-0.444934,-0.249795,0.8632719999999999
1629808514714,-0.445605,-0.250039,0.865529
1629808514724,-0.445361,-0.250344,0.867298
1629808514733,-0.445056,-0.250954,0.8702259999999999
1629808514743,-0.44456799999999996,-0.251503,0.869433
1629808514753,-0.44347,-0.25193,0.87047
1629808514762,-0.443836,-0.250222,0.870104
1629808514772,-0.442067,-0.248575,0.869067
1629808514781,-0.442067,-0.24827,0.870104
1629808514791,-0.441701,-0.248758,0.868396
1629808514801,-0.440847,-0.24912399999999998,0.867847
1629808514810,-0.441152,-0.249246,0.866444
1629808514820,-0.44151799999999997,-0.250161,0.865956
1629808514829,-0.44286,-0.25071,0.865407
1629808514839,-0.444507,-0.251076,0.863699
1629808514849,-0.444751,-0.252906,0.862296
1629808514858,-0.44591,-0.254004,0.863028
1629808514868,-0.446337,-0.254553,0.861381
1629808514877,-0.44591,-0.254431,0.859856
1629808514887,-0.447252,-0.25498,0.859124
1629808514897,-0.445849,-0.25437,0.85766
1629808514906,-0.445056,-0.253821,0.85766
1629808514916,-0.445666,-0.254553,0.857721
1629808514925,-0.446459,-0.255773,0.858453
1629808514935,-0.447679,-0.25790799999999997,0.85766
1629808514945,-0.448228,-0.25925,0.8571719999999999
1629808514954,-0.449814,-0.261446,0.855159
1629808514964,-0.451644,-0.263154,0.853329
1629808514973,-0.451522,-0.263825,0.851133
1629808514983,-0.45078999999999997,-0.263825,0.850096
1629808514993,-0.453413,-0.264008,0.852048
1629808515002,-0.45353499999999997,-0.264618,0.851865
1629808515012,-0.45292499999999997,-0.262422,0.850096
1629808515021,-0.454206,-0.263581,0.851438
1629808515031,-0.455304,-0.26169,0.855891
1629808515041,-0.454877,-0.259616,0.8583919999999999
1629808515050,-0.454694,-0.262544,0.861808
1629808515060,-0.45658499999999996,-0.269559,0.866322
1629808515069,-0.457256,-0.271572,0.864553
1629808515079,-0.457378,-0.27114499999999997,0.860466
1629808515089,-0.456463,-0.26839999999999997,0.858636
1629808515098,-0.454999,-0.267119,0.8574769999999999
1629808515108,-0.453108,-0.264374,0.855464
1629808515117,-0.451827,-0.263215,0.85522
1629808515127,-0.450058,-0.264618,0.856745
1629808515137,-0.448777,-0.266204,0.858026
1629808515146,-0.448106,-0.267546,0.858819
1629808515156,-0.447191,-0.264923,0.85766
1629808515165,-0.44591,-0.261812,0.856074
1629808515175,-0.44456799999999996,-0.25925,0.855769
1629808515185,-0.444019,-0.25851799999999997,0.855098
1629808515194,-0.44456799999999996,-0.258396,0.8565619999999999
1629808515204,-0.444995,-0.257847,0.856684
1629808515213,-0.444507,-0.258335,0.8562569999999999
1629808515223,-0.446276,-0.259006,0.857904
1629808515233,-0.447984,-0.26047,0.859124
1629808515242,-0.44712999999999997,-0.258945,0.8583919999999999
1629808515252,-0.447679,-0.257725,0.854793
1629808515261,-0.449143,-0.259677,0.853878
1629808515271,-0.450363,-0.261019,0.854671
1629808515281,-0.452071,-0.26004299999999997,0.852231
1629808515290,-0.453169,-0.259616,0.851621
1629808515300,-0.453291,-0.26126299999999997,0.852231
1629808515309,-0.45261999999999997,-0.261019,0.85339
1629808515319,-0.45353499999999997,-0.261751,0.85644
1629808515329,-0.45566999999999996,-0.261934,0.8577819999999999
1629808515338,-0.456768,-0.262361,0.8590019999999999
1629808515348,-0.45688999999999996,-0.26047,0.858026
1629808515357,-0.456402,-0.258457,0.857904
1629808515367,-0.454694,-0.25882299999999997,0.857904
1629808515377,-0.454206,-0.260409,0.859978
1629808515386,-0.452864,-0.260409,0.860893
1629808515396,-0.452864,-0.261385,0.860649
1629808515405,-0.45261999999999997,-0.262056,0.86071
1629808515415,-0.453657,-0.260714,0.859673
1629808515425,-0.452681,-0.26047,0.858514
1629808515434,-0.45414499999999997,-0.261324,0.859185
1629808515444,-0.453352,-0.259921,0.859795
1629808515453,-0.452193,-0.258091,0.8611369999999999
1629808515463,-0.45170499999999997,-0.258274,0.863394
1629808515473,-0.452376,-0.257359,0.864004
1629808515482,-0.45261999999999997,-0.25864,0.8644919999999999
1629808515492,-0.453657,-0.26169,0.864065
1629808515501,-0.45261999999999997,-0.263642,0.863333
1629808515511,-0.453169,-0.264557,0.860161
1629808515521,-0.452254,-0.264435,0.856928
1629808515530,-0.452986,-0.263459,0.854366
1629808515540,-0.45231499999999997,-0.264435,0.853329
1629808515549,-0.452742,-0.265655,0.852658
1629808515559,-0.454816,-0.267302,0.85217
1629808515569,-0.454999,-0.267363,0.850584
1629808515578,-0.454206,-0.266021,0.848815
1629808515588,-0.454511,-0.264008,0.848144
1629808515597,-0.454633,-0.265167,0.849059
1629808515607,-0.454267,-0.267546,0.84912
1629808515617,-0.454816,-0.270108,0.848693
1629808515626,-0.454389,-0.269803,0.849791
1629808515636,-0.45200999999999997,-0.268339,0.848571
1629808515645,-0.452864,-0.269437,0.8483269999999999
1629808515655,-0.453901,-0.268644,0.847839
1629808515665,-0.454877,-0.266204,0.8495469999999999
1629808515674,-0.454938,-0.267302,0.851621
1629808515684,-0.454511,-0.268156,0.853146
1629808515693,-0.453047,-0.268034,0.851316
1629808515703,-0.45109499999999997,-0.266082,0.845155
1629808515713,-0.455853,-0.26839999999999997,0.846009
1629808515722,-0.456951,-0.267973,0.8495469999999999
1629808515732,-0.459208,-0.266021,0.852353
1629808515741,-0.458964,-0.271084,0.856501
1629808515751,-0.46097699999999997,-0.278282,0.8614419999999999
1629808515761,-0.462685,-0.278404,0.859124
1629808515770,-0.462136,-0.27236499999999997,0.8553419999999999
1629808515780,-0.462136,-0.269071,0.852353
1629808515789,-0.463234,-0.268949,0.850889
1629808515799,-0.459269,-0.266631,0.8535119999999999
1629808515809,-0.455426,-0.266936,0.856379
1629808515818,-0.45811,-0.27083999999999997,0.854915
1629808515828,-0.457195,-0.27266999999999997,0.850401
1629808515837,-0.453779,-0.268644,0.847656
1629808515847,-0.452742,-0.26718,0.848388
1629808515857,-0.451888,-0.264069,0.8510719999999999
1629808515866,-0.449509,-0.26169,0.85095
1629808515876,-0.44712999999999997,-0.25742,0.853146
1629808515885,-0.446398,-0.255163,0.853146
1629808515895,-0.444934,-0.25729799999999997,0.855464
1629808515905,-0.447801,-0.259982,0.857599
1629808515914,-0.447069,-0.26474,0.8632719999999999
1629808515924,-0.452498,-0.26900999999999997,0.862418
1629808515933,-0.450729,-0.267302,0.856745
1629808515943,-0.449082,-0.261446,0.849974
1629808515953,-0.447008,-0.25925,0.85217
1629808515962,-0.446459,-0.255834,0.854854
1629808515972,-0.452071,-0.254065,0.8535119999999999
1629808515981,-0.454389,-0.259555,0.853268
1629808515991,-0.457012,-0.26596,0.8522919999999999
1629808516001,-0.457744,-0.266936,0.855281
1629808516010,-0.45884199999999997,-0.26352,0.8574769999999999
1629808516020,-0.458537,-0.25912799999999997,0.856013
1629808516029,-0.454877,-0.25559,0.852414
1629808516039,-0.457134,-0.257847,0.853939
1629808516049,-0.46116,-0.261995,0.857965
1629808516058,-0.46006199999999997,-0.264191,0.860039
1629808516068,-0.459208,-0.263825,0.859551
1629808516077,-0.457622,-0.263642,0.859978
1629808516087,-0.458964,-0.265167,0.8605269999999999
1629808516097,-0.457622,-0.263276,0.8601
1629808516106,-0.45627999999999996,-0.26065299999999997,0.857538
1629808516116,-0.457988,-0.261202,0.857965
1629808516125,-0.459879,-0.262178,0.8593069999999999
1629808516135,-0.456158,-0.261629,0.857843
1629808516145,-0.456341,-0.263642,0.855708
1629808516154,-0.457195,-0.265838,0.8565619999999999
1629808516164,-0.456097,-0.266875,0.854244
1629808516173,-0.456768,-0.26839999999999997,0.8550369999999999
1629808516183,-0.4575,-0.268461,0.854
1629808516193,-0.457134,-0.266387,0.853085
1629808516202,-0.456768,-0.26596,0.851621
1629808516212,-0.457256,-0.268339,0.851133
1629808516221,-0.457561,-0.268339,0.851011
1629808516231,-0.457195,-0.267851,0.850645
1629808516241,-0.456646,-0.267363,0.849059
1629808516250,-0.457073,-0.268583,0.8483269999999999
1629808516260,-0.456402,-0.26839999999999997,0.8477169999999999
1629808516269,-0.456463,-0.26779,0.8477169999999999
1629808516279,-0.45566999999999996,-0.26931499999999997,0.847778
1629808516289,-0.45536499999999996,-0.26961999999999997,0.848388
1629808516298,-0.454816,-0.26931499999999997,0.847961
1629808516308,-0.454511,-0.266631,0.846558
1629808516317,-0.454023,-0.265655,0.8461919999999999
1629808516327,-0.455182,-0.267851,0.8483269999999999
1629808516337,-0.45475499999999996,-0.26900999999999997,0.84912
1629808516346,-0.455792,-0.269681,0.851133
1629808516356,-0.457561,-0.270352,0.852231
1629808516365,-0.45566999999999996,-0.271511,0.8516819999999999
1629808516375,-0.456524,-0.273219,0.8507669999999999
1629808516385,-0.453596,-0.272731,0.849791
1629808516394,-0.450302,-0.27114499999999997,0.850584
1629808516404,-0.448533,-0.262544,0.848449
1629808516413,-0.44987499999999997,-0.26291,0.851621
1629808516423,-0.454389,-0.265533,0.8562569999999999
1629808516433,-0.457439,-0.273036,0.861686
1629808516442,-0.456524,-0.277672,0.866688
1629808516452,-0.455548,-0.276147,0.868884
1629808516461,-0.45444999999999997,-0.26961999999999997,0.864248
1629808516471,-0.452742,-0.265533,0.85583
1629808516481,-0.451278,-0.264862,0.8522919999999999
1629808516490,-0.451278,-0.265716,0.852536
1629808516500,-0.44987499999999997,-0.266936,0.854488
1629808516509,-0.447374,-0.265655,0.857538
1629808516519,-0.442311,-0.264679,0.86132
1629808516529,-0.442799,-0.264923,0.862296
1629808516538,-0.44347,-0.266509,0.85644
1629808516548,-0.443165,-0.264862,0.848571
1629808516557,-0.444812,-0.266082,0.8461919999999999
1629808516567,-0.444751,-0.266753,0.845338
1629808516577,-0.443836,-0.265899,0.8464969999999999
1629808516586,-0.444934,-0.265777,0.8504619999999999
1629808516596,-0.447374,-0.26839999999999997,0.8535119999999999
1629808516605,-0.448777,-0.271084,0.854305
1629808516615,-0.449509,-0.271328,0.8571719999999999
1629808516625,-0.446703,-0.267912,0.857538
1629808516634,-0.444934,-0.262544,0.852475
1629808516644,-0.445056,-0.262666,0.85644
1629808516653,-0.446764,-0.264313,0.858026
1629808516663,-0.446093,-0.263093,0.86193
1629808516673,-0.44682499999999997,-0.266814,0.862784
1629808516682,-0.44652,-0.267302,0.861991
1629808516692,-0.447191,-0.26779,0.861625
1629808516701,-0.447984,-0.26657,0.85949
1629808516711,-0.447801,-0.264679,0.856745
1629808516721,-0.449326,-0.261385,0.856501
1629808516730,-0.45017999999999997,-0.259311,0.856379
1629808516740,-0.449082,-0.259006,0.858331
1629808516749,-0.446398,-0.26004299999999997,0.862296
1629808516759,-0.44956999999999997,-0.259555,0.862784
1629808516769,-0.448411,-0.260104,0.86437
1629808516778,-0.44743499999999997,-0.260897,0.86559
1629808516788,-0.446154,-0.25973799999999997,0.867176
1629808516797,-0.4453,-0.256749,0.867359
1629808516807,-0.446642,-0.253882,0.866444
1629808516817,-0.444507,-0.253211,0.867481
1629808516826,-0.443287,-0.251869,0.865407
1629808516836,-0.442555,-0.250344,0.866749
1629808516845,-0.44273799999999996,-0.251442,0.867542
1629808516855,-0.44243299999999997,-0.25315,0.864858
1629808516865,-0.444751,-0.253638,0.861991
1629808516874,-0.444873,-0.254797,0.860588
1629808516884,-0.44456799999999996,-0.255529,0.859185
1629808516893,-0.445849,-0.25699299999999997,0.858331
1629808516903,-0.445544,-0.257786,0.858514
1629808516913,-0.443104,-0.255956,0.8608319999999999
1629808516922,-0.44365299999999996,-0.25437,0.8632719999999999
1629808516932,-0.445849,-0.25668799999999997,0.863638
1629808516941,-0.44591,-0.254126,0.861503
1629808516951,-0.443592,-0.251381,0.859551
1629808516961,-0.443775,-0.251625,0.859734
1629808516970,-0.444995,-0.251015,0.859673
1629808516980,-0.446215,-0.251503,0.8611369999999999
1629808516989,-0.44895999999999997,-0.253516,0.8626619999999999
1629808516999,-0.450302,-0.255102,0.861808
1629808517009,-0.451522,-0.254431,0.861076
1629808517018,-0.452071,-0.255468,0.860954
1629808517028,-0.451156,-0.255102,0.861564
1629808517037,-0.451034,-0.253943,0.862845
1629808517047,-0.451522,-0.25437,0.86254
1629808517057,-0.451827,-0.255041,0.8611369999999999
1629808517066,-0.45139999999999997,-0.254065,0.858941
1629808517076,-0.452132,-0.253699,0.857233
1629808517085,-0.454694,-0.253943,0.857294
1629808517095,-0.455121,-0.254797,0.857416
1629808517105,-0.456219,-0.25498,0.858148
1629808517114,-0.452254,-0.251747,0.8550369999999999
1629808517124,-0.45139999999999997,-0.247721,0.8535119999999999
1629808517133,-0.455914,-0.250588,0.857538
1629808517143,-0.456951,-0.251076,0.8608319999999999
1629808517153,-0.45627999999999996,-0.255163,0.862906
1629808517162,-0.456768,-0.26047,0.865712
1629808517172,-0.45884199999999997,-0.25864,0.867664
1629808517181,-0.457378,-0.254675,0.863821
1629808517191,-0.456158,-0.251747,0.862784
1629808517201,-0.45597499999999996,-0.252479,0.8632719999999999
1629808517210,-0.452986,-0.252357,0.8632719999999999
1629808517220,-0.454206,-0.254126,0.86498
1629808517229,-0.448838,-0.250161,0.861625
1629808517239,-0.445971,-0.247538,0.8629669999999999
1629808517249,-0.448777,-0.250161,0.8617469999999999
1629808517258,-0.44712999999999997,-0.248697,0.857599
1629808517268,-0.44273799999999996,-0.246928,0.856989
1629808517277,-0.44469,-0.247233,0.856318
1629808517287,-0.446703,-0.248148,0.857111
1629808517297,-0.445788,-0.24912399999999998,0.8574769999999999
1629808517306,-0.447008,-0.250771,0.86071
1629808517316,-0.447374,-0.25193,0.863821
1629808517325,-0.447984,-0.254309,0.864614
1629808517335,-0.448533,-0.254248,0.8644919999999999
1629808517345,-0.448533,-0.25668799999999997,0.865163
1629808517354,-0.445971,-0.256017,0.866078
1629808517364,-0.443104,-0.251564,0.864126
1629808517373,-0.44212799999999997,-0.24387799999999998,0.858636
1629808517383,-0.441579,-0.24046199999999998,0.855159
1629808517393,-0.444019,-0.23954699999999998,0.853756
1629808517402,-0.44469,-0.24217,0.855403
1629808517412,-0.446581,-0.246806,0.860954
1629808517421,-0.449143,-0.249795,0.864431
1629808517431,-0.450241,-0.24949,0.86559
1629808517441,-0.451278,-0.24949,0.865834
1629808517450,-0.45139999999999997,-0.24912399999999998,0.867054
1629808517460,-0.451949,-0.24851399999999998,0.868152
1629808517469,-0.450546,-0.24851399999999998,0.868152
1629808517479,-0.452132,-0.249002,0.866932
1629808517489,-0.452864,-0.250161,0.867115
1629808517498,-0.44926499999999997,-0.250039,0.866566
1629808517508,-0.448472,-0.251198,0.866261
1629808517517,-0.44926499999999997,-0.249002,0.864126
1629808517527,-0.44956999999999997,-0.24766,0.863943
1629808517537,-0.450424,-0.247416,0.864126
1629808517546,-0.45078999999999997,-0.250283,0.86559
1629808517556,-0.450973,-0.252357,0.867847
1629808517565,-0.451766,-0.253089,0.866688
1629808517575,-0.450851,-0.25376,0.86498
1629808517585,-0.450668,-0.25437,0.8638819999999999
1629808517594,-0.450546,-0.256017,0.862906
1629808517604,-0.450424,-0.255773,0.860466
1629808517613,-0.450241,-0.25699299999999997,0.857965
1629808517623,-0.449814,-0.257786,0.85583
1629808517633,-0.448472,-0.257725,0.852414
1629808517642,-0.448594,-0.258091,0.8519869999999999
1629808517652,-0.448777,-0.25760299999999997,0.8522919999999999
1629808517661,-0.450119,-0.256871,0.851621
1629808517671,-0.45078999999999997,-0.255834,0.852658
1629808517681,-0.451949,-0.254858,0.8529019999999999
1629808517690,-0.451827,-0.25315,0.8522919999999999
1629808517700,-0.45170499999999997,-0.251137,0.851621
1629808517709,-0.451766,-0.253882,0.853756
1629808517719,-0.45322999999999997,-0.25638299999999997,0.85522
1629808517729,-0.45414499999999997,-0.25729799999999997,0.857355
1629808517738,-0.454694,-0.256566,0.857538
1629808517748,-0.454877,-0.255041,0.85766
1629808517757,-0.454206,-0.253882,0.859551
1629808517767,-0.454816,-0.252906,0.859429
1629808517777,-0.452742,-0.251625,0.8580869999999999
1629808517786,-0.453718,-0.249795,0.857233
1629808517796,-0.454389,-0.249978,0.857233
1629808517805,-0.453596,-0.251381,0.858148
1629808517815,-0.454511,-0.25254,0.8614419999999999
1629808517825,-0.454267,-0.250588,0.8601
1629808517834,-0.45292499999999997,-0.247538,0.8544269999999999
1629808517844,-0.453657,-0.24851399999999998,0.855159
1629808517853,-0.455487,-0.24851399999999998,0.860344
1629808517863,-0.456158,-0.249246,0.861503
1629808517873,-0.455182,-0.251076,0.862906
1629808517882,-0.455914,-0.255956,0.865224
1629808517892,-0.459574,-0.257237,0.864858
1629808517901,-0.459208,-0.258884,0.862784
1629808517911,-0.45688999999999996,-0.25668799999999997,0.8620519999999999
1629808517921,-0.454572,-0.254004,0.863699
1629808517930,-0.45261999999999997,-0.252113,0.864248
1629808517940,-0.450851,-0.24942899999999998,0.865224
1629808517949,-0.449021,-0.249185,0.864736
1629808517959,-0.448533,-0.248941,0.863455
1629808517969,-0.447252,-0.246867,0.861198
1629808517978,-0.445056,-0.24583,0.858941
1629808517988,-0.444873,-0.24418299999999998,0.858209
1629808517997,-0.445056,-0.245525,0.858331
1629808518007,-0.446093,-0.246989,0.85888
1629808518017,-0.447984,-0.24973399999999998,0.85888
1629808518026,-0.449631,-0.251198,0.8590019999999999
1629808518036,-0.449997,-0.251259,0.8601
1629808518045,-0.452559,-0.251991,0.8608319999999999
1629808518055,-0.452437,-0.250771,0.863333
1629808518065,-0.45292499999999997,-0.249612,0.864065
1629808518074,-0.450119,-0.2501,0.863089
1629808518084,-0.447374,-0.247843,0.857721
1629808518093,-0.448167,-0.24631799999999998,0.856196
1629808518103,-0.448594,-0.24644,0.8571719999999999
1629808518113,-0.451339,-0.246989,0.856196
1629808518122,-0.451583,-0.248758,0.855708
1629808518132,-0.452803,-0.251503,0.856928
1629808518141,-0.452986,-0.254126,0.858758
1629808518151,-0.453779,-0.253882,0.8601
1629808518161,-0.454084,-0.252906,0.860283
1629808518170,-0.45475499999999996,-0.250588,0.861015
1629808518180,-0.454816,-0.249246,0.86193
1629808518189,-0.453596,-0.247965,0.8614419999999999
1629808518199,-0.452742,-0.249368,0.861808
1629808518209,-0.453047,-0.249612,0.860771
1629808518218,-0.451461,-0.249246,0.861564
1629808518228,-0.45200999999999997,-0.248636,0.862296
1629808518237,-0.451461,-0.248636,0.8626619999999999
1629808518247,-0.450546,-0.24912399999999998,0.863394
1629808518257,-0.450729,-0.249307,0.8638819999999999
1629808518266,-0.450302,-0.24942899999999998,0.863516
1629808518276,-0.450546,-0.24888,0.862723
1629808518285,-0.450607,-0.248331,0.861625
1629808518295,-0.450851,-0.248758,0.861259
1629808518305,-0.451034,-0.248026,0.860649
1629808518314,-0.451583,-0.249002,0.861564
1629808518324,-0.451278,-0.248453,0.861503
1629808518333,-0.452498,-0.248758,0.861076
1629808518343,-0.453169,-0.250222,0.862784
1629808518353,-0.453779,-0.249307,0.863089
1629808518362,-0.453413,-0.249612,0.863516
1629808518372,-0.45414499999999997,-0.249612,0.862479
1629808518381,-0.453962,-0.250039,0.861076
1629808518391,-0.452193,-0.249185,0.858575
1629808518401,-0.453718,-0.251747,0.856379
1629808518410,-0.453108,-0.25132,0.854366
1629808518420,-0.452498,-0.249673,0.854549
1629808518429,-0.453047,-0.249612,0.8559519999999999
1629808518439,-0.453901,-0.249185,0.85583
1629808518449,-0.453596,-0.24888,0.857416
1629808518458,-0.452803,-0.246379,0.8571719999999999
1629808518468,-0.45322999999999997,-0.24570799999999998,0.857965
1629808518477,-0.45444999999999997,-0.24729399999999999,0.859795
1629808518487,-0.45536499999999996,-0.24949,0.861198
1629808518497,-0.453596,-0.251076,0.8614419999999999
1629808518506,-0.453962,-0.251442,0.859978
1629808518516,-0.454206,-0.252601,0.858758
1629808518525,-0.454206,-0.251259,0.8577819999999999
1629808518535,-0.452742,-0.250832,0.855525
1629808518545,-0.453779,-0.250405,0.854
1629808518554,-0.45383999999999997,-0.248087,0.851926
1629808518564,-0.45322999999999997,-0.24881899999999998,0.853939
1629808518573,-0.45475499999999996,-0.249063,0.859429
1629808518583,-0.454328,-0.24759899999999999,0.860283
1629808518593,-0.454206,-0.245769,0.8577819999999999
1629808518602,-0.454694,-0.246196,0.8593069999999999
1629808518612,-0.456158,-0.246379,0.86193
1629808518621,-0.456524,-0.244671,0.862601
1629808518631,-0.455853,-0.247782,0.865285
1629808518641,-0.458171,-0.253516,0.867725
1629808518650,-0.458781,-0.254248,0.865712
1629808518660,-0.458232,-0.250283,0.861869
1629808518669,-0.454023,-0.24851399999999998,0.8586969999999999
1629808518679,-0.451156,-0.24912399999999998,0.8583919999999999
1629808518689,-0.448777,-0.248331,0.859368
1629808518698,-0.44773999999999997,-0.249185,0.8602219999999999
1629808518708,-0.446154,-0.251442,0.860893
1629808518717,-0.4453,-0.252723,0.861503
1629808518727,-0.445849,-0.249246,0.860161
1629808518737,-0.4453,-0.246135,0.8601
1629808518746,-0.444934,-0.24296299999999998,0.8590019999999999
1629808518756,-0.444324,-0.24046199999999998,0.858819
1629808518765,-0.44426299999999996,-0.23863199999999998,0.8602219999999999
1629808518775,-0.444629,-0.23912,0.861991
1629808518785,-0.44712999999999997,-0.241133,0.864675
1629808518794,-0.449021,-0.243512,0.866993
1629808518804,-0.451034,-0.244732,0.867908
1629808518813,-0.45322999999999997,-0.24583,0.867786
1629808518823,-0.453291,-0.246196,0.867176
1629808518833,-0.451888,-0.246379,0.865163
1629808518842,-0.450546,-0.244244,0.85888
1629808518852,-0.450302,-0.24509799999999998,0.857416
1629808518861,-0.451583,-0.244854,0.8586969999999999
1629808518871,-0.45200999999999997,-0.240889,0.85644
1629808518881,-0.452071,-0.24418299999999998,0.859124
1629808518890,-0.452681,-0.247965,0.8626619999999999
1629808518900,-0.452803,-0.24881899999999998,0.86559
1629808518909,-0.452986,-0.247965,0.865895
1629808518919,-0.453718,-0.246806,0.864431
1629808518929,-0.452864,-0.245342,0.863699
1629808518938,-0.452803,-0.244427,0.86193
1629808518948,-0.453413,-0.246257,0.860649
1629808518957,-0.452742,-0.246074,0.85949
1629808518967,-0.452742,-0.246806,0.861076
1629808518977,-0.450912,-0.24759899999999999,0.86254
1629808518986,-0.45109499999999997,-0.24631799999999998,0.862601
1629808518996,-0.451888,-0.247721,0.864431
1629808519005,-0.45200999999999997,-0.246867,0.865224
1629808519015,-0.451156,-0.24766,0.865346
1629808519025,-0.452681,-0.247965,0.864553
1629808519034,-0.452986,-0.249185,0.866017
1629808519044,-0.45200999999999997,-0.249612,0.865285
1629808519053,-0.45078999999999997,-0.249002,0.863821
1629808519063,-0.45017999999999997,-0.24766,0.863394
1629808519073,-0.449753,-0.247843,0.862296
1629808519082,-0.449753,-0.248758,0.862845
1629808519092,-0.448594,-0.248636,0.862906
1629808519101,-0.45017999999999997,-0.24942899999999998,0.8638819999999999
1629808519111,-0.449021,-0.250222,0.864675
1629808519121,-0.447008,-0.24912399999999998,0.8638819999999999
1629808519130,-0.447008,-0.24881899999999998,0.8632719999999999
1629808519140,-0.446764,-0.247782,0.861564
1629808519149,-0.445483,-0.247538,0.85949
1629808519159,-0.446215,-0.24705,0.859429
1629808519169,-0.446459,-0.247538,0.85888
1629808519178,-0.446276,-0.24949,0.860466
1629808519188,-0.447557,-0.249246,0.8611369999999999
1629808519197,-0.445361,-0.249185,0.861259
1629808519207,-0.446459,-0.249978,0.8611369999999999
1629808519217,-0.44652,-0.248758,0.860649
1629808519226,-0.446032,-0.247782,0.859124
1629808519236,-0.446154,-0.247477,0.8596119999999999
1629808519245,-0.448777,-0.249185,0.861686
1629808519255,-0.449143,-0.249307,0.862601
1629808519265,-0.44987499999999997,-0.24759899999999999,0.863943
1629808519274,-0.447984,-0.246928,0.862174
1629808519284,-0.448411,-0.246196,0.862235
1629808519293,-0.449143,-0.24662299999999998,0.863699
1629808519303,-0.44895999999999997,-0.24942899999999998,0.8629669999999999
1629808519313,-0.448716,-0.249551,0.8620519999999999
1629808519322,-0.448472,-0.249185,0.8638819999999999
1629808519332,-0.448899,-0.249307,0.864553
1629808519341,-0.447496,-0.24888,0.864431
1629808519351,-0.448777,-0.248148,0.86437
1629808519361,-0.447801,-0.249917,0.863211
1629808519370,-0.44773999999999997,-0.249002,0.861503
1629808519380,-0.44712999999999997,-0.248026,0.86193
1629808519389,-0.44682499999999997,-0.248636,0.862723
1629808519399,-0.446093,-0.250527,0.863211
1629808519409,-0.444873,-0.250771,0.86315
1629808519418,-0.442677,-0.24662299999999998,0.85644
1629808519428,-0.443714,-0.24339,0.855403
1629808519437,-0.448533,-0.24326799999999998,0.8611369999999999
1629808519447,-0.450119,-0.244854,0.865224
1629808519457,-0.449448,-0.250222,0.870104
1629808519466,-0.451522,-0.256932,0.875899
1629808519476,-0.451522,-0.256444,0.874313
1629808519485,-0.450668,-0.252479,0.868274
1629808519495,-0.450058,-0.249002,0.862296
1629808519505,-0.448228,-0.24851399999999998,0.8608319999999999
1629808519514,-0.448899,-0.248087,0.859978
1629808519524,-0.448594,-0.249917,0.860039
1629808519533,-0.446398,-0.253028,0.861686
1629808519543,-0.447374,-0.255102,0.863516
1629808519553,-0.44652,-0.252845,0.863394
1629808519562,-0.445666,-0.24888,0.861991
1629808519572,-0.443897,-0.246379,0.8602219999999999
1629808519581,-0.443592,-0.24583,0.859795
1629808519591,-0.44347,-0.244976,0.85949
1629808519601,-0.444141,-0.246806,0.861076
1629808519610,-0.445178,-0.24851399999999998,0.863516
1629808519620,-0.445056,-0.24881899999999998,0.863699
1629808519629,-0.445849,-0.249002,0.863699
1629808519639,-0.446154,-0.24851399999999998,0.863516
1629808519649,-0.446093,-0.248331,0.864126
1629808519658,-0.444202,-0.24570799999999998,0.860771
1629808519668,-0.44408,-0.242292,0.85644
1629808519677,-0.446337,-0.244122,0.858026
1629808519687,-0.448838,-0.244671,0.859063
1629808519697,-0.450912,-0.24790399999999999,0.859734
1629808519706,-0.450973,-0.253821,0.861869
1629808519716,-0.451034,-0.256627,0.86071
1629808519725,-0.452193,-0.25376,0.861625
1629808519735,-0.451766,-0.251198,0.859856
1629808519745,-0.45200999999999997,-0.249795,0.860283
1629808519754,-0.452742,-0.249978,0.8626619999999999
1629808519764,-0.451217,-0.250161,0.8623569999999999
1629808519773,-0.451522,-0.250466,0.861198
1629808519783,-0.451644,-0.2501,0.860893
1629808519793,-0.451461,-0.251381,0.860039
1629808519802,-0.451949,-0.252113,0.859978
1629808519812,-0.453474,-0.25254,0.860283
1629808519821,-0.453962,-0.250832,0.860771
1629808519831,-0.454084,-0.249978,0.861076
1629808519841,-0.454999,-0.249246,0.860344
1629808519850,-0.455609,-0.250832,0.862174
1629808519860,-0.455182,-0.251747,0.8623569999999999
1629808519869,-0.45383999999999997,-0.252479,0.861076
1629808519879,-0.452498,-0.252052,0.860344
1629808519889,-0.452193,-0.254187,0.8602219999999999
1629808519898,-0.451644,-0.255102,0.859368
1629808519908,-0.451888,-0.255529,0.858209
1629808519917,-0.451461,-0.254858,0.8583919999999999
1629808519927,-0.449204,-0.254614,0.8577819999999999
1629808519937,-0.448228,-0.252967,0.857721
1629808519946,-0.449204,-0.250649,0.856989
1629808519956,-0.450607,-0.252235,0.85644
1629808519965,-0.451583,-0.253821,0.855769
1629808519975,-0.451034,-0.254797,0.85583
1629808519985,-0.452132,-0.255224,0.855281
1629808519994,-0.453169,-0.255163,0.856379
1629808520004,-0.453047,-0.255224,0.856745
1629808520013,-0.452254,-0.254431,0.855525
1629808520023,-0.451888,-0.254919,0.855403
1629808520033,-0.45200999999999997,-0.254919,0.853939
1629808520042,-0.452986,-0.255529,0.854671
1629808520052,-0.45414499999999997,-0.257176,0.85705
1629808520061,-0.454938,-0.257847,0.858331
1629808520071,-0.453718,-0.257237,0.8583919999999999
1629808520081,-0.45383999999999997,-0.257115,0.8583919999999999
1629808520090,-0.455182,-0.25638299999999997,0.85766
1629808520100,-0.45383999999999997,-0.255224,0.85705
1629808520109,-0.452559,-0.255834,0.858636
1629808520119,-0.453169,-0.256322,0.861015
1629808520129,-0.453352,-0.254492,0.8623569999999999
1629808520138,-0.452803,-0.254065,0.862235
1629808520148,-0.452132,-0.254797,0.8608319999999999
1629808520157,-0.453718,-0.255773,0.85949
1629808520167,-0.45292499999999997,-0.255346,0.858331
1629808520177,-0.453291,-0.255712,0.856501
1629808520186,-0.454206,-0.25821299999999997,0.857111
1629808520196,-0.451888,-0.25790799999999997,0.853451
1629808520205,-0.451461,-0.256322,0.8525969999999999
1629808520215,-0.44926499999999997,-0.251503,0.848571
1629808520225,-0.450851,-0.248758,0.848815
1629808520234,-0.45414499999999997,-0.25437,0.855159
1629808520244,-0.457073,-0.261812,0.859978
1629808520253,-0.458415,-0.26718,0.862906
1629808520263,-0.45566999999999996,-0.266875,0.862723
1629808520273,-0.45627999999999996,-0.262361,0.864553
1629808520282,-0.454633,-0.257115,0.862479
1629808520292,-0.453047,-0.256017,0.857965
1629808520301,-0.450546,-0.255285,0.858148
1629808520311,-0.447618,-0.253577,0.8596119999999999
1629808520321,-0.444995,-0.252479,0.8620519999999999
1629808520330,-0.44286,-0.252174,0.863089
1629808520340,-0.440847,-0.252357,0.8623569999999999
1629808520349,-0.440359,-0.251625,0.862845
1629808520359,-0.440786,-0.249978,0.863943
1629808520369,-0.440847,-0.248331,0.863333
1629808520378,-0.440786,-0.24888,0.862723
1629808520388,-0.441579,-0.250588,0.863638
1629808520397,-0.44164,-0.25132,0.862784
1629808520407,-0.442677,-0.253211,0.863516
1629808520417,-0.443592,-0.252418,0.86254
1629808520426,-0.44469,-0.251503,0.862479
1629808520436,-0.445788,-0.252601,0.8662
1629808520445,-0.44652,-0.253516,0.86803
1629808520455,-0.444751,-0.251076,0.864614
1629808520465,-0.445483,-0.248575,0.861564
1629808520474,-0.44865499999999997,-0.252357,0.86437
1629808520484,-0.449692,-0.251503,0.863516
1629808520493,-0.449204,-0.253333,0.86437
1629808520503,-0.448106,-0.257664,0.86559
1629808520513,-0.44712999999999997,-0.258335,0.864675
1629808520522,-0.445544,-0.254553,0.860588
1629808520532,-0.445727,-0.251442,0.8593069999999999
1629808520541,-0.445971,-0.248026,0.858148
1629808520551,-0.445544,-0.247965,0.8583919999999999
1629808520561,-0.44682499999999997,-0.249978,0.860588
1629808520570,-0.447862,-0.251137,0.859795
1629808520580,-0.448411,-0.251442,0.861076
1629808520589,-0.448533,-0.252906,0.8617469999999999
1629808520599,-0.44956999999999997,-0.25376,0.864126
1629808520609,-0.448899,-0.254614,0.864065
1629808520618,-0.449631,-0.253821,0.863394
1629808520628,-0.450119,-0.253943,0.8620519999999999
1629808520637,-0.450912,-0.253882,0.862296
1629808520647,-0.449326,-0.253821,0.860588
1629808520657,-0.448899,-0.253882,0.859246
1629808520666,-0.447862,-0.254553,0.8583919999999999
1629808520676,-0.446886,-0.254492,0.8590019999999999
1629808520685,-0.447008,-0.25699299999999997,0.861198
1629808520695,-0.446703,-0.257481,0.86071
1629808520705,-0.447496,-0.258335,0.8614419999999999
1629808520714,-0.448777,-0.257054,0.860649
1629808520724,-0.448838,-0.256627,0.859734
1629808520733,-0.448838,-0.256749,0.859978
1629808520743,-0.447923,-0.256505,0.860405
1629808520753,-0.447008,-0.256505,0.859063
1629808520762,-0.445971,-0.25559,0.859429
1629808520772,-0.445788,-0.255102,0.8596119999999999
1629808520781,-0.446642,-0.255468,0.860954
1629808520791,-0.446093,-0.255224,0.861503
1629808520801,-0.446032,-0.255834,0.862723
1629808520810,-0.447069,-0.255712,0.864248
1629808520820,-0.44652,-0.254675,0.863516
1629808520829,-0.447008,-0.253577,0.863028
1629808520839,-0.447252,-0.253455,0.863516
1629808520849,-0.448411,-0.254614,0.864614
1629808520858,-0.449082,-0.253272,0.863516
1629808520868,-0.448472,-0.250954,0.863394
1629808520877,-0.450424,-0.25132,0.862296
1629808520887,-0.449936,-0.252235,0.861686
1629808520897,-0.44895999999999997,-0.253089,0.860893
1629808520906,-0.447862,-0.252113,0.861686
1629808520916,-0.448289,-0.252235,0.8620519999999999
1629808520925,-0.44804499999999997,-0.252296,0.862235
1629808520935,-0.447984,-0.253821,0.8632719999999999
1629808520945,-0.447862,-0.254248,0.8626619999999999
1629808520954,-0.447618,-0.253516,0.8601
1629808520964,-0.447252,-0.253089,0.858209
1629808520973,-0.44834999999999997,-0.253577,0.8580869999999999
1629808520983,-0.449753,-0.253394,0.8577819999999999
1629808520993,-0.450668,-0.253333,0.8596119999999999
1629808521002,-0.45017999999999997,-0.25437,0.859673
1629808521012,-0.44804499999999997,-0.252357,0.855891
1629808521021,-0.447862,-0.250771,0.854
1629808521031,-0.449387,-0.255041,0.858941
1629808521041,-0.44956999999999997,-0.253028,0.858514
1629808521050,-0.44834999999999997,-0.25376,0.8577819999999999
1629808521060,-0.447313,-0.255102,0.85705
1629808521069,-0.44865499999999997,-0.252601,0.8559519999999999
1629808521079,-0.449936,-0.25315,0.856013
1629808521089,-0.450912,-0.254492,0.854061
1629808521098,-0.453169,-0.25638299999999997,0.856379
1629808521108,-0.453413,-0.257237,0.8583919999999999
1629808521117,-0.453779,-0.258762,0.859734
1629808521127,-0.453962,-0.26047,0.8611369999999999
1629808521137,-0.454877,-0.261812,0.86193
1629808521146,-0.45475499999999996,-0.261324,0.861381
1629808521156,-0.451522,-0.259921,0.858514
1629808521165,-0.449387,-0.254614,0.856684
1629808521175,-0.44773999999999997,-0.250893,0.856745
1629808521185,-0.445361,-0.24851399999999998,0.8571719999999999
1629808521194,-0.446642,-0.248636,0.86132
1629808521204,-0.447862,-0.249551,0.867542
1629808521213,-0.447618,-0.249063,0.8717509999999999
1629808521223,-0.448228,-0.248575,0.87291
1629808521233,-0.449143,-0.249612,0.873947
1629808521242,-0.44804499999999997,-0.24759899999999999,0.873032
1629808521252,-0.446398,-0.247416,0.872544
1629808521261,-0.444141,-0.246562,0.868152
1629808521271,-0.443287,-0.24326799999999998,0.862113
1629808521281,-0.44395799999999996,-0.24296299999999998,0.8601
1629808521290,-0.445544,-0.24479299999999998,0.8602219999999999
1629808521300,-0.447252,-0.24387799999999998,0.8590019999999999
1629808521309,-0.44712999999999997,-0.247965,0.860649
1629808521319,-0.447496,-0.251747,0.8641869999999999
1629808521329,-0.450058,-0.24973399999999998,0.8644919999999999
1629808521338,-0.450302,-0.24583,0.864126
1629808521348,-0.448899,-0.24278,0.863333
1629808521357,-0.448289,-0.241133,0.861869
1629808521367,-0.447618,-0.24156,0.8601
1629808521377,-0.449753,-0.242597,0.8608319999999999
1629808521386,-0.44956999999999997,-0.242292,0.8614419999999999
1629808521396,-0.44895999999999997,-0.243512,0.859795
1629808521405,-0.452132,-0.246928,0.860954
1629808521415,-0.453352,-0.250527,0.8632719999999999
1629808521425,-0.45383999999999997,-0.253638,0.863821
1629808521434,-0.45383999999999997,-0.252723,0.863211
1629808521444,-0.452742,-0.251015,0.861808
1629808521453,-0.45017999999999997,-0.24827,0.86071
1629808521463,-0.449204,-0.246501,0.860405
1629808521473,-0.449692,-0.244427,0.862174
1629808521482,-0.447374,-0.244061,0.861015
1629808521492,-0.447496,-0.242292,0.862845
1629808521501,-0.448289,-0.241499,0.865285
1629808521511,-0.448106,-0.242414,0.8662
1629808521521,-0.447984,-0.242841,0.867054
1629808521530,-0.44834999999999997,-0.241926,0.867603
1629808521540,-0.448167,-0.24217,0.86742
1629808521549,-0.448289,-0.244305,0.86742
1629808521559,-0.448167,-0.244976,0.866688
1629808521569,-0.447801,-0.24387799999999998,0.864858
1629808521578,-0.447374,-0.244549,0.863943
1629808521588,-0.44773999999999997,-0.24326799999999998,0.863089
1629808521597,-0.448228,-0.243634,0.862845
1629808521607,-0.449448,-0.243207,0.862418
1629808521617,-0.450424,-0.243085,0.862845
1629808521626,-0.450912,-0.243085,0.8638819999999999
1629808521636,-0.450912,-0.244366,0.86315
1629808521645,-0.452193,-0.244915,0.86193
1629808521655,-0.45261999999999997,-0.244244,0.8611369999999999
1629808521665,-0.452986,-0.242902,0.859978
1629808521674,-0.454328,-0.245037,0.8605269999999999
1629808521684,-0.454389,-0.244915,0.860771
1629808521693,-0.455853,-0.245586,0.8601
1629808521703,-0.455243,-0.246379,0.859246
1629808521713,-0.455487,-0.246928,0.858453
1629808521722,-0.457256,-0.247843,0.857843
1629808521732,-0.457866,-0.249002,0.856989
1629808521741,-0.457988,-0.249185,0.856074
1629808521751,-0.457683,-0.249551,0.856928
1629808521761,-0.457012,-0.250588,0.857294
1629808521770,-0.457561,-0.250954,0.857416
1629808521780,-0.457988,-0.251686,0.85766
1629808521789,-0.457256,-0.251015,0.858514
1629808521799,-0.457805,-0.250039,0.856501
1629808521809,-0.458476,-0.249978,0.855891
1629808521818,-0.457927,-0.24942899999999998,0.854671
1629808521828,-0.459391,-0.250039,0.855891
1629808521837,-0.45994,-0.251869,0.857599
1629808521847,-0.45811,-0.252113,0.856013
1629808521857,-0.457622,-0.250283,0.852658
1629808521866,-0.458415,-0.248941,0.8529019999999999
1629808521876,-0.459086,-0.247965,0.854976
1629808521885,-0.459391,-0.248331,0.855159
1629808521895,-0.459086,-0.252906,0.858331
1629808521905,-0.461648,-0.258701,0.8626619999999999
1629808521914,-0.46238,-0.260531,0.862174
1629808521924,-0.461343,-0.25912799999999997,0.858941
1629808521933,-0.460123,-0.255346,0.854915
1629808521943,-0.458232,-0.253394,0.8532069999999999
1629808521953,-0.45658499999999996,-0.252845,0.852841
1629808521962,-0.455304,-0.251076,0.854976
1629808521972,-0.453474,-0.2501,0.855586
1629808521981,-0.454206,-0.250527,0.858758
1629808521991,-0.454633,-0.252418,0.8614419999999999
1629808522001,-0.452681,-0.252662,0.860954
1629808522010,-0.45383999999999997,-0.251564,0.86071
1629808522020,-0.452071,-0.24790399999999999,0.859368
1629808522029,-0.45078999999999997,-0.245586,0.85766
1629808522039,-0.450912,-0.247477,0.8574769999999999
1629808522049,-0.45109499999999997,-0.24827,0.857294
1629808522058,-0.45261999999999997,-0.249307,0.857843
1629808522068,-0.45444999999999997,-0.250283,0.858575
1629808522077,-0.454938,-0.249917,0.858331
1629808522087,-0.455914,-0.249612,0.859673
1629808522097,-0.454938,-0.249307,0.860466
1629808522106,-0.455548,-0.248453,0.856928
1629808522116,-0.45627999999999996,-0.24729399999999999,0.854244
1629808522125,-0.459025,-0.25071,0.854915
1629808522135,-0.459696,-0.251198,0.854366
1629808522145,-0.460916,-0.251808,0.8522919999999999
1629808522154,-0.462441,-0.25437,0.8541219999999999
1629808522164,-0.462014,-0.256078,0.855586
1629808522173,-0.46128199999999997,-0.255712,0.855525
1629808522183,-0.46177,-0.253638,0.8541219999999999
1629808522193,-0.461709,-0.250893,0.852719
1629808522202,-0.46128199999999997,-0.250588,0.851133
1629808522212,-0.46189199999999997,-0.252418,0.851621
1629808522221,-0.460611,-0.253577,0.8510719999999999
1629808522231,-0.461099,-0.254919,0.852841
1629808522241,-0.460245,-0.257176,0.853634
1629808522250,-0.460855,-0.257542,0.854244
1629808522260,-0.460733,-0.257054,0.855403
1629808522269,-0.460489,-0.255224,0.8559519999999999
1629808522279,-0.45933,-0.254736,0.856501
1629808522289,-0.45872,-0.253699,0.857599
1629808522298,-0.458354,-0.253211,0.857904
1629808522308,-0.456097,-0.253333,0.8586969999999999
1629808522317,-0.455487,-0.254004,0.8571719999999999
1629808522327,-0.454694,-0.253272,0.8562569999999999
1629808522337,-0.454877,-0.254187,0.8556469999999999
1629808522346,-0.454206,-0.253821,0.855525
1629808522356,-0.45444999999999997,-0.254858,0.855403
1629808522365,-0.455182,-0.256932,0.85705
1629808522375,-0.455182,-0.25742,0.857294
1629808522385,-0.454633,-0.256749,0.857355
1629808522394,-0.454572,-0.256932,0.857721
1629808522404,-0.454633,-0.257176,0.857355
1629808522413,-0.454023,-0.2562,0.8574769999999999
1629808522423,-0.452986,-0.254797,0.85644
1629808522433,-0.452254,-0.253821,0.856318
1629808522442,-0.452742,-0.253882,0.856928
1629808522452,-0.451766,-0.254004,0.856928
1629808522461,-0.453718,-0.254919,0.857416
1629808522471,-0.454389,-0.255712,0.857538
1629808522481,-0.45383999999999997,-0.254431,0.857233
1629808522490,-0.454633,-0.254248,0.856684
1629808522500,-0.455304,-0.254065,0.854915
1629808522509,-0.45505999999999996,-0.25437,0.855281
1629808522519,-0.45505999999999996,-0.253455,0.8565619999999999
1629808522529,-0.456219,-0.253943,0.860344
1629808522538,-0.456402,-0.25498,0.8614419999999999
1629808522548,-0.456158,-0.25437,0.86254
1629808522557,-0.45658499999999996,-0.255041,0.863394
1629808522567,-0.455426,-0.252662,0.863699
1629808522577,-0.454084,-0.251381,0.8617469999999999
1629808522586,-0.453901,-0.251686,0.860588
1629808522596,-0.453352,-0.25254,0.858758
1629808522605,-0.453474,-0.25437,0.858209
1629808522615,-0.45292499999999997,-0.255651,0.8577819999999999
1629808522625,-0.45383999999999997,-0.257054,0.858575
1629808522634,-0.453108,-0.256139,0.857538
1629808522644,-0.452071,-0.256017,0.856745
1629808522653,-0.452864,-0.255407,0.85644
1629808522663,-0.452376,-0.255529,0.85644
1629808522673,-0.452132,-0.255102,0.856928
1629808522682,-0.45078999999999997,-0.253638,0.856684
1629808522692,-0.449021,-0.254187,0.854183
1629808522701,-0.449692,-0.255346,0.851926
1629808522711,-0.453169,-0.254858,0.853573
1629808522721,-0.453901,-0.254248,0.8565619999999999
1629808522730,-0.455243,-0.255407,0.85644
1629808522740,-0.45536499999999996,-0.25986,0.8623569999999999
1629808522749,-0.456707,-0.263581,0.866566
1629808522759,-0.455609,-0.263154,0.864675
1629808522769,-0.454938,-0.258945,0.860893
1629808522778,-0.453047,-0.25638299999999997,0.857904
1629808522788,-0.450241,-0.254858,0.85766
1629808522797,-0.448594,-0.254736,0.85644
1629808522807,-0.448106,-0.256139,0.85766
1629808522817,-0.448167,-0.25864,0.860405
1629808522826,-0.447557,-0.258884,0.8620519999999999
1629808522836,-0.446032,-0.25925,0.861198
1629808522845,-0.445483,-0.256627,0.860344
1629808522855,-0.443592,-0.253272,0.858941
1629808522865,-0.44426299999999996,-0.251625,0.857599
1629808522874,-0.444141,-0.251503,0.858575
1629808522884,-0.4453,-0.251442,0.8590019999999999
1629808522893,-0.446276,-0.252479,0.860344
1629808522903,-0.447313,-0.253882,0.860588
1629808522913,-0.449692,-0.256505,0.861686
1629808522922,-0.45017999999999997,-0.257786,0.862906
1629808522932,-0.451644,-0.257176,0.863089
1629808522941,-0.449814,-0.254858,0.859856
1629808522951,-0.45017999999999997,-0.253455,0.855586
1629808522961,-0.451156,-0.254248,0.85522
1629808522970,-0.453291,-0.255102,0.856013
1629808522980,-0.453474,-0.255285,0.854366
1629808522989,-0.453169,-0.258579,0.857294
1629808522999,-0.452986,-0.260409,0.859368
1629808523009,-0.452681,-0.259311,0.8590019999999999
1629808523018,-0.452986,-0.258274,0.8568669999999999
1629808523028,-0.453596,-0.255773,0.856074
1629808523037,-0.453352,-0.253638,0.856196
1629808523047,-0.454328,-0.253211,0.857294
1629808523057,-0.454938,-0.255407,0.856684
1629808523066,-0.454328,-0.257176,0.857355
1629808523076,-0.454389,-0.260165,0.858758
1629808523085,-0.455243,-0.26034799999999997,0.860588
1629808523095,-0.453413,-0.260165,0.860649
1629808523105,-0.453718,-0.25803,0.859368
1629808523114,-0.452193,-0.25729799999999997,0.858453
1629808523124,-0.452376,-0.256261,0.859673
1629808523133,-0.452498,-0.254919,0.859795
1629808523143,-0.452254,-0.254858,0.8590019999999999
1629808523153,-0.453291,-0.255834,0.8596119999999999
1629808523162,-0.452376,-0.255346,0.859978
1629808523172,-0.452498,-0.255834,0.860344
1629808523181,-0.452498,-0.256871,0.8601
1629808523191,-0.452986,-0.25803,0.859673
1629808523201,-0.451888,-0.257786,0.8590019999999999
1629808523210,-0.451522,-0.257176,0.8574769999999999
1629808523220,-0.449997,-0.257054,0.857416
1629808523229,-0.450363,-0.256627,0.856806
1629808523239,-0.450546,-0.255468,0.8562569999999999
1629808523249,-0.44926499999999997,-0.254004,0.85705
1629808523258,-0.449936,-0.254736,0.856684
1629808523268,-0.449753,-0.255346,0.857538
1629808523277,-0.44956999999999997,-0.25498,0.8577819999999999
1629808523287,-0.450607,-0.255346,0.856013
1629808523297,-0.451156,-0.254492,0.85583
1629808523306,-0.452071,-0.253516,0.854488
1629808523316,-0.453291,-0.252906,0.85522
1629808523325,-0.455731,-0.254553,0.85644
1629808523335,-0.458354,-0.25668799999999997,0.856623
1629808523345,-0.457195,-0.259067,0.8562569999999999
1629808523354,-0.456707,-0.25925,0.855281
1629808523364,-0.4575,-0.259372,0.852719
1629808523373,-0.457073,-0.25882299999999997,0.8516819999999999
1629808523383,-0.457866,-0.258152,0.851621
1629808523393,-0.4575,-0.257542,0.853939
1629808523402,-0.457927,-0.255773,0.8553419999999999
1629808523412,-0.457927,-0.25559,0.855891
1629808523421,-0.458415,-0.256139,0.857294
1629808523431,-0.458293,-0.255956,0.855586
1629808523441,-0.459635,-0.254858,0.854183
1629808523450,-0.459513,-0.256566,0.8532069999999999
1629808523460,-0.46158699999999997,-0.2562,0.85278
1629808523469,-0.462136,-0.257786,0.85339
1629808523479,-0.460855,-0.257725,0.852414
1629808523489,-0.459879,-0.258274,0.852048
1629808523498,-0.45658499999999996,-0.252479,0.84668
1629808523508,-0.457439,-0.248941,0.844789
1629808523517,-0.462685,-0.25254,0.852109
1629808523527,-0.466223,-0.257359,0.856074
1629808523537,-0.466894,-0.262117,0.860466
1629808523546,-0.465918,-0.265228,0.86437
1629808523556,-0.465796,-0.264496,0.866139
1629808523565,-0.465003,-0.260409,0.8620519999999999
1629808523575,-0.463051,-0.256627,0.856745
1629808523585,-0.460794,-0.253394,0.853634
1629808523594,-0.459513,-0.25254,0.852536
1629808523604,-0.458171,-0.253089,0.8550369999999999
1629808523613,-0.456341,-0.253699,0.856989
1629808523623,-0.45566999999999996,-0.253638,0.8568669999999999
1629808523633,-0.454084,-0.255041,0.8571719999999999
1629808523642,-0.454694,-0.253333,0.85644
1629808523652,-0.452132,-0.250954,0.854671
1629808523661,-0.452986,-0.252113,0.855281
1629808523671,-0.454023,-0.252662,0.853268
1629808523681,-0.453779,-0.25376,0.852048
1629808523690,-0.454328,-0.255346,0.851011
1629808523700,-0.456219,-0.257054,0.853085
1629808523709,-0.457683,-0.257481,0.856135
1629808523719,-0.458354,-0.258701,0.8571719999999999
1629808523729,-0.457927,-0.25790799999999997,0.857355
1629808523738,-0.455853,-0.253943,0.852658
1629808523748,-0.45658499999999996,-0.251625,0.850401
1629808523757,-0.457866,-0.252784,0.852109
1629808523767,-0.458781,-0.253699,0.8525969999999999
1629808523777,-0.459208,-0.257054,0.851011
1629808523786,-0.458415,-0.260836,0.8525969999999999
1629808523796,-0.461221,-0.263459,0.854488
1629808523805,-0.462319,-0.262239,0.855098
1629808523815,-0.46177,-0.258091,0.853451
1629808523825,-0.461831,-0.256932,0.852414
1629808523834,-0.462075,-0.257115,0.8513769999999999
1629808523844,-0.462014,-0.256505,0.850584
1629808523853,-0.461709,-0.258335,0.8519869999999999
1629808523863,-0.46219699999999997,-0.258579,0.851804
1629808523873,-0.462075,-0.25986,0.852475
1629808523882,-0.462746,-0.259677,0.853695
1629808523892,-0.462075,-0.260836,0.855098
1629808523901,-0.46299,-0.25925,0.8529019999999999
1629808523911,-0.461831,-0.259006,0.853268
1629808523921,-0.462624,-0.258335,0.853024
1629808523930,-0.462685,-0.25821299999999997,0.8541219999999999
1629808523940,-0.46238,-0.25943299999999997,0.854488
1629808523949,-0.462136,-0.26034799999999997,0.853939
1629808523959,-0.46128199999999997,-0.259677,0.853756
1629808523969,-0.460733,-0.260226,0.8532069999999999
1629808523978,-0.461526,-0.259494,0.853939
1629808523988,-0.461465,-0.261385,0.853634
1629808523997,-0.46067199999999997,-0.26169,0.853634
1629808524007,-0.460428,-0.26187299999999997,0.852719
1629808524017,-0.460306,-0.261202,0.852841
1629808524026,-0.458476,-0.259982,0.850279
1629808524036,-0.45872,-0.259799,0.8495469999999999
1629808524045,-0.45933,-0.261019,0.84851
1629808524055,-0.457744,-0.26004299999999997,0.848815
1629808524065,-0.456463,-0.25925,0.849913
1629808524074,-0.456646,-0.25864,0.850706
1629808524084,-0.457439,-0.258396,0.851133
1629808524093,-0.457988,-0.25821299999999997,0.853085
1629808524103,-0.457195,-0.258701,0.852536
1629808524113,-0.456097,-0.25803,0.8522919999999999
1629808524122,-0.455914,-0.258274,0.8525969999999999
1629808524132,-0.45688999999999996,-0.256566,0.852963
1629808524141,-0.45658499999999996,-0.25437,0.8541219999999999
1629808524151,-0.456219,-0.253028,0.856013
1629808524161,-0.456036,-0.254614,0.857843
1629808524170,-0.456707,-0.254675,0.860344
1629808524180,-0.457317,-0.254492,0.860649
1629808524189,-0.458232,-0.254187,0.858636
1629808524199,-0.45872,-0.256139,0.857294
1629808524209,-0.458171,-0.256932,0.857416
1629808524218,-0.459879,-0.25699299999999997,0.856196
1629808524228,-0.46189199999999997,-0.256871,0.856928
1629808524237,-0.460916,-0.25742,0.855891
1629808524247,-0.45872,-0.256139,0.854671
1629808524257,-0.456036,-0.254126,0.851011
1629808524266,-0.456463,-0.248697,0.8480219999999999
1629808524276,-0.459696,-0.251442,0.850828
1629808524285,-0.462685,-0.255712,0.855464
1629808524295,-0.463478,-0.262056,0.8577819999999999
1629808524305,-0.463234,-0.265289,0.861015
1629808524314,-0.462319,-0.263764,0.8635769999999999
1629808524324,-0.462441,-0.259006,0.862845
1629808524333,-0.461221,-0.255346,0.858514
1629808524343,-0.458598,-0.252113,0.855098
1629808524353,-0.45688999999999996,-0.254614,0.852719
1629808524362,-0.455304,-0.254675,0.8538169999999999
1629808524372,-0.455487,-0.252906,0.8550369999999999
1629808524381,-0.453779,-0.253882,0.856135
1629808524391,-0.454267,-0.254736,0.85705
1629808524401,-0.454633,-0.254614,0.856989
1629808524410,-0.453718,-0.25254,0.856074
1629808524420,-0.452864,-0.250954,0.853756
1629808524429,-0.452254,-0.251564,0.853085
1629808524439,-0.452742,-0.253211,0.853451
1629808524449,-0.454694,-0.254248,0.855464
1629808524458,-0.455609,-0.255102,0.855769
1629808524468,-0.455487,-0.254248,0.8553419999999999
1629808524477,-0.456158,-0.254126,0.856745
1629808524487,-0.45811,-0.256749,0.85766
1629808524497,-0.456524,-0.257237,0.858941
1629808524506,-0.454206,-0.255468,0.85644
1629808524516,-0.452986,-0.249917,0.853573
1629808524525,-0.453962,-0.250954,0.853329
1629808524535,-0.456707,-0.251442,0.854854
1629808524545,-0.458659,-0.253089,0.85583
1629808524554,-0.458049,-0.259006,0.858026
1629808524564,-0.457988,-0.262971,0.858941
1629808524573,-0.459086,-0.26187299999999997,0.8559519999999999
1629808524583,-0.459818,-0.259799,0.85339
1629808524593,-0.458964,-0.255285,0.852475
1629808524602,-0.457866,-0.252113,0.853695
1629808524612,-0.458049,-0.252784,0.855159
1629808524621,-0.45811,-0.25315,0.856928
1629808524631,-0.458293,-0.253028,0.858331
1629808524641,-0.457927,-0.254614,0.861015
1629808524650,-0.459574,-0.256932,0.862174
1629808524660,-0.45945199999999997,-0.258396,0.86254
1629808524669,-0.459818,-0.257725,0.862418
1629808524679,-0.45994,-0.25803,0.85949
1629808524689,-0.458781,-0.256871,0.857965
1629808524698,-0.457744,-0.255468,0.85705
1629808524708,-0.45627999999999996,-0.25638299999999997,0.856623
1629808524717,-0.456097,-0.257542,0.856806
1629808524727,-0.456768,-0.25821299999999997,0.857355
1629808524737,-0.456829,-0.25864,0.856135
1629808524746,-0.456768,-0.258152,0.8556469999999999
1629808524756,-0.456646,-0.259067,0.855769
1629808524765,-0.457317,-0.259677,0.856135
1629808524775,-0.456097,-0.260226,0.856196
1629808524785,-0.454328,-0.25912799999999997,0.8550369999999999
1629808524794,-0.453291,-0.257542,0.853878
1629808524804,-0.45353499999999997,-0.257176,0.854671
1629808524813,-0.453474,-0.257542,0.8550369999999999
1629808524823,-0.45292499999999997,-0.257847,0.854
1629808524833,-0.453413,-0.257847,0.8547319999999999
1629808524842,-0.452071,-0.257176,0.853634
1629808524852,-0.452986,-0.25559,0.852048
1629808524861,-0.453718,-0.25559,0.852353
1629808524871,-0.453718,-0.255956,0.852536
1629808524881,-0.454572,-0.25668799999999997,0.852719
1629808524890,-0.455853,-0.25882299999999997,0.8547319999999999
1629808524900,-0.456951,-0.25729799999999997,0.853878
1629808524909,-0.457683,-0.261019,0.852841
1629808524919,-0.456707,-0.260897,0.853756
1629808524929,-0.456463,-0.259677,0.852536
1629808524938,-0.457134,-0.260226,0.85278
1629808524948,-0.457683,-0.260714,0.854061
1629808524957,-0.458598,-0.260897,0.855464
1629808524967,-0.458598,-0.260165,0.856684
1629808524977,-0.459086,-0.261019,0.856074
1629808524986,-0.459574,-0.259799,0.854183
1629808524996,-0.459208,-0.25986,0.85339
1629808525005,-0.45994,-0.261385,0.85522
1629808525015,-0.458964,-0.262422,0.856135
1629808525025,-0.457012,-0.258274,0.8538169999999999
1629808525034,-0.455792,-0.253943,0.850218
1629808525044,-0.457256,-0.251991,0.84973
1629808525053,-0.46067199999999997,-0.254919,0.854793
1629808525063,-0.462868,-0.257847,0.8568669999999999
1629808525073,-0.46158699999999997,-0.262422,0.857843
1629808525082,-0.463051,-0.267973,0.861259
1629808525092,-0.464088,-0.26900999999999997,0.860588
1629808525101,-0.46482,-0.266692,0.856623
1629808525111,-0.462319,-0.262544,0.851743
1629808525121,-0.460184,-0.262788,0.8507669999999999
1629808525130,-0.457439,-0.262666,0.851438
1629808525140,-0.457256,-0.261141,0.852414
1629808525149,-0.455914,-0.261812,0.8529019999999999
1629808525159,-0.453657,-0.262178,0.853329
1629808525169,-0.45383999999999997,-0.261751,0.8538169999999999
1629808525178,-0.453169,-0.25882299999999997,0.851316
1629808525188,-0.451644,-0.25790799999999997,0.850889
1629808525197,-0.451217,-0.25790799999999997,0.850828
1629808525207,-0.45200999999999997,-0.25803,0.8519869999999999
1629808525217,-0.453413,-0.25699299999999997,0.8532069999999999
1629808525226,-0.454084,-0.256139,0.854671
1629808525236,-0.454999,-0.257237,0.856196
1629808525245,-0.456646,-0.25803,0.8571719999999999
1629808525255,-0.456036,-0.257359,0.855464
1629808525265,-0.456097,-0.25681,0.855586
1629808525274,-0.458354,-0.258762,0.856684
1629808525284,-0.45945199999999997,-0.259372,0.856013
1629808525293,-0.458476,-0.257115,0.852963
1629808525303,-0.458476,-0.256261,0.849913
1629808525313,-0.460001,-0.258884,0.849486
1629808525322,-0.46055,-0.256627,0.847046
1629808525332,-0.46250199999999997,-0.259311,0.845887
1629808525341,-0.463234,-0.263093,0.8498519999999999
1629808525351,-0.4636,-0.263886,0.852048
1629808525361,-0.463905,-0.263032,0.851255
1629808525370,-0.46402699999999997,-0.261446,0.850096
1629808525380,-0.464698,-0.26034799999999997,0.850035
1629808525389,-0.465491,-0.260226,0.851133
1629808525399,-0.466284,-0.260226,0.850828
1629808525409,-0.46616199999999997,-0.261324,0.850523
1629808525418,-0.46677199999999996,-0.262971,0.851743
1629808525428,-0.466528,-0.264008,0.851316
1629808525437,-0.46585699999999997,-0.263642,0.850401
1629808525447,-0.465613,-0.263032,0.851621
1629808525457,-0.465125,-0.26352,0.852475
1629808525466,-0.465186,-0.262727,0.852353
1629808525476,-0.46433199999999997,-0.26291,0.85278
1629808525485,-0.462014,-0.262605,0.852719
1629808525495,-0.462075,-0.261324,0.85095
1629808525505,-0.460733,-0.25864,0.849974
1629808525514,-0.46067199999999997,-0.25912799999999997,0.849913
1629808525524,-0.45994,-0.260531,0.8492419999999999
1629808525533,-0.461709,-0.262544,0.85095
1629808525543,-0.462319,-0.26291,0.8522919999999999
1629808525553,-0.461648,-0.262056,0.852719
1629808525562,-0.461709,-0.261202,0.852048
1629808525572,-0.460855,-0.261385,0.852536
1629808525581,-0.462563,-0.261202,0.851804
1629808525591,-0.462746,-0.26034799999999997,0.851316
1629808525601,-0.46128199999999997,-0.259494,0.850279
1629808525610,-0.462563,-0.259311,0.847473
1629808525620,-0.461526,-0.25986,0.84851
1629808525629,-0.46219699999999997,-0.25851799999999997,0.847778
1629808525639,-0.463234,-0.258762,0.84729
1629808525649,-0.46250199999999997,-0.25912799999999997,0.848571
1629808525658,-0.464454,-0.259067,0.8489369999999999
1629808525668,-0.463173,-0.25925,0.8480219999999999
1629808525677,-0.46482,-0.260836,0.8489369999999999
1629808525687,-0.465491,-0.261812,0.849059
1629808525697,-0.464698,-0.261751,0.849303
1629808525706,-0.464698,-0.259067,0.848266
1629808525716,-0.464576,-0.25864,0.848876
1629808525725,-0.463295,-0.257664,0.84912
1629808525735,-0.464759,-0.25943299999999997,0.851621
1629808525745,-0.465369,-0.260775,0.852536
1629808525754,-0.466223,-0.26169,0.853451
1629808525764,-0.46604,-0.26065299999999997,0.852658
1629808525773,-0.463844,-0.25912799999999997,0.851255
1629808525783,-0.463661,-0.257969,0.851438
1629808525793,-0.46402699999999997,-0.258335,0.851255
1629808525802,-0.46421,-0.25742,0.851255
1629808525812,-0.46463699999999997,-0.25681,0.854
1629808525821,-0.464271,-0.255102,0.8535119999999999
1629808525831,-0.46341699999999997,-0.253821,0.851133
1629808525841,-0.463783,-0.254919,0.852109
1629808525850,-0.465125,-0.253455,0.853695
1629808525860,-0.46463699999999997,-0.254065,0.854366
1629808525869,-0.465735,-0.258091,0.8571719999999999
1629808525879,-0.46616199999999997,-0.263764,0.859124
1629808525889,-0.467809,-0.266204,0.85766
1629808525898,-0.46860199999999996,-0.264069,0.853756
1629808525908,-0.46768699999999996,-0.262422,0.849974
1629808525917,-0.46524699999999997,-0.26095799999999997,0.849486
1629808525927,-0.46311199999999997,-0.26034799999999997,0.848144
1629808525937,-0.46128199999999997,-0.259616,0.850645
1629808525946,-0.459635,-0.258701,0.851865
1629808525956,-0.458293,-0.25742,0.851804
1629808525965,-0.458354,-0.25803,0.8525969999999999
1629808525975,-0.457134,-0.259799,0.852475
1629808525985,-0.45627999999999996,-0.25790799999999997,0.851255
1629808525994,-0.457012,-0.255102,0.851316
1629808526004,-0.456402,-0.251137,0.848205
1629808526013,-0.4575,-0.251564,0.850401
1629808526023,-0.458415,-0.252662,0.852536
1629808526033,-0.45872,-0.25437,0.8544269999999999
1629808526042,-0.46055,-0.256139,0.8562569999999999
1629808526052,-0.46116,-0.256932,0.854061
1629808526061,-0.461526,-0.256139,0.852414
1629808526071,-0.46219699999999997,-0.257176,0.853634
1629808526081,-0.462258,-0.25681,0.8516819999999999
1629808526090,-0.463356,-0.25559,0.8477169999999999
1629808526100,-0.464515,-0.25742,0.847168
1629808526109,-0.46555199999999997,-0.25912799999999997,0.8486319999999999
1629808526119,-0.466711,-0.257664,0.847595
1629808526129,-0.466528,-0.258701,0.848754
1629808526138,-0.46665,-0.260165,0.85034
1629808526148,-0.466528,-0.26065299999999997,0.851499
1629808526157,-0.466345,-0.25912799999999997,0.8513769999999999
1629808526167,-0.465735,-0.25699299999999997,0.85156
1629808526177,-0.465491,-0.255102,0.850706
1629808526186,-0.46726,-0.255224,0.85156
1629808526196,-0.46677199999999996,-0.256566,0.851804
1629808526205,-0.466955,-0.25803,0.853329
1629808526215,-0.467016,-0.258762,0.854
1629808526225,-0.466406,-0.259494,0.854854
1629808526234,-0.46524699999999997,-0.258701,0.8529019999999999
1629808526244,-0.46494199999999997,-0.258457,0.852231
1629808526253,-0.466101,-0.258457,0.852414
1629808526263,-0.467138,-0.260226,0.8544269999999999
1629808526273,-0.466284,-0.25973799999999997,0.853573
1629808526282,-0.465796,-0.260226,0.853878
1629808526292,-0.465186,-0.26047,0.853756
1629808526301,-0.46482,-0.260409,0.852353
1629808526311,-0.465003,-0.26034799999999997,0.852414
1629808526321,-0.465613,-0.260287,0.852414
1629808526330,-0.464759,-0.260836,0.852536
1629808526340,-0.464881,-0.260531,0.853756
1629808526349,-0.46433199999999997,-0.259189,0.8535119999999999
1629808526359,-0.4636,-0.258884,0.853634
1629808526369,-0.463966,-0.258091,0.8529019999999999
1629808526378,-0.463173,-0.258152,0.8507669999999999
1629808526388,-0.46299,-0.258335,0.849608
1629808526397,-0.462624,-0.258396,0.8486319999999999
1629808526407,-0.462136,-0.258091,0.84729
1629808526417,-0.46311199999999997,-0.258762,0.8474119999999999
1629808526426,-0.46238,-0.259555,0.84607
1629808526436,-0.462136,-0.258152,0.846131
1629808526445,-0.462868,-0.25851799999999997,0.8471069999999999
1629808526455,-0.462868,-0.25943299999999997,0.84729
1629808526465,-0.462563,-0.25912799999999997,0.846619
1629808526474,-0.463844,-0.25760299999999997,0.847473
1629808526484,-0.463783,-0.258091,0.84973
1629808526493,-0.462868,-0.256871,0.849669
1629808526503,-0.46372199999999997,-0.257481,0.849913
1629808526513,-0.463356,-0.259555,0.850645
1629808526522,-0.463966,-0.25973799999999997,0.85095
1629808526532,-0.463661,-0.260104,0.8501569999999999
1629808526541,-0.464088,-0.259311,0.849303
1629808526551,-0.463539,-0.25986,0.848388
1629808526561,-0.463295,-0.260775,0.850523
1629808526570,-0.463051,-0.26047,0.851194
1629808526580,-0.462014,-0.259555,0.853268
1629808526589,-0.46097699999999997,-0.259494,0.853573
1629808526599,-0.460428,-0.258152,0.852231
1629808526609,-0.46158699999999997,-0.258396,0.85095
1629808526618,-0.463356,-0.257969,0.851926
1629808526628,-0.463234,-0.25943299999999997,0.853939
1629808526637,-0.462929,-0.259616,0.853024
1629808526647,-0.46128199999999997,-0.258884,0.8519869999999999
1629808526657,-0.458964,-0.257725,0.848693
1629808526666,-0.459269,-0.255712,0.844606
1629808526676,-0.463173,-0.256566,0.847473
1629808526685,-0.466345,-0.257969,0.85095
1629808526695,-0.466223,-0.259189,0.853329
1629808526705,-0.468053,-0.264862,0.8580869999999999
1629808526714,-0.468846,-0.267485,0.860405
1629808526724,-0.469822,-0.265411,0.856623
1629808526733,-0.46848,-0.261934,0.851438
1629808526743,-0.467504,-0.25943299999999997,0.848144
1629808526753,-0.465308,-0.258579,0.848571
1629808526762,-0.463966,-0.258884,0.848815
1629808526772,-0.46311199999999997,-0.25986,0.850706
1629808526781,-0.462319,-0.26156799999999997,0.85217
1629808526791,-0.462441,-0.261385,0.8525969999999999
1629808526801,-0.462014,-0.261202,0.851011
1629808526810,-0.461099,-0.26004299999999997,0.850706
1629808526820,-0.460794,-0.25729799999999997,0.848754
1629808526829,-0.459391,-0.25729799999999997,0.847595
1629808526839,-0.459635,-0.25760299999999997,0.8468019999999999
1629808526849,-0.459086,-0.25912799999999997,0.848388
1629808526858,-0.460611,-0.26047,0.850401
1629808526868,-0.460001,-0.261385,0.850523
1629808526877,-0.46067199999999997,-0.260531,0.851194
1629808526887,-0.45975699999999997,-0.259799,0.852048
1629808526897,-0.46067199999999997,-0.25821299999999997,0.853939
1629808526906,-0.459696,-0.257664,0.85339
1629808526916,-0.458354,-0.254614,0.849669
1629808526925,-0.459025,-0.254858,0.850645
1629808526935,-0.45994,-0.256261,0.851621
1629808526945,-0.461953,-0.255712,0.850096
1629808526954,-0.46219699999999997,-0.260592,0.852963
1629808526964,-0.46341699999999997,-0.265716,0.856623
1629808526973,-0.464454,-0.265106,0.8565619999999999
1629808526983,-0.46402699999999997,-0.261812,0.854549
1629808526993,-0.463234,-0.259799,0.851133
1629808527002,-0.463844,-0.256932,0.8507669999999999
1629808527012,-0.46402699999999997,-0.257481,0.851194
1629808527021,-0.463905,-0.257481,0.850828
1629808527031,-0.46372199999999997,-0.25864,0.851133
1629808527041,-0.463356,-0.260836,0.853146
1629808527050,-0.46280699999999997,-0.261446,0.853939
1629808527060,-0.463173,-0.261812,0.8562569999999999
1629808527069,-0.46177,-0.26004299999999997,0.854671
1629808527079,-0.462746,-0.259677,0.853024
1629808527089,-0.46128199999999997,-0.259006,0.852963
1629808527098,-0.461343,-0.258762,0.853268
1629808527108,-0.46128199999999997,-0.259799,0.853268
1629808527117,-0.461099,-0.26034799999999997,0.8519869999999999
1629808527127,-0.460916,-0.260897,0.852109
1629808527137,-0.461648,-0.261202,0.852963
1629808527146,-0.462319,-0.261934,0.8504619999999999
1629808527156,-0.46341699999999997,-0.2623,0.850035
1629808527165,-0.462075,-0.264008,0.8474119999999999
1629808527175,-0.462014,-0.265899,0.847351
1629808527185,-0.461526,-0.265594,0.847778
1629808527194,-0.460245,-0.264923,0.848144
1629808527204,-0.46006199999999997,-0.26352,0.848571
1629808527213,-0.459696,-0.26291,0.8492419999999999
1629808527223,-0.458476,-0.263642,0.851133
1629808527233,-0.458903,-0.263703,0.851743
1629808527242,-0.458293,-0.262117,0.850706
1629808527252,-0.460428,-0.262971,0.851194
1629808527261,-0.45884199999999997,-0.263642,0.851133
1629808527271,-0.457988,-0.261934,0.851499
1629808527281,-0.457927,-0.263459,0.851499
1629808527290,-0.457927,-0.265228,0.850218
1629808527300,-0.458964,-0.267485,0.850889
1629808527309,-0.458598,-0.267546,0.847656
1629808527319,-0.457927,-0.266631,0.845704
1629808527329,-0.458232,-0.266448,0.843935
1629808527338,-0.459391,-0.267729,0.845155
1629808527348,-0.462868,-0.268644,0.8479
1629808527357,-0.460855,-0.266692,0.851194
1629808527367,-0.460733,-0.266753,0.854671
1629808527377,-0.46238,-0.268339,0.855891
1629808527386,-0.462136,-0.26779,0.8553419999999999
1629808527396,-0.46421,-0.268034,0.850584
1629808527405,-0.465613,-0.270657,0.849791
1629808527415,-0.46494199999999997,-0.271511,0.850889
1629808527425,-0.464881,-0.271023,0.851621
1629808527434,-0.463295,-0.270047,0.85095
1629808527444,-0.4636,-0.271328,0.8483269999999999
1629808527453,-0.46299,-0.270108,0.842593
1629808527463,-0.463783,-0.266936,0.833565
1629808527473,-0.467443,-0.269681,0.83631
1629808527482,-0.473421,-0.273951,0.840031
1629808527492,-0.477386,-0.281759,0.842471
1629808527501,-0.473543,-0.28426,0.847168
1629808527511,-0.476288,-0.286273,0.848449
1629808527521,-0.475312,-0.28407699999999997,0.847534
1629808527530,-0.473787,-0.280234,0.843264
1629808527540,-0.473238,-0.277611,0.838994
1629808527549,-0.471957,-0.276269,0.836005
1629808527559,-0.464149,-0.271999,0.84241
1629808527569,-0.461648,-0.269376,0.846314
1629808527578,-0.46433199999999997,-0.270779,0.845216
1629808527588,-0.464576,-0.271389,0.844484
1629808527597,-0.464698,-0.274378,0.843203
1629808527607,-0.464576,-0.272853,0.845643
1629808527617,-0.46238,-0.271328,0.843996
1629808527626,-0.465918,-0.273707,0.8407629999999999
1629808527636,-0.46646699999999996,-0.270962,0.838872
1629808527645,-0.461648,-0.268522,0.842227
1629808527655,-0.46555199999999997,-0.268949,0.844484
1629808527665,-0.467809,-0.27022999999999997,0.846985
1629808527674,-0.473848,-0.269376,0.84424
1629808527684,-0.473421,-0.269864,0.843508
1629808527693,-0.47214,-0.269437,0.845765
1629808527703,-0.468236,-0.266692,0.848815
1629808527713,-0.470127,-0.263764,0.844789
1629808527722,-0.474702,-0.265228,0.844362
1629808527732,-0.479765,-0.267363,0.842471
1629808527741,-0.477508,-0.273158,0.84241
1629808527751,-0.47787399999999997,-0.277916,0.84363
1629808527761,-0.47817899999999997,-0.277855,0.841983
1629808527770,-0.476105,-0.274927,0.83936
1629808527780,-0.47519,-0.270474,0.839299
1629808527789,-0.47665399999999997,-0.275354,0.8367979999999999
1629808527799,-0.476898,-0.267973,0.83997
1629808527809,-0.47153,-0.268217,0.840641
1629808527818,-0.473421,-0.270779,0.840397
1629808527828,-0.47275,-0.271633,0.840885
1629808527837,-0.47336,-0.274683,0.842471
1629808527847,-0.47519,-0.275171,0.843081
1629808527857,-0.474397,-0.274561,0.843935
1629808527866,-0.472872,-0.273829,0.843874
1629808527876,-0.471835,-0.271816,0.844423
1629808527885,-0.47085899999999997,-0.270962,0.84729
1629808527895,-0.46909,-0.270352,0.846863
1629808527905,-0.467016,-0.268583,0.846558
1629808527914,-0.46604,-0.27022999999999997,0.846558
1629808527924,-0.46463699999999997,-0.27022999999999997,0.847839
1629808527933,-0.46604,-0.26992499999999997,0.847778
1629808527943,-0.463661,-0.268949,0.8471069999999999
1629808527953,-0.464271,-0.270596,0.8492419999999999
1629808527962,-0.463966,-0.271816,0.847961
1629808527972,-0.462075,-0.27022999999999997,0.846375
1629808527981,-0.462624,-0.270474,0.846558
1629808527991,-0.46299,-0.271816,0.8464969999999999
1629808528001,-0.461953,-0.27083999999999997,0.84668
1629808528010,-0.46097699999999997,-0.27144999999999997,0.846436
1629808528020,-0.46128199999999997,-0.271938,0.846619
1629808528029,-0.461465,-0.27205999999999997,0.845216
1629808528039,-0.462258,-0.271816,0.845826
1629808528049,-0.462014,-0.27083999999999997,0.845765
1629808528058,-0.461099,-0.269498,0.845033
1629808528068,-0.46280699999999997,-0.266997,0.84485
1629808528077,-0.462746,-0.266753,0.846985
1629808528087,-0.463478,-0.269071,0.847229
1629808528097,-0.46524699999999997,-0.271206,0.847168
1629808528106,-0.464881,-0.274622,0.847656
1629808528116,-0.46524699999999997,-0.276452,0.8486319999999999
1629808528125,-0.465796,-0.27633,0.847229
1629808528135,-0.465674,-0.276391,0.846619
1629808528145,-0.465125,-0.2745,0.845033
1629808528154,-0.46463699999999997,-0.274561,0.846619
1629808528164,-0.463478,-0.27358499999999997,0.8479
1629808528173,-0.463356,-0.272548,0.850218
1629808528183,-0.462136,-0.271999,0.851255
1629808528193,-0.460916,-0.271633,0.849486
1629808528202,-0.46067199999999997,-0.270779,0.848449
1629808528212,-0.461099,-0.269864,0.846314
1629808528221,-0.461038,-0.26961999999999997,0.848754
1629808528231,-0.46189199999999997,-0.272914,0.848998
1629808528241,-0.461648,-0.27266999999999997,0.84973
1629808528250,-0.45945199999999997,-0.270779,0.847778
1629808528260,-0.45627999999999996,-0.263581,0.840946
1629808528269,-0.459818,-0.265777,0.845399
1629808528279,-0.463844,-0.269132,0.849608
1629808528289,-0.464149,-0.272914,0.852536
1629808528298,-0.46646699999999996,-0.278282,0.857111
1629808528308,-0.465918,-0.28102699999999997,0.85888
1629808528317,-0.463905,-0.279136,0.856074
1629808528327,-0.462624,-0.27572,0.85156
1629808528337,-0.461038,-0.272731,0.848815
1629808528346,-0.459696,-0.27144999999999997,0.84973
1629808528356,-0.457317,-0.27175499999999997,0.850584
1629808528365,-0.456219,-0.270474,0.850828
1629808528375,-0.455914,-0.270108,0.8501569999999999
1629808528385,-0.454694,-0.271023,0.850706
1629808528394,-0.45322999999999997,-0.270657,0.8516819999999999
1629808528404,-0.454023,-0.267485,0.849364
1629808528413,-0.453962,-0.265899,0.847046
1629808528423,-0.452437,-0.266631,0.848205
1629808528433,-0.453108,-0.268217,0.849669
1629808528442,-0.45566999999999996,-0.269376,0.851499
1629808528452,-0.455853,-0.270291,0.8522919999999999
1629808528461,-0.45597499999999996,-0.272853,0.8516819999999999
1629808528471,-0.458293,-0.27327999999999997,0.8519869999999999
1629808528481,-0.458964,-0.272914,0.8507669999999999
1629808528490,-0.458476,-0.273036,0.852536
1629808528500,-0.459635,-0.273463,0.853756
1629808528509,-0.456768,-0.271816,0.85095
1629808528519,-0.456768,-0.268766,0.846558
1629808528529,-0.458598,-0.271084,0.847961
1629808528538,-0.460245,-0.27083999999999997,0.84729
1629808528548,-0.462014,-0.274012,0.8468019999999999
1629808528557,-0.462319,-0.280051,0.84973
1629808528567,-0.462319,-0.28194199999999997,0.850035
1629808528577,-0.462136,-0.280966,0.847168
1629808528586,-0.462014,-0.277184,0.843447
1629808528596,-0.460306,-0.275415,0.844545
1629808528605,-0.460489,-0.274012,0.843874
1629808528615,-0.460428,-0.2745,0.843386
1629808528625,-0.460794,-0.274866,0.843874
1629808528634,-0.46280699999999997,-0.276147,0.845643
1629808528644,-0.46280699999999997,-0.277367,0.847046
1629808528653,-0.46341699999999997,-0.279746,0.849669
1629808528663,-0.464149,-0.27999,0.84851
1629808528673,-0.464271,-0.27999,0.84729
1629808528682,-0.465186,-0.279441,0.846009
1629808528692,-0.46433199999999997,-0.277977,0.846436
1629808528701,-0.46402699999999997,-0.277611,0.847046
1629808528711,-0.463844,-0.276208,0.8480219999999999
1629808528721,-0.463783,-0.275415,0.846741
1629808528730,-0.463539,-0.276025,0.8464969999999999
1629808528740,-0.462746,-0.28041699999999997,0.8474119999999999
1629808528749,-0.46299,-0.282125,0.848144
1629808528759,-0.461526,-0.279502,0.846131
1629808528769,-0.461465,-0.279746,0.845094
1629808528778,-0.460184,-0.27816,0.843996
1629808528788,-0.460794,-0.277733,0.845277
1629808528797,-0.461221,-0.277733,0.845094
1629808528807,-0.46055,-0.278404,0.844972
1629808528817,-0.461465,-0.27877,0.845216
1629808528826,-0.460916,-0.279258,0.84485
1629808528836,-0.460428,-0.279319,0.842654
1629808528845,-0.460184,-0.277672,0.841495
1629808528855,-0.461709,-0.277001,0.841922
1629808528865,-0.46299,-0.276757,0.841678
1629808528874,-0.464515,-0.276696,0.843081
1629808528884,-0.46482,-0.275842,0.844606
1629808528893,-0.46543,-0.276147,0.844728
1629808528903,-0.46604,-0.277001,0.84363
1629808528913,-0.466589,-0.275537,0.843874
1629808528922,-0.467321,-0.27633,0.843203
1629808528932,-0.466955,-0.279136,0.843752
1629808528941,-0.465674,-0.279197,0.84424
1629808528951,-0.46860199999999996,-0.279319,0.842715
1629808528961,-0.46860199999999996,-0.278038,0.842227
1629808528970,-0.46787,-0.27755,0.840946
1629808528980,-0.46665,-0.276574,0.8407629999999999
1629808528989,-0.468541,-0.277245,0.841678
1629808528999,-0.468419,-0.277672,0.843874
1629808529009,-0.467321,-0.27877,0.845277
1629808529018,-0.466223,-0.278343,0.845643
1629808529028,-0.465186,-0.278099,0.845399
1629808529037,-0.46585699999999997,-0.276818,0.845704
1629808529047,-0.464393,-0.274988,0.846009
1629808529057,-0.465308,-0.274866,0.843569
1629808529066,-0.463844,-0.27327999999999997,0.841678
1629808529076,-0.464454,-0.273524,0.842898
1629808529085,-0.463905,-0.272914,0.845216
1629808529095,-0.46341699999999997,-0.272243,0.846314
1629808529105,-0.462441,-0.27144999999999997,0.844728
1629808529114,-0.460855,-0.268034,0.841312
1629808529124,-0.460733,-0.267302,0.843935
1629808529133,-0.46177,-0.266875,0.847473
1629808529143,-0.460794,-0.268217,0.8501569999999999
1629808529153,-0.46116,-0.273768,0.854366
1629808529162,-0.463234,-0.275659,0.854793
1629808529172,-0.463783,-0.274256,0.8535119999999999
1629808529181,-0.46463699999999997,-0.272853,0.85278
1629808529191,-0.464088,-0.270718,0.8519869999999999
1629808529201,-0.46311199999999997,-0.26961999999999997,0.849669
1629808529210,-0.462563,-0.27083999999999997,0.848876
1629808529220,-0.462319,-0.270962,0.848876
1629808529229,-0.462441,-0.271694,0.8479
1629808529239,-0.463478,-0.271877,0.846253
1629808529249,-0.463478,-0.269986,0.843203
1629808529258,-0.461465,-0.267302,0.842532
1629808529268,-0.462746,-0.266692,0.841739
1629808529277,-0.464088,-0.267668,0.842532
1629808529287,-0.463844,-0.267729,0.842959
1629808529297,-0.465064,-0.267424,0.845704
1629808529306,-0.466101,-0.267912,0.84668
1629808529316,-0.467931,-0.26870499999999997,0.8483269999999999
1629808529325,-0.469578,-0.269803,0.847229
1629808529335,-0.469395,-0.270779,0.848144
1629808529345,-0.469517,-0.269132,0.8498519999999999
1629808529354,-0.469517,-0.268888,0.85095
1629808529364,-0.46787,-0.266204,0.848815
1629808529373,-0.466894,-0.263215,0.8468019999999999
1629808529383,-0.466223,-0.26413,0.8461919999999999
1629808529393,-0.46665,-0.265289,0.848998
1629808529402,-0.469822,-0.266265,0.8464969999999999
1629808529412,-0.467199,-0.266875,0.843935
1629808529421,-0.465613,-0.265716,0.843691
1629808529431,-0.465369,-0.266387,0.843813
1629808529441,-0.46726,-0.26474,0.845704
1629808529450,-0.46738199999999996,-0.264435,0.846985
1629808529460,-0.467626,-0.263581,0.846558
1629808529469,-0.469273,-0.264252,0.845643
1629808529479,-0.471042,-0.264862,0.845887
1629808529489,-0.471652,-0.264435,0.847656
1629808529498,-0.47153,-0.264435,0.847046
1629808529508,-0.472323,-0.265777,0.848083
1629808529517,-0.473116,-0.26596,0.849425
1629808529527,-0.473482,-0.265838,0.8495469999999999
1629808529537,-0.473665,-0.264313,0.849791
1629808529546,-0.47299399999999997,-0.263581,0.84912
1629808529556,-0.471652,-0.263276,0.848754
1629808529565,-0.47299399999999997,-0.262178,0.849974
1629808529575,-0.472811,-0.261812,0.848571
1629808529585,-0.471896,-0.26156799999999997,0.847534
1629808529594,-0.471713,-0.26291,0.84668
1629808529604,-0.470493,-0.263398,0.845826
1629808529613,-0.469761,-0.262788,0.845277
1629808529623,-0.469151,-0.261202,0.843752
1629808529633,-0.467626,-0.261385,0.844057
1629808529642,-0.468663,-0.261019,0.845216
1629808529652,-0.468663,-0.261507,0.845643
1629808529661,-0.46909,-0.261446,0.846436
1629808529671,-0.468236,-0.26095799999999997,0.846314
1629808529681,-0.46848,-0.260226,0.846375
1629808529690,-0.46829699999999996,-0.25986,0.8468019999999999
1629808529700,-0.467748,-0.25790799999999997,0.847473
1629808529709,-0.467931,-0.255529,0.84607
1629808529719,-0.46909,-0.255224,0.845765
1629808529729,-0.469395,-0.254248,0.8471069999999999
1629808529738,-0.470249,-0.256139,0.847839
1629808529748,-0.469151,-0.25912799999999997,0.8477169999999999
1629808529757,-0.469883,-0.258884,0.8474119999999999
1629808529767,-0.47116399999999997,-0.258457,0.847046
1629808529777,-0.471347,-0.254614,0.845582
1629808529786,-0.47092,-0.255163,0.846253
1629808529796,-0.472567,-0.25681,0.846436
1629808529805,-0.473848,-0.256444,0.846314
1629808529815,-0.474153,-0.255163,0.848144
1629808529825,-0.474397,-0.256505,0.8495469999999999
1629808529834,-0.474641,-0.257725,0.850096
1629808529844,-0.476227,-0.258579,0.8501569999999999
1629808529853,-0.475678,-0.257664,0.848815
1629808529863,-0.47543399999999997,-0.258396,0.84851
1629808529873,-0.474092,-0.257542,0.8477169999999999
1629808529882,-0.47421399999999997,-0.257786,0.8474119999999999
1629808529892,-0.472811,-0.256749,0.847168
1629808529901,-0.473116,-0.259189,0.84851
1629808529911,-0.47214,-0.261507,0.84912
1629808529921,-0.470432,-0.263276,0.8480219999999999
1629808529930,-0.470371,-0.263703,0.845582
1629808529940,-0.468663,-0.262239,0.843935
1629808529949,-0.46848,-0.260897,0.840641
1629808529959,-0.468785,-0.25986,0.8398479999999999
1629808529969,-0.468114,-0.259067,0.842959
1629808529978,-0.46829699999999996,-0.258396,0.846863
1629808529988,-0.468785,-0.259006,0.8480219999999999
1629808529997,-0.46829699999999996,-0.259372,0.84668
1629808530007,-0.469639,-0.259982,0.848388
1629808530017,-0.471408,-0.259372,0.850096
1629808530026,-0.469456,-0.258091,0.849364
1629808530036,-0.469456,-0.261446,0.850523
1629808530045,-0.47116399999999997,-0.266448,0.855769
1629808530055,-0.470615,-0.267302,0.855891
1629808530065,-0.469273,-0.265716,0.853634
1629808530074,-0.467626,-0.262239,0.849059
1629808530084,-0.46524699999999997,-0.260409,0.8483269999999999
1629808530093,-0.463356,-0.259555,0.8498519999999999
1629808530103,-0.462563,-0.259677,0.851133
1629808530113,-0.461099,-0.262422,0.852414
1629808530122,-0.460855,-0.264374,0.852719
1629808530132,-0.460489,-0.264008,0.852353
1629808530141,-0.458903,-0.262056,0.851499
1629808530151,-0.4575,-0.25973799999999997,0.850706
1629808530161,-0.45627999999999996,-0.25742,0.849974
1629808530170,-0.456097,-0.256627,0.850218
1629808530180,-0.455548,-0.256444,0.852414
1629808530189,-0.458232,-0.25681,0.854488
1629808530199,-0.45945199999999997,-0.257054,0.858148
1629808530209,-0.460306,-0.257847,0.858819
1629808530218,-0.46036699999999997,-0.25790799999999997,0.85888
1629808530228,-0.459574,-0.257664,0.8590019999999999
1629808530237,-0.46006199999999997,-0.256322,0.8596119999999999
1629808530247,-0.459818,-0.257054,0.858453
1629808530257,-0.458415,-0.255102,0.852658
1629808530266,-0.45975699999999997,-0.25668799999999997,0.850828
1629808530276,-0.46055,-0.259006,0.850401
1629808530285,-0.461404,-0.25803,0.847595
1629808530295,-0.46238,-0.26095799999999997,0.846314
1629808530305,-0.462258,-0.264313,0.848144
1629808530314,-0.462563,-0.264435,0.8474119999999999
1629808530324,-0.462258,-0.262483,0.846375
1629808530333,-0.46280699999999997,-0.261507,0.846314
1629808530343,-0.462624,-0.25943299999999997,0.8483269999999999
1629808530353,-0.463356,-0.25925,0.849425
1629808530362,-0.463539,-0.259494,0.849486
1629808530372,-0.466345,-0.259982,0.849913
1629808530381,-0.466223,-0.262788,0.8513769999999999
1629808530391,-0.46829699999999996,-0.265655,0.852048
1629808530401,-0.46799199999999996,-0.265838,0.852231
1629808530410,-0.468419,-0.266997,0.850279
1629808530420,-0.469273,-0.269437,0.849974
1629808530429,-0.468785,-0.269559,0.8495469999999999
1629808530439,-0.46829699999999996,-0.26839999999999997,0.848205
1629808530449,-0.468724,-0.268766,0.847534
1629808530458,-0.46707699999999996,-0.271328,0.847473
1629808530468,-0.46787,-0.271389,0.847168
1629808530477,-0.465979,-0.272853,0.846314
1629808530487,-0.465796,-0.273341,0.845948
1629808530497,-0.46616199999999997,-0.276086,0.845887
1629808530506,-0.465918,-0.276635,0.84485
1629808530516,-0.46494199999999997,-0.276757,0.843569
1629808530525,-0.465674,-0.277733,0.842471
1629808530535,-0.46524699999999997,-0.279929,0.841129
1629808530545,-0.464149,-0.279319,0.841922
1629808530554,-0.463173,-0.27755,0.840397
1629808530564,-0.462136,-0.277001,0.8418
1629808530573,-0.46177,-0.277916,0.842898
1629808530583,-0.46219699999999997,-0.278404,0.841861
1629808530593,-0.46238,-0.279868,0.84241
1629808530602,-0.462746,-0.279624,0.84363
1629808530612,-0.46433199999999997,-0.279563,0.841861
1629808530621,-0.46219699999999997,-0.279075,0.841068
1629808530631,-0.462685,-0.27816,0.840214
1629808530641,-0.463966,-0.277428,0.840031
1629808530650,-0.46555199999999997,-0.278282,0.836859
1629808530660,-0.468663,-0.278526,0.835639
1629808530669,-0.472262,-0.280234,0.836676
1629808530679,-0.47360399999999997,-0.281759,0.837835
1629808530689,-0.47421399999999997,-0.282613,0.836371
1629808530698,-0.47397,-0.280051,0.8377129999999999
1629808530708,-0.473848,-0.279136,0.8383229999999999
1629808530717,-0.47604399999999997,-0.281576,0.836615
1629808530727,-0.478606,-0.283955,0.836554
1629808530737,-0.47695899999999997,-0.282003,0.838506
1629808530746,-0.475312,-0.279319,0.837225
1629808530756,-0.474885,-0.279075,0.836615
1629808530765,-0.475556,-0.277428,0.838872
1629808530775,-0.475983,-0.278709,0.840092
1629808530785,-0.47726399999999997,-0.280539,0.83875
1629808530794,-0.475251,-0.28011199999999997,0.836432
1629808530804,-0.47207899999999997,-0.276635,0.83936
1629808530813,-0.472811,-0.272792,0.841922
1629808530823,-0.474031,-0.275415,0.842776
1629808530833,-0.473848,-0.276574,0.839787
1629808530842,-0.472872,-0.27694,0.838872
1629808530852,-0.469395,-0.274256,0.836737
1629808530861,-0.467443,-0.26596,0.83326
1629808530871,-0.47214,-0.268034,0.840946
1629808530881,-0.475678,-0.271694,0.847595
1629808530890,-0.475922,-0.276452,0.8495469999999999
1629808530900,-0.476105,-0.279746,0.851316
1629808530909,-0.47573899999999997,-0.279807,0.8516819999999999
1629808530919,-0.476166,-0.276574,0.848754
1629808530929,-0.473787,-0.27388999999999997,0.845887
1629808530938,-0.472628,-0.27236499999999997,0.844545
1629808530948,-0.473116,-0.27114499999999997,0.843996
1629808530957,-0.470371,-0.269742,0.842227
1629808530967,-0.46829699999999996,-0.26961999999999997,0.843935
1629808530977,-0.465674,-0.270108,0.844484
1629808530986,-0.465308,-0.270352,0.845094
1629808530996,-0.46616199999999997,-0.269193,0.845155
1629808531005,-0.464271,-0.267546,0.844789
1629808531015,-0.46189199999999997,-0.265777,0.84241
1629808531025,-0.461038,-0.266875,0.843142
1629808531034,-0.46299,-0.26870499999999997,0.84363
1629808531044,-0.463661,-0.26931499999999997,0.843264
1629808531053,-0.465491,-0.270352,0.843813
1629808531063,-0.464698,-0.271877,0.844606
1629808531073,-0.46463699999999997,-0.271084,0.844972
1629808531082,-0.466833,-0.269864,0.846314
1629808531092,-0.467809,-0.270657,0.8483269999999999
1629808531101,-0.46555199999999997,-0.269742,0.8471069999999999
1629808531111,-0.46299,-0.263276,0.844423
1629808531121,-0.466406,-0.264313,0.843691
1629808531130,-0.467199,-0.266204,0.845033
1629808531140,-0.46909,-0.269193,0.844423
1629808531149,-0.469883,-0.27419499999999997,0.84729
1629808531159,-0.46787,-0.276147,0.8513769999999999
1629808531169,-0.46799199999999996,-0.27358499999999997,0.849364
1629808531178,-0.465918,-0.270291,0.848144
1629808531188,-0.466711,-0.265289,0.846314
1629808531197,-0.468419,-0.264801,0.8461919999999999
1629808531207,-0.470005,-0.26657,0.845033
1629808531217,-0.469578,-0.268827,0.845582
1629808531226,-0.46909,-0.270901,0.847778
1629808531236,-0.467321,-0.27266999999999997,0.850645
1629808531245,-0.470249,-0.271877,0.85034
1629808531255,-0.470554,-0.27358499999999997,0.848571
1629808531265,-0.47092,-0.273158,0.8461919999999999
1629808531274,-0.46921199999999996,-0.272243,0.846131
1629808531284,-0.468846,-0.272731,0.845704
1629808531293,-0.46738199999999996,-0.272182,0.844911
1629808531303,-0.469029,-0.274622,0.843142
1629808531313,-0.469273,-0.276208,0.842288
1629808531322,-0.46829699999999996,-0.27694,0.84119
1629808531332,-0.468358,-0.277428,0.8389329999999999
1629808531341,-0.46726,-0.277794,0.839482
1629808531351,-0.468175,-0.276452,0.839421
1629808531361,-0.46677199999999996,-0.275232,0.836676
1629808531370,-0.46768699999999996,-0.273158,0.8364929999999999
1629808531380,-0.467321,-0.27297499999999997,0.8377129999999999
1629808531389,-0.469639,-0.275293,0.838567
1629808531399,-0.471591,-0.277123,0.839726
1629808531409,-0.471591,-0.279319,0.841434
1629808531418,-0.4697,-0.277611,0.84241
1629808531428,-0.465674,-0.27388999999999997,0.840824
1629808531437,-0.46604,-0.27358499999999997,0.841251
1629808531447,-0.466528,-0.273707,0.8404579999999999
1629808531457,-0.46646699999999996,-0.272914,0.838384
1629808531466,-0.465186,-0.267668,0.838262
1629808531476,-0.46494199999999997,-0.268522,0.8389329999999999
1629808531485,-0.466406,-0.268217,0.841007
1629808531495,-0.467016,-0.267607,0.844728
1629808531505,-0.467809,-0.267851,0.847473
1629808531514,-0.469883,-0.268888,0.84912
1629808531524,-0.470493,-0.268522,0.849059
1629808531533,-0.470127,-0.267058,0.849913
1629808531543,-0.468663,-0.265533,0.849608
1629808531553,-0.46787,-0.264191,0.8495469999999999
1629808531562,-0.46726,-0.264191,0.849791
1629808531572,-0.467809,-0.263886,0.850218
1629808531581,-0.466345,-0.264313,0.8516819999999999
1629808531591,-0.466833,-0.264923,0.853268
1629808531601,-0.467138,-0.26535,0.854305
1629808531610,-0.466345,-0.265716,0.852536
1629808531620,-0.46665,-0.265594,0.85095
1629808531629,-0.46677199999999996,-0.265594,0.851133
1629808531639,-0.465308,-0.26535,0.85156
1629808531649,-0.465064,-0.26413,0.851255
1629808531658,-0.464088,-0.263825,0.848876
1629808531668,-0.464576,-0.264801,0.847046
1629808531677,-0.462075,-0.260409,0.843264
1629808531687,-0.464454,-0.259006,0.841129
1629808531697,-0.467931,-0.262483,0.846009
1629808531706,-0.469151,-0.267424,0.849486
1629808531716,-0.47031,-0.272304,0.8516819999999999
1629808531725,-0.47085899999999997,-0.275232,0.853268
1629808531735,-0.470127,-0.275537,0.854305
1629808531745,-0.468968,-0.271694,0.851743
1629808531754,-0.465369,-0.269132,0.848571
1629808531764,-0.463356,-0.266509,0.846619
1629808531773,-0.460855,-0.266204,0.847778
1629808531783,-0.457744,-0.264862,0.849059
1629808531793,-0.455914,-0.264008,0.849486
1629808531802,-0.455731,-0.264862,0.848266
1629808531812,-0.457561,-0.265472,0.848571
1629808531821,-0.457988,-0.266326,0.849303
1629808531831,-0.458659,-0.266448,0.849608
1629808531841,-0.457561,-0.26596,0.849303
1629808531850,-0.457805,-0.264374,0.84851
1629808531860,-0.459635,-0.265289,0.848815
1629808531869,-0.459574,-0.266875,0.850584
1629808531879,-0.46036699999999997,-0.267851,0.851438
1629808531889,-0.46116,-0.268217,0.850889
1629808531898,-0.461953,-0.268583,0.85156
1629808531908,-0.461831,-0.269681,0.851865
1629808531917,-0.462319,-0.271572,0.851316
1629808531927,-0.460611,-0.270596,0.848754
1629808531937,-0.457256,-0.266753,0.843569
1629808531946,-0.457927,-0.267851,0.841556
1629808531956,-0.461648,-0.270169,0.84424
1629808531965,-0.462746,-0.269986,0.84241
1629808531975,-0.46299,-0.275354,0.844911
1629808531985,-0.463478,-0.279685,0.845948
1629808531994,-0.462258,-0.278404,0.847839
1629808532004,-0.462441,-0.276757,0.847656
1629808532013,-0.461709,-0.274378,0.847595
1629808532023,-0.46055,-0.273219,0.847534
1629808532033,-0.460916,-0.27419499999999997,0.847351
1629808532042,-0.461099,-0.274561,0.848388
1629808532052,-0.460245,-0.275598,0.847778
1629808532061,-0.461465,-0.277001,0.848449
1629808532071,-0.461221,-0.278526,0.8492419999999999
1629808532081,-0.461343,-0.279868,0.848205
1629808532090,-0.461709,-0.279868,0.848876
1629808532100,-0.461709,-0.27877,0.8501569999999999
1629808532109,-0.460611,-0.277245,0.850523
1629808532119,-0.459696,-0.275537,0.852048
1629808532129,-0.459513,-0.274012,0.852414
1629808532138,-0.459025,-0.274073,0.852963
1629808532148,-0.45933,-0.274073,0.8525969999999999
1629808532157,-0.458232,-0.273158,0.852414
1629808532167,-0.45658499999999996,-0.27297499999999997,0.853695
1629808532177,-0.454694,-0.27266999999999997,0.854305
1629808532186,-0.454511,-0.272487,0.85522
1629808532196,-0.452376,-0.27266999999999997,0.856379
1629808532205,-0.452803,-0.271816,0.853878
1629808532215,-0.452681,-0.270962,0.850645
1629808532225,-0.451888,-0.270108,0.850584
1629808532234,-0.451827,-0.270596,0.8522919999999999
1629808532244,-0.451034,-0.269254,0.853756
1629808532253,-0.450668,-0.267607,0.853146
1629808532263,-0.453108,-0.268644,0.851499
1629808532273,-0.457256,-0.270474,0.847595
1629808532282,-0.456524,-0.270718,0.845094
1629808532292,-0.453413,-0.269559,0.845521
1629808532301,-0.449326,-0.269742,0.8516819999999999
1629808532311,-0.447496,-0.266509,0.8553419999999999
1629808532321,-0.44987499999999997,-0.264313,0.853634
1629808532330,-0.453108,-0.26596,0.851316
1629808532340,-0.457439,-0.268522,0.8504619999999999
1629808532349,-0.46463699999999997,-0.273158,0.8461919999999999
1629808532359,-0.460916,-0.272792,0.842532
1629808532369,-0.463234,-0.274134,0.841983
1629808532378,-0.462258,-0.274378,0.844362
1629808532388,-0.460733,-0.271633,0.8464969999999999
1629808532397,-0.461648,-0.272487,0.848998
1629808532407,-0.461099,-0.270718,0.849059
1629808532417,-0.461343,-0.269498,0.851926
1629808532426,-0.458293,-0.267485,0.856135
1629808532436,-0.460489,-0.26870499999999997,0.859368
1629808532445,-0.460245,-0.26779,0.858331
1629808532455,-0.461343,-0.267546,0.856623
1629808532465,-0.45975699999999997,-0.268339,0.854793
1629808532474,-0.461831,-0.268278,0.851316
1629808532484,-0.462746,-0.269132,0.849669
1629808532493,-0.459269,-0.268156,0.849364
1629808532503,-0.457439,-0.267485,0.851133
1629808532513,-0.456768,-0.264252,0.848876
1629808532522,-0.455243,-0.259677,0.845094
1629808532532,-0.457317,-0.259677,0.849486
1629808532541,-0.46177,-0.263703,0.855525
1629808532551,-0.463966,-0.264679,0.854854
1629808532561,-0.4636,-0.269498,0.854061
1629808532570,-0.463478,-0.273341,0.856501
1629808532580,-0.464149,-0.274561,0.8544269999999999
1629808532589,-0.462746,-0.271328,0.849486
1629808532599,-0.45994,-0.27175499999999997,0.847595
1629808532609,-0.458659,-0.26961999999999997,0.845643
1629808532618,-0.457256,-0.267119,0.847534
1629808532628,-0.456463,-0.26718,0.8510719999999999
1629808532637,-0.455914,-0.267546,0.8535119999999999
1629808532647,-0.455304,-0.267546,0.854854
1629808532657,-0.45414499999999997,-0.267119,0.854305
1629808532666,-0.453047,-0.264923,0.852841
1629808532676,-0.455426,-0.262849,0.851499
1629808532685,-0.453962,-0.261812,0.8504619999999999
1629808532695,-0.456219,-0.261507,0.851011
1629808532705,-0.456219,-0.263337,0.8532069999999999
1629808532714,-0.45994,-0.264801,0.85461
1629808532724,-0.459818,-0.265472,0.854183
1629808532733,-0.460184,-0.265472,0.850828
1629808532743,-0.46250199999999997,-0.265411,0.8492419999999999
1629808532753,-0.46494199999999997,-0.265472,0.850523
1629808532762,-0.46494199999999997,-0.266387,0.851316
1629808532772,-0.465064,-0.266631,0.851255
1629808532781,-0.463783,-0.264374,0.848083
1629808532791,-0.465064,-0.263032,0.845094
1629808532801,-0.467626,-0.267485,0.846131
1629808532810,-0.468236,-0.266021,0.843203
1629808532820,-0.470066,-0.267119,0.842044
1629808532829,-0.47085899999999997,-0.270901,0.843264
1629808532839,-0.470554,-0.270352,0.843386
1629808532849,-0.471408,-0.267424,0.841861
1629808532858,-0.472018,-0.266875,0.84058
1629808532868,-0.473543,-0.266265,0.842532
1629808532877,-0.472445,-0.265045,0.841556
1629808532887,-0.47177399999999997,-0.263581,0.841434
1629808532897,-0.471713,-0.264191,0.846375
1629808532906,-0.469944,-0.263825,0.8479
1629808532916,-0.471103,-0.262422,0.845887
1629808532925,-0.47275,-0.262788,0.845948
1629808532935,-0.473055,-0.26352,0.844301
1629808532945,-0.47336,-0.264252,0.845094
1629808532954,-0.473726,-0.263886,0.8461919999999999
1629808532964,-0.47397,-0.263032,0.8468019999999999
1629808532973,-0.473848,-0.26291,0.8480219999999999
1629808532983,-0.47299399999999997,-0.262239,0.848205
1629808532993,-0.471835,-0.262056,0.849303
1629808533002,-0.471408,-0.262788,0.8495469999999999
1629808533012,-0.471896,-0.265228,0.8492419999999999
1629808533021,-0.471652,-0.265716,0.8480219999999999
1629808533031,-0.470127,-0.264862,0.845399
1629808533041,-0.469456,-0.263215,0.84302
1629808533050,-0.469334,-0.262849,0.843386
1629808533060,-0.468846,-0.263032,0.843569
1629808533069,-0.471286,-0.263276,0.844484
1629808533079,-0.47214,-0.264618,0.84485
1629808533089,-0.472628,-0.264679,0.84241
1629808533098,-0.474153,-0.26535,0.840031
1629808533108,-0.475312,-0.266387,0.837286
1629808533117,-0.476105,-0.267546,0.837774
1629808533127,-0.473848,-0.266509,0.839665
1629808533137,-0.475495,-0.26657,0.842471
1629808533146,-0.478606,-0.266387,0.842471
1629808533156,-0.474763,-0.262788,0.841678
1629808533165,-0.472933,-0.261751,0.841739
1629808533175,-0.473787,-0.259372,0.845094
1629808533185,-0.473665,-0.25882299999999997,0.84607
1629808533194,-0.474336,-0.26004299999999997,0.847229
1629808533204,-0.475861,-0.263642,0.843996
1629808533213,-0.476532,-0.26535,0.839055
1629808533223,-0.47604399999999997,-0.265838,0.839116
1629808533233,-0.477935,-0.26657,0.840519
1629808533242,-0.477813,-0.266753,0.841251
1629808533252,-0.476898,-0.266448,0.841983
1629808533261,-0.47763,-0.267302,0.844545
1629808533271,-0.476837,-0.268644,0.84485
1629808533281,-0.47573899999999997,-0.268156,0.844057
1629808533290,-0.473482,-0.264313,0.843508
1629808533300,-0.472933,-0.262422,0.843386
1629808533309,-0.471835,-0.260592,0.842166
1629808533319,-0.471103,-0.25986,0.843081
1629808533329,-0.470005,-0.258945,0.845094
1629808533338,-0.47116399999999997,-0.258274,0.848754
1629808533348,-0.470005,-0.256749,0.847595
1629808533357,-0.468663,-0.255285,0.844667
1629808533367,-0.469944,-0.256017,0.846131
1629808533377,-0.471652,-0.258579,0.8504619999999999
1629808533386,-0.47146899999999997,-0.25882299999999997,0.850889
1629808533396,-0.47146899999999997,-0.262971,0.8529019999999999
1629808533405,-0.471591,-0.266814,0.853939
1629808533415,-0.470066,-0.267546,0.850401
1629808533425,-0.46787,-0.266204,0.845948
1629808533434,-0.465369,-0.260775,0.840946
1629808533444,-0.46646699999999996,-0.259067,0.845094
1629808533453,-0.46646699999999996,-0.25912799999999997,0.850523
1629808533463,-0.466589,-0.259921,0.854183
1629808533473,-0.466711,-0.262239,0.855281
1629808533482,-0.46555199999999997,-0.263093,0.8541219999999999
1629808533492,-0.46543,-0.263215,0.853268
1629808533501,-0.463966,-0.26156799999999997,0.850218
1629808533511,-0.462014,-0.260409,0.8480219999999999
1629808533521,-0.461404,-0.258396,0.8461919999999999
1629808533530,-0.460306,-0.256139,0.845887
1629808533540,-0.46006199999999997,-0.255895,0.846619
1629808533549,-0.459574,-0.25668799999999997,0.8483269999999999
1629808533559,-0.460794,-0.257481,0.848998
1629808533569,-0.46189199999999997,-0.25803,0.850584
1629808533578,-0.462929,-0.258274,0.852719
1629808533588,-0.463173,-0.256932,0.853878
1629808533597,-0.46238,-0.256139,0.853756
1629808533607,-0.46299,-0.254858,0.8541219999999999
1629808533617,-0.46250199999999997,-0.254492,0.850035
1629808533626,-0.462563,-0.255712,0.847778
1629808533636,-0.464881,-0.258579,0.849059
1629808533645,-0.466528,-0.258945,0.84912
1629808533655,-0.468785,-0.259555,0.84729
1629808533665,-0.46890699999999996,-0.262605,0.848266
1629808533674,-0.46829699999999996,-0.262849,0.849181
1629808533684,-0.468968,-0.262605,0.849974
1629808533693,-0.469456,-0.261324,0.849791
1629808533703,-0.470066,-0.25986,0.848876
1629808533713,-0.47092,-0.25882299999999997,0.8489369999999999
1629808533722,-0.47031,-0.257786,0.8489369999999999
1629808533732,-0.469761,-0.258457,0.847351
1629808533741,-0.468968,-0.25803,0.847961
1629808533751,-0.469395,-0.258701,0.847534
1629808533761,-0.46909,-0.25851799999999997,0.84851
1629808533770,-0.469761,-0.259616,0.847778
1629808533780,-0.470127,-0.259067,0.8489369999999999
1629808533789,-0.470127,-0.25986,0.8498519999999999
1629808533799,-0.470066,-0.260104,0.849486
1629808533809,-0.470249,-0.259982,0.849608
1629808533818,-0.469517,-0.260531,0.849425
1629808533828,-0.46921199999999996,-0.260714,0.848205
1629808533837,-0.470798,-0.260714,0.8486319999999999
1629808533847,-0.470127,-0.26169,0.848754
1629808533857,-0.46909,-0.26291,0.848388
1629808533866,-0.469822,-0.26291,0.847839
1629808533876,-0.469151,-0.26352,0.848266
1629808533885,-0.468724,-0.262056,0.848388
1629808533895,-0.468846,-0.262422,0.8474119999999999
1629808533905,-0.468114,-0.261812,0.848144
1629808533914,-0.467443,-0.261629,0.847778
1629808533924,-0.46665,-0.261202,0.84668
1629808533933,-0.466284,-0.259372,0.8468019999999999
1629808533943,-0.46616199999999997,-0.260104,0.846619
1629808533953,-0.466589,-0.259372,0.844728
1629808533962,-0.466711,-0.25943299999999997,0.84363
1629808533972,-0.466955,-0.25790799999999997,0.843447
1629808533981,-0.467565,-0.258884,0.844179
1629808533991,-0.469334,-0.259921,0.84363
1629808534001,-0.471103,-0.259921,0.846131
1629808534010,-0.47146899999999997,-0.26004299999999997,0.84729
1629808534020,-0.47146899999999997,-0.25973799999999997,0.847595
1629808534029,-0.473055,-0.260287,0.847351
1629808534039,-0.47397,-0.26004299999999997,0.8464969999999999
1629808534049,-0.47329899999999997,-0.259555,0.845948
1629808534058,-0.472811,-0.260104,0.844972
1629808534068,-0.473238,-0.26004299999999997,0.847168
1629808534077,-0.473238,-0.259311,0.84729
1629808534087,-0.47299399999999997,-0.260775,0.846436
1629808534097,-0.47299399999999997,-0.26047,0.846985
1629808534106,-0.474092,-0.260287,0.844667
1629808534116,-0.474153,-0.260775,0.842898
1629808534125,-0.474458,-0.26065299999999997,0.842349
1629808534135,-0.47397,-0.260165,0.843752
1629808534145,-0.474763,-0.26047,0.844545
1629808534154,-0.474336,-0.259006,0.844179
1629808534164,-0.473238,-0.257054,0.840397
1629808534173,-0.474458,-0.256078,0.840031
1629808534183,-0.476105,-0.2562,0.844789
1629808534193,-0.475678,-0.254858,0.846436
1629808534202,-0.475312,-0.257542,0.84729
1629808534212,-0.477752,-0.262544,0.851499
1629808534221,-0.47939899999999996,-0.265411,0.851133
1629808534231,-0.479643,-0.263459,0.84912
1629808534241,-0.477691,-0.260836,0.8468019999999999
1629808534250,-0.475068,-0.259311,0.845521
1629808534260,-0.474031,-0.25803,0.845338
1629808534269,-0.471835,-0.25790799999999997,0.846253
1629808534279,-0.47085899999999997,-0.257969,0.847656
1629808534289,-0.47031,-0.259616,0.848144
1629808534298,-0.468663,-0.259555,0.848998
1629808534308,-0.46787,-0.257786,0.8477169999999999
1629808534317,-0.465979,-0.254614,0.846924
1629808534327,-0.464454,-0.253089,0.84546
1629808534337,-0.464454,-0.252052,0.84668
1629808534346,-0.464088,-0.251991,0.8483269999999999
1629808534356,-0.46482,-0.252418,0.849181
1629808534365,-0.466284,-0.252845,0.849059
1629808534375,-0.467809,-0.253211,0.8492419999999999
1629808534385,-0.467748,-0.25254,0.84973
1629808534394,-0.4697,-0.25254,0.850401
1629808534404,-0.470127,-0.253516,0.8504619999999999
1629808534413,-0.469517,-0.255102,0.849913
1629808534423,-0.469578,-0.25437,0.846436
1629808534433,-0.47116399999999997,-0.25681,0.846741
1629808534442,-0.473055,-0.256627,0.847046
1629808534452,-0.47299399999999997,-0.255102,0.844911
1629808534461,-0.472628,-0.25559,0.845399
1629808534471,-0.473177,-0.258274,0.847229
1629808534481,-0.472933,-0.259494,0.848876
1629808534490,-0.473238,-0.258457,0.847656
1629808534500,-0.473421,-0.257237,0.8468019999999999
1629808534509,-0.473116,-0.255346,0.847961
1629808534519,-0.472506,-0.253943,0.8479
1629808534529,-0.47299399999999997,-0.253394,0.845765
1629808534538,-0.473787,-0.255712,0.845887
1629808534548,-0.473543,-0.257176,0.84668
1629808534557,-0.474458,-0.257786,0.8474119999999999
1629808534567,-0.474458,-0.25790799999999997,0.847595
1629808534577,-0.474031,-0.258274,0.847229
1629808534586,-0.47458,-0.258884,0.848144
1629808534596,-0.475068,-0.258701,0.848449
1629808534605,-0.47451899999999997,-0.25864,0.848388
1629808534615,-0.47421399999999997,-0.257664,0.848083
1629808534625,-0.47397,-0.25790799999999997,0.848449
1629808534634,-0.473787,-0.257542,0.849425
1629808534644,-0.472811,-0.258884,0.849059
1629808534653,-0.472323,-0.258701,0.8486319999999999
1629808534663,-0.471408,-0.25986,0.8474119999999999
1629808534673,-0.470554,-0.259494,0.847046
1629808534682,-0.469761,-0.259372,0.846009
1629808534692,-0.470127,-0.258701,0.846558
1629808534701,-0.467931,-0.259555,0.845887
1629808534711,-0.46768699999999996,-0.259372,0.845887
1629808534721,-0.46799199999999996,-0.258457,0.8461919999999999
1629808534730,-0.468236,-0.259067,0.845765
1629808534740,-0.46738199999999996,-0.258701,0.845094
1629808534749,-0.46829699999999996,-0.25925,0.843874
1629808534759,-0.46738199999999996,-0.259189,0.84302
1629808534769,-0.468663,-0.259311,0.843569
1629808534778,-0.469273,-0.259494,0.843996
1629808534788,-0.468785,-0.259372,0.844789
1629808534797,-0.469273,-0.258884,0.845155
1629808534807,-0.470188,-0.257786,0.846131
1629808534817,-0.470676,-0.25742,0.846924
1629808534826,-0.47146899999999997,-0.257359,0.8468019999999999
1629808534836,-0.47268899999999997,-0.258579,0.84729
1629808534845,-0.472262,-0.259494,0.8474119999999999
1629808534855,-0.472018,-0.26004299999999997,0.84729
1629808534865,-0.47299399999999997,-0.259372,0.846863
1629808534874,-0.472567,-0.258762,0.847534
1629808534884,-0.47207899999999997,-0.257359,0.8480219999999999
1629808534893,-0.471408,-0.258457,0.848144
1629808534903,-0.470737,-0.25851799999999997,0.848449
1629808534913,-0.471896,-0.25882299999999997,0.848876
1629808534922,-0.473421,-0.25973799999999997,0.8486319999999999
1629808534932,-0.473238,-0.260836,0.8477169999999999
1629808534941,-0.47360399999999997,-0.261934,0.847351
1629808534951,-0.472262,-0.259372,0.845765
1629808534961,-0.473238,-0.257054,0.84485
1629808534970,-0.473055,-0.25742,0.847229
1629808534980,-0.473482,-0.257542,0.849486
1629808534989,-0.473116,-0.256444,0.85034
1629808534999,-0.471286,-0.255346,0.845887
1629808535009,-0.470493,-0.253638,0.841556
1629808535018,-0.47360399999999997,-0.255468,0.843508
1629808535028,-0.475495,-0.255712,0.8461919999999999
1629808535037,-0.474763,-0.258274,0.845643
1629808535047,-0.476166,-0.263154,0.848449
1629808535057,-0.47824,-0.266082,0.850889
1629808535066,-0.477996,-0.264557,0.84912
1629808535076,-0.478118,-0.25864,0.84607
1629808535085,-0.475068,-0.256566,0.844423
1629808535095,-0.473543,-0.255529,0.843874
1629808535105,-0.47329899999999997,-0.255651,0.845765
1629808535114,-0.472506,-0.258701,0.848144
1629808535124,-0.471652,-0.260836,0.848266
1629808535133,-0.469456,-0.262666,0.8479
1629808535143,-0.467809,-0.260104,0.845826
1629808535153,-0.467016,-0.257237,0.844606
1629808535162,-0.465796,-0.25498,0.845948
1629808535172,-0.464088,-0.252418,0.847839
1629808535181,-0.46238,-0.252601,0.849486
1629808535191,-0.462685,-0.253333,0.851804
1629808535201,-0.462624,-0.253028,0.850828
1629808535210,-0.464088,-0.255407,0.851926
1629808535220,-0.465491,-0.255895,0.852109
1629808535229,-0.466528,-0.258274,0.851438
1629808535239,-0.467504,-0.25882299999999997,0.851316
1629808535249,-0.465918,-0.258884,0.850889
1629808535258,-0.463234,-0.256322,0.846314
1629808535268,-0.463844,-0.2562,0.845521
1629808535277,-0.465125,-0.258274,0.84668
1629808535287,-0.46585699999999997,-0.256871,0.845765
1629808535297,-0.466223,-0.258457,0.8461919999999999
1629808535306,-0.466833,-0.261019,0.849181
1629808535316,-0.466894,-0.26047,0.849669
1629808535325,-0.46829699999999996,-0.258457,0.849425
1629808535335,-0.468846,-0.25699299999999997,0.8507669999999999
1629808535345,-0.470371,-0.254736,0.849364
1629808535354,-0.470676,-0.254858,0.849425
1629808535364,-0.470371,-0.255956,0.848754
1629808535373,-0.471652,-0.258152,0.850218
1629808535383,-0.472872,-0.260409,0.851438
1629808535393,-0.472933,-0.262727,0.850889
1629808535402,-0.47329899999999997,-0.261751,0.85034
1629808535412,-0.472933,-0.26095799999999997,0.848266
1629808535421,-0.472811,-0.260836,0.846985
1629808535431,-0.471957,-0.262666,0.847961
1629808535441,-0.471286,-0.263581,0.848815
1629808535450,-0.469578,-0.265228,0.8474119999999999
1629808535460,-0.470188,-0.263825,0.848083
1629808535469,-0.468053,-0.26126299999999997,0.847595
1629808535479,-0.46799199999999996,-0.261629,0.848754
1629808535489,-0.467809,-0.262666,0.849364
1629808535498,-0.468419,-0.263459,0.849486
1629808535508,-0.466528,-0.263886,0.8498519999999999
1629808535517,-0.465979,-0.263825,0.8479
1629808535527,-0.466101,-0.26596,0.847778
1629808535537,-0.466528,-0.267729,0.846741
1629808535546,-0.46585699999999997,-0.266997,0.84668
1629808535556,-0.46585699999999997,-0.266204,0.844362
1629808535565,-0.465735,-0.264801,0.843081
1629808535575,-0.46555199999999997,-0.264984,0.842471
1629808535585,-0.466284,-0.266448,0.843264
1629808535594,-0.466101,-0.266204,0.844484
1629808535604,-0.465613,-0.266387,0.844606
1629808535613,-0.46604,-0.268644,0.845704
1629808535623,-0.46616199999999997,-0.269742,0.845155
1629808535633,-0.466345,-0.269376,0.845033
1629808535642,-0.46543,-0.266997,0.844911
1629808535652,-0.465308,-0.264618,0.8461919999999999
1629808535661,-0.466833,-0.266082,0.846558
1629808535671,-0.466711,-0.268156,0.8464969999999999
1629808535681,-0.466101,-0.268644,0.845582
1629808535690,-0.46604,-0.267546,0.843813
1629808535700,-0.465735,-0.268766,0.842654
1629808535709,-0.466528,-0.269437,0.843691
1629808535719,-0.46738199999999996,-0.268888,0.844789
1629808535729,-0.46707699999999996,-0.268522,0.84546
1629808535738,-0.467138,-0.270718,0.847229
1629808535748,-0.46555199999999997,-0.267912,0.846924
1629808535757,-0.46738199999999996,-0.266021,0.847168
1629808535767,-0.465674,-0.265411,0.8464969999999999
1629808535777,-0.467504,-0.265838,0.845826
1629808535786,-0.46799199999999996,-0.267058,0.844667
1629808535796,-0.468419,-0.267485,0.845094
1629808535805,-0.46890699999999996,-0.268766,0.845277
1629808535815,-0.468114,-0.269132,0.84302
1629808535825,-0.46738199999999996,-0.269803,0.843935
1629808535834,-0.464576,-0.26352,0.840702
1629808535844,-0.464759,-0.258396,0.83997
1629808535853,-0.468724,-0.26156799999999997,0.845277
1629808535863,-0.47275,-0.265045,0.8492419999999999
1629808535873,-0.475861,-0.27175499999999997,0.850584
1629808535882,-0.476227,-0.272792,0.8504619999999999
1629808535892,-0.475678,-0.272792,0.852963
1629808535901,-0.474397,-0.269681,0.852414
1629808535911,-0.47390899999999997,-0.266692,0.847595
1629808535921,-0.473055,-0.265045,0.845338
1629808535930,-0.471591,-0.264252,0.845887
1629808535940,-0.469578,-0.263886,0.845277
1629808535949,-0.46768699999999996,-0.264069,0.844484
1629808535959,-0.467748,-0.264008,0.844301
1629808535969,-0.46848,-0.264008,0.845887
1629808535978,-0.46768699999999996,-0.262605,0.847168
1629808535988,-0.466528,-0.261141,0.846253
1629808535997,-0.467321,-0.261141,0.844972
1629808536007,-0.468968,-0.262422,0.845704
1629808536017,-0.468663,-0.260226,0.846009
1629808536026,-0.468236,-0.25986,0.843935
1629808536036,-0.46799199999999996,-0.261324,0.847046
1629808536045,-0.469639,-0.263276,0.84729
1629808536055,-0.471103,-0.263032,0.8479
1629808536065,-0.472872,-0.263764,0.847534
1629808536074,-0.471835,-0.263032,0.846985
1629808536084,-0.470371,-0.257664,0.841983
1629808536093,-0.46921199999999996,-0.258152,0.841556
1629808536103,-0.47153,-0.259677,0.845521
1629808536113,-0.47238399999999997,-0.258945,0.846009
1629808536122,-0.47214,-0.263154,0.84729
1629808536132,-0.474275,-0.267302,0.848693
1629808536141,-0.474397,-0.26718,0.848205
1629808536151,-0.47458,-0.264984,0.846131
1629808536161,-0.472567,-0.261995,0.844606
1629808536170,-0.472567,-0.25882299999999997,0.844972
1629808536180,-0.473116,-0.258396,0.844484
1629808536189,-0.473543,-0.259677,0.84424
1629808536199,-0.474092,-0.262483,0.845826
1629808536209,-0.475068,-0.26413,0.846009
1629808536218,-0.47512899999999997,-0.265472,0.846863
1629808536228,-0.475861,-0.265472,0.845887
1629808536237,-0.47634899999999997,-0.265655,0.845521
1629808536247,-0.474885,-0.264862,0.844667
1629808536257,-0.474458,-0.26413,0.84485
1629808536266,-0.47421399999999997,-0.264069,0.845033
1629808536276,-0.472628,-0.264191,0.844057
1629808536285,-0.471896,-0.264679,0.84363
1629808536295,-0.472445,-0.264374,0.842166
1629808536305,-0.472018,-0.26413,0.84241
1629808536314,-0.47214,-0.266448,0.844057
1629808536324,-0.47207899999999997,-0.267363,0.843752
1629808536333,-0.47238399999999997,-0.26839999999999997,0.844972
1629808536343,-0.472201,-0.268156,0.84363
1629808536353,-0.472262,-0.266387,0.841373
1629808536362,-0.469456,-0.264496,0.83875
1629808536372,-0.469456,-0.263825,0.83936
1629808536381,-0.468541,-0.262117,0.83814
1629808536391,-0.469456,-0.26413,0.840031
1629808536401,-0.470798,-0.264618,0.840885
1629808536410,-0.472018,-0.265106,0.841434
1629808536420,-0.471408,-0.265167,0.841678
1629808536429,-0.47177399999999997,-0.264557,0.841922
1629808536439,-0.471652,-0.263642,0.842044
1629808536449,-0.47146899999999997,-0.26352,0.842532
1629808536458,-0.472567,-0.262422,0.842654
1629808536468,-0.473238,-0.262239,0.844484
1629808536477,-0.472933,-0.263642,0.843874
1629808536487,-0.472018,-0.262788,0.84302
1629808536497,-0.473116,-0.262605,0.842654
1629808536506,-0.473726,-0.260714,0.841556
1629808536516,-0.474153,-0.260531,0.841739
1629808536525,-0.476105,-0.26095799999999997,0.843508
1629808536535,-0.476715,-0.262483,0.846131
1629808536545,-0.477447,-0.26156799999999997,0.848388
1629808536554,-0.476776,-0.262056,0.850889
1629808536564,-0.475617,-0.261202,0.849364
1629808536573,-0.4758,-0.258762,0.848205
1629808536583,-0.473482,-0.25925,0.8468019999999999
1629808536593,-0.47512899999999997,-0.260226,0.846558
1629808536602,-0.475983,-0.262422,0.848205
1629808536612,-0.47451899999999997,-0.262178,0.846985
1629808536621,-0.473055,-0.260165,0.845277
1629808536631,-0.473116,-0.260287,0.845216
1629808536641,-0.470432,-0.254736,0.839116
1629808536650,-0.47116399999999997,-0.253516,0.838567
1629808536660,-0.472506,-0.255712,0.843691
1629808536669,-0.474763,-0.259494,0.84729
1629808536679,-0.476715,-0.265533,0.850279
1629808536689,-0.47641,-0.268034,0.853146
1629808536698,-0.474458,-0.265045,0.853268
1629808536708,-0.473787,-0.26095799999999997,0.8510719999999999
1629808536717,-0.47299399999999997,-0.259006,0.8477169999999999
1629808536727,-0.47116399999999997,-0.256627,0.845826
1629808536737,-0.470249,-0.25638299999999997,0.846619
1629808536746,-0.469273,-0.256749,0.848083
1629808536756,-0.46909,-0.259189,0.84851
1629808536765,-0.468358,-0.26047,0.84973
1629808536775,-0.467565,-0.260287,0.84912
1629808536785,-0.467626,-0.258579,0.847473
1629808536794,-0.465796,-0.259372,0.845887
1629808536804,-0.464393,-0.256078,0.845155
1629808536813,-0.463478,-0.254065,0.845216
1629808536823,-0.463356,-0.253089,0.844484
1629808536833,-0.46524699999999997,-0.253577,0.848266
1629808536842,-0.467809,-0.255529,0.851804
1629808536852,-0.468785,-0.256932,0.852353
1629808536861,-0.469456,-0.258274,0.852414
1629808536871,-0.47092,-0.258945,0.8535119999999999
1629808536881,-0.469517,-0.25864,0.853634
1629808536890,-0.46890699999999996,-0.256078,0.851865
1629808536900,-0.46799199999999996,-0.251381,0.847961
1629808536909,-0.469944,-0.252845,0.849913
1629808536919,-0.47031,-0.252113,0.850035
1629808536929,-0.47207899999999997,-0.252357,0.845826
1629808536938,-0.472018,-0.25760299999999997,0.848754
1629808536948,-0.471591,-0.26187299999999997,0.852719
1629808536957,-0.470737,-0.26156799999999997,0.851621
1629808536967,-0.470676,-0.260897,0.850645
1629808536977,-0.471408,-0.257725,0.848266
1629808536986,-0.470798,-0.256261,0.846863
1629808536996,-0.471896,-0.25668799999999997,0.846558
1629808537005,-0.471652,-0.258396,0.84485
1629808537015,-0.472018,-0.25864,0.843203
1629808537025,-0.472567,-0.259616,0.843569
1629808537034,-0.473848,-0.261812,0.844362
1629808537044,-0.474092,-0.262788,0.847168
1629808537053,-0.47458,-0.26413,0.848083
1629808537063,-0.47397,-0.263825,0.8498519999999999
1629808537073,-0.474885,-0.263581,0.8510719999999999
1629808537082,-0.475495,-0.265106,0.850706
1629808537092,-0.473238,-0.263825,0.8492419999999999
1629808537101,-0.47146899999999997,-0.261751,0.8483269999999999
1629808537111,-0.469578,-0.262666,0.84668
1629808537121,-0.46909,-0.26413,0.847473
1629808537130,-0.467931,-0.263703,0.847534
1629808537140,-0.46585699999999997,-0.262849,0.8468019999999999
1629808537149,-0.465735,-0.261751,0.845399
1629808537159,-0.46543,-0.261202,0.844789
1629808537169,-0.46616199999999997,-0.26169,0.846314
1629808537178,-0.46585699999999997,-0.261629,0.846558
1629808537188,-0.465186,-0.26156799999999997,0.846619
1629808537197,-0.465674,-0.262361,0.8471069999999999
1629808537207,-0.466955,-0.263032,0.847534
1629808537217,-0.466894,-0.263276,0.848205
1629808537226,-0.46707699999999996,-0.263215,0.846619
1629808537236,-0.467016,-0.265045,0.8461919999999999
1629808537245,-0.467321,-0.264496,0.845826
1629808537255,-0.466528,-0.261995,0.844911
1629808537265,-0.46738199999999996,-0.262178,0.845399
1629808537274,-0.466528,-0.264984,0.846314
1629808537284,-0.46829699999999996,-0.266204,0.846558
1629808537293,-0.46848,-0.265106,0.8461919999999999
1629808537303,-0.46768699999999996,-0.26535,0.84607
1629808537313,-0.468358,-0.263947,0.846924
1629808537322,-0.468663,-0.264313,0.8474119999999999
1629808537332,-0.468358,-0.266082,0.846741
1629808537341,-0.468358,-0.264191,0.846619
1629808537351,-0.467565,-0.263032,0.845765
1629808537361,-0.469029,-0.263459,0.84607
1629808537370,-0.470737,-0.264191,0.84668
1629808537380,-0.47031,-0.264679,0.846741
1629808537389,-0.470188,-0.266082,0.847839
1629808537399,-0.470066,-0.266448,0.848571
1629808537409,-0.469273,-0.266936,0.8489369999999999
