timestamp,ax,ay,az
1629807853195,-0.24627685546875,0.10516357421875,0.9647216796875
1629807853195,-0.2493896484375,0.1048583984375,0.96923828125
1629807853195,-0.24822998046875,0.10662841796875,0.966796875
1629807853226,-0.24658203125,0.11480712890625,0.956298828125
1629807853226,-0.2412109375,0.11688232421875,0.95623779296875
1629807853226,-0.24554443359375,0.11083984375,0.95928955078125
1629807853289,-0.25048828125,0.11041259765625,0.9710693359375
1629807853289,-0.2413330078125,0.10662841796875,0.96075439453125
1629807853289,-0.24267578125,0.11572265625,0.957275390625
1629807853320,-0.24456787109375,0.1224365234375,0.95733642578125
1629807853336,-0.2470703125,0.1162109375,0.9505615234375
1629807853336,-0.24005126953125,0.1116943359375,0.94671630859375
1629807853414,-0.2510986328125,0.12127685546875,0.9642333984375
1629807853414,-0.24188232421875,0.1044921875,0.947265625
1629807853414,-0.2421875,0.08941650390625,0.9412841796875
1629807853461,-0.2327880859375,0.09124755859375,0.97149658203125
1629807853461,-0.24273681640625,0.088623046875,0.956298828125
1629807853461,-0.23944091796875,0.08953857421875,0.96502685546875
1629807853541,-0.22760009765625,0.09051513671875,0.97186279296875
1629807853541,-0.22442626953125,0.090576171875,0.9730224609375
1629807853541,-0.2176513671875,0.08306884765625,0.96490478515625
1629807853572,-0.216552734375,0.07696533203125,0.968017578125
1629807853588,-0.2186279296875,0.06585693359375,0.979248046875
1629807853588,-0.218505859375,0.07098388671875,0.97503662109375
1629807853604,-0.22442626953125,0.06201171875,0.9786376953125
1629807853604,-0.22503662109375,0.0577392578125,0.98089599609375
1629807853619,-0.23370361328125,0.052734375,0.9774169921875
1629807853697,-0.2333984375,0.03582763671875,0.9622802734375
1629807853697,-0.2288818359375,0.04425048828125,0.96002197265625
1629807853697,-0.22991943359375,0.04693603515625,0.9669189453125
1629807853776,-0.23638916015625,0.0155029296875,0.97430419921875
1629807853776,-0.23651123046875,0.02392578125,0.97705078125
1629807853791,-0.232666015625,0.0343017578125,0.96502685546875
1629807853807,-0.2373046875,0.01361083984375,0.974365234375
1629807853807,-0.240966796875,0.0439453125,0.97900390625
1629807853807,-0.23876953125,0.02740478515625,0.97900390625
1629807853869,-0.2442626953125,0.06512451171875,0.97454833984375
1629807853869,-0.2403564453125,0.0533447265625,0.97991943359375
1629807853869,-0.24688720703125,0.06890869140625,0.96234130859375
1629807853901,-0.24456787109375,0.077392578125,0.95233154296875
1629807853901,-0.24755859375,0.085693359375,0.95416259765625
1629807853916,-0.248291015625,0.09649658203125,0.9532470703125
1629807853994,-0.2484130859375,0.092529296875,0.958740234375
1629807854010,-0.2490234375,0.0950927734375,0.9559326171875
1629807854010,-0.25274658203125,0.094970703125,0.96185302734375
1629807854026,-0.25018310546875,0.09674072265625,0.9564208984375
1629807854026,-0.25079345703125,0.09564208984375,0.9525146484375
1629807854041,-0.2496337890625,0.09710693359375,0.9608154296875
1629807854119,-0.24951171875,0.0784912109375,0.94305419921875
1629807854119,-0.24749755859375,0.08270263671875,0.94537353515625
1629807854135,-0.25018310546875,0.08978271484375,0.9482421875
1629807854151,-0.2578125,0.078857421875,0.9656982421875
1629807854151,-0.2513427734375,0.08221435546875,0.9630126953125
1629807854151,-0.257568359375,0.0718994140625,0.96417236328125
1629807854244,-0.25537109375,0.05810546875,0.9459228515625
1629807854244,-0.25518798828125,0.067626953125,0.9500732421875
1629807854244,-0.2559814453125,0.0535888671875,0.9522705078125
1629807854275,-0.2572021484375,0.05157470703125,0.9656982421875
1629807854291,-0.25482177734375,0.04425048828125,0.95794677734375
1629807854291,-0.252197265625,0.04315185546875,0.9609375
1629807854338,-0.2540283203125,0.042236328125,0.96881103515625
1629807854338,-0.24603271484375,0.03643798828125,0.95501708984375
1629807854338,-0.2451171875,0.02984619140625,0.9705810546875
1629807854416,-0.2391357421875,0.03350830078125,0.962646484375
1629807854416,-0.2349853515625,0.05047607421875,0.9818115234375
1629807854416,-0.2423095703125,0.0360107421875,0.9736328125
1629807854447,-0.22796630859375,0.0625,0.96417236328125
1629807854447,-0.23687744140625,0.0582275390625,0.97918701171875
1629807854463,-0.22393798828125,0.07257080078125,0.96026611328125
1629807854541,-0.2259521484375,0.07293701171875,0.96826171875
1629807854541,-0.220703125,0.0875244140625,0.98370361328125
1629807854557,-0.22052001953125,0.091064453125,0.98431396484375
1629807854588,-0.22686767578125,0.09698486328125,0.9862060546875
1629807854588,-0.22564697265625,0.09552001953125,0.9896240234375
1629807854588,-0.2294921875,0.097900390625,0.97064208984375
1629807854650,-0.2340087890625,0.08673095703125,0.95947265625
1629807854650,-0.23150634765625,0.0848388671875,0.953857421875
1629807854666,-0.232421875,0.08966064453125,0.96234130859375
1629807854713,-0.24456787109375,0.07427978515625,0.96875
1629807854713,-0.2412109375,0.077392578125,0.97271728515625
1629807854713,-0.2373046875,0.08502197265625,0.96600341796875
1629807854744,-0.24432373046875,0.079345703125,0.96807861328125
1629807854744,-0.2469482421875,0.07855224609375,0.96588134765625
1629807854744,-0.25103759765625,0.0848388671875,0.966552734375
1629807854807,-0.2620849609375,0.0799560546875,0.95806884765625
1629807854807,-0.25823974609375,0.08587646484375,0.96307373046875
1629807854807,-0.2613525390625,0.07958984375,0.9605712890625
1629807854869,-0.2750244140625,0.0762939453125,0.95733642578125
1629807854869,-0.27001953125,0.07794189453125,0.95758056640625
1629807854869,-0.273681640625,0.07757568359375,0.95318603515625
1629807854916,-0.28436279296875,0.06671142578125,0.94287109375
1629807854916,-0.27996826171875,0.0731201171875,0.95196533203125
1629807854916,-0.28466796875,0.06988525390625,0.9310302734375
1629807854978,-0.28216552734375,0.07757568359375,0.921630859375
1629807854978,-0.29083251953125,0.07666015625,0.93524169921875
1629807854978,-0.2904052734375,0.07806396484375,0.930908203125
1629807855057,-0.27813720703125,0.0819091796875,0.94061279296875
1629807855057,-0.27911376953125,0.0914306640625,0.95074462890625
1629807855057,-0.28662109375,0.0902099609375,0.95867919921875
1629807855119,-0.27191162109375,0.06365966796875,0.91607666015625
1629807855119,-0.25872802734375,0.1346435546875,0.92755126953125
1629807855135,-0.292236328125,0.021240234375,0.93890380859375
1629807855166,-0.2344970703125,0.19061279296875,0.9454345703125
1629807855166,-0.2445068359375,0.18896484375,0.94732666015625
1629807855166,-0.22796630859375,0.1595458984375,0.94732666015625
1629807855260,-0.2186279296875,0.1055908203125,0.9781494140625
1629807855260,-0.223876953125,0.11468505859375,0.971435546875
1629807855260,-0.22674560546875,0.1295166015625,0.9576416015625
1629807855306,-0.21197509765625,0.099365234375,0.98236083984375
1629807855306,-0.2127685546875,0.09814453125,0.980224609375
1629807855306,-0.21478271484375,0.10614013671875,0.98284912109375
1629807855338,-0.21661376953125,0.1083984375,0.98828125
1629807855338,-0.2193603515625,0.109619140625,0.97662353515625
1629807855338,-0.2196044921875,0.1083984375,0.9794921875
1629807855400,-0.2254638671875,0.1248779296875,0.97747802734375
1629807855400,-0.22406005859375,0.12286376953125,0.98236083984375
1629807855400,-0.224365234375,0.11456298828125,0.97625732421875
1629807855463,-0.22808837890625,0.10980224609375,0.97552490234375
1629807855463,-0.2335205078125,0.10076904296875,0.97760009765625
1629807855463,-0.22906494140625,0.11407470703125,0.97686767578125
1629807855494,-0.2342529296875,0.0738525390625,0.9654541015625
1629807855510,-0.2320556640625,0.09100341796875,0.9693603515625
1629807855510,-0.2349853515625,0.0618896484375,0.958984375
1629807855621,-0.23321533203125,0.05450439453125,0.94500732421875
1629807855637,-0.23004150390625,0.0400390625,0.95404052734375
1629807855637,-0.23095703125,0.04595947265625,0.94805908203125
1629807855668,-0.23504638671875,0.0379638671875,0.9615478515625
1629807855668,-0.2320556640625,0.0389404296875,0.971435546875
1629807855668,-0.23236083984375,0.0411376953125,0.975341796875
1629807855684,-0.2349853515625,0.04998779296875,0.9857177734375
1629807855684,-0.23504638671875,0.0579833984375,0.9822998046875
1629807855684,-0.23492431640625,0.06378173828125,0.98358154296875
1629807855731,-0.233154296875,0.07562255859375,0.9779052734375
1629807855731,-0.2335205078125,0.0677490234375,0.97930908203125
1629807855731,-0.23760986328125,0.08099365234375,0.98114013671875
1629807855824,-0.24371337890625,0.07879638671875,0.964111328125
1629807855824,-0.23297119140625,0.08154296875,0.97967529296875
1629807855824,-0.24127197265625,0.08197021484375,0.97723388671875
1629807855871,-0.240234375,0.081298828125,0.94000244140625
1629807855887,-0.24139404296875,0.0831298828125,0.9505615234375
1629807855887,-0.2420654296875,0.08380126953125,0.9422607421875
1629807855934,-0.23785400390625,0.0897216796875,0.9541015625
1629807855934,-0.2459716796875,0.07562255859375,0.94268798828125
1629807855934,-0.2437744140625,0.0838623046875,0.94378662109375
1629807856028,-0.22637939453125,0.0928955078125,0.95916748046875
1629807856028,-0.2296142578125,0.09539794921875,0.960693359375
1629807856043,-0.23297119140625,0.09478759765625,0.95452880859375
1629807856075,-0.224853515625,0.0826416015625,0.965576171875
1629807856075,-0.2227783203125,0.083740234375,0.9615478515625
1629807856075,-0.22528076171875,0.08782958984375,0.9609375
1629807856106,-0.21746826171875,0.0706787109375,0.97381591796875
1629807856106,-0.212158203125,0.07489013671875,0.9810791015625
1629807856106,-0.216064453125,0.0723876953125,0.9736328125
1629807856168,-0.20831298828125,0.06982421875,0.993896484375
1629807856168,-0.2093505859375,0.0745849609375,0.98785400390625
1629807856168,-0.212890625,0.0736083984375,0.99359130859375
1629807856199,-0.21392822265625,0.0582275390625,0.9832763671875
1629807856215,-0.2103271484375,0.07098388671875,0.9808349609375
1629807856215,-0.21038818359375,0.079833984375,0.9842529296875
1629807856293,-0.218017578125,0.0467529296875,0.9796142578125
1629807856293,-0.22271728515625,0.0396728515625,0.97393798828125
1629807856293,-0.21929931640625,0.03668212890625,0.978271484375
1629807856339,-0.2286376953125,0.05670166015625,0.96844482421875
1629807856339,-0.22601318359375,0.0455322265625,0.96923828125
1629807856339,-0.23492431640625,0.0672607421875,0.966552734375
1629807856405,-0.23907470703125,0.09075927734375,0.9588623046875
1629807856405,-0.23687744140625,0.0947265625,0.95867919921875
1629807856405,-0.2333984375,0.07843017578125,0.95843505859375
1629807856499,-0.2359619140625,0.09613037109375,0.95318603515625
1629807856499,-0.23699951171875,0.09796142578125,0.9525146484375
1629807856499,-0.236328125,0.09722900390625,0.95562744140625
1629807856546,-0.23077392578125,0.09375,0.9609375
1629807856561,-0.232177734375,0.09429931640625,0.95733642578125
1629807856561,-0.23583984375,0.09613037109375,0.9525146484375
1629807856592,-0.23455810546875,0.0966796875,0.96392822265625
1629807856592,-0.2322998046875,0.10015869140625,0.9752197265625
1629807856592,-0.22998046875,0.10089111328125,0.96270751953125
1629807856655,-0.226318359375,0.09466552734375,0.968505859375
1629807856655,-0.22711181640625,0.09619140625,0.97393798828125
1629807856655,-0.2264404296875,0.0999755859375,0.97601318359375
1629807856686,-0.228515625,0.08612060546875,0.9691162109375
1629807856686,-0.23040771484375,0.06695556640625,0.9669189453125
1629807856686,-0.22918701171875,0.078857421875,0.96331787109375
1629807856733,-0.22393798828125,0.06988525390625,0.9605712890625
1629807856733,-0.22723388671875,0.0682373046875,0.9652099609375
1629807856733,-0.2210693359375,0.078857421875,0.96563720703125
1629807856796,-0.21942138671875,0.078125,0.9732666015625
1629807856796,-0.21771240234375,0.08575439453125,0.97711181640625
1629807856796,-0.2161865234375,0.082275390625,0.9755859375
1629807856874,-0.222412109375,0.0751953125,0.9739990234375
1629807856874,-0.2181396484375,0.08349609375,0.978515625
1629807856874,-0.21820068359375,0.08062744140625,0.9771728515625
1629807856921,-0.218994140625,0.07879638671875,0.9718017578125
1629807856921,-0.2164306640625,0.07391357421875,0.969482421875
1629807856921,-0.22027587890625,0.07720947265625,0.97735595703125
1629807856983,-0.22607421875,0.08123779296875,0.96966552734375
1629807856983,-0.22491455078125,0.07666015625,0.97003173828125
1629807856983,-0.22479248046875,0.07489013671875,0.970458984375
1629807857077,-0.22607421875,0.07452392578125,0.96893310546875
1629807857077,-0.22393798828125,0.080810546875,0.9669189453125
1629807857077,-0.22064208984375,0.07733154296875,0.967041015625
1629807857139,-0.2274169921875,0.08203125,0.97021484375
1629807857139,-0.2259521484375,0.08099365234375,0.96685791015625
1629807857139,-0.22467041015625,0.07659912109375,0.97149658203125
1629807857186,-0.22674560546875,0.08404541015625,0.9644775390625
1629807857186,-0.229736328125,0.08111572265625,0.9639892578125
1629807857186,-0.23388671875,0.0916748046875,0.9637451171875
1629807857233,-0.23101806640625,0.09222412109375,0.9598388671875
1629807857233,-0.2294921875,0.09100341796875,0.9617919921875
1629807857233,-0.22998046875,0.0902099609375,0.9615478515625
1629807857264,-0.2264404296875,0.08935546875,0.962890625
1629807857264,-0.22894287109375,0.08673095703125,0.96331787109375
1629807857264,-0.225830078125,0.08648681640625,0.9654541015625
1629807857342,-0.22027587890625,0.08349609375,0.97857666015625
1629807857342,-0.22454833984375,0.080322265625,0.9737548828125
1629807857342,-0.2266845703125,0.08380126953125,0.97064208984375
1629807857408,-0.22216796875,0.08270263671875,0.9736328125
1629807857408,-0.2264404296875,0.0806884765625,0.96820068359375
1629807857408,-0.224853515625,0.0828857421875,0.97186279296875
1629807857455,-0.22601318359375,0.08233642578125,0.96856689453125
1629807857455,-0.22900390625,0.08203125,0.97064208984375
1629807857455,-0.2265625,0.0833740234375,0.9683837890625
1629807857533,-0.231689453125,0.085205078125,0.9656982421875
1629807857548,-0.23358154296875,0.0760498046875,0.9608154296875
1629807857548,-0.233642578125,0.07952880859375,0.9671630859375
1629807857564,-0.22735595703125,0.09326171875,0.96307373046875
1629807857564,-0.23040771484375,0.087890625,0.9635009765625
1629807857564,-0.232177734375,0.07855224609375,0.95989990234375
1629807857626,-0.22906494140625,0.092529296875,0.96405029296875
1629807857626,-0.22918701171875,0.09326171875,0.9649658203125
1629807857626,-0.2286376953125,0.09100341796875,0.96490478515625
1629807857736,-0.23028564453125,0.08953857421875,0.9681396484375
1629807857736,-0.2294921875,0.090087890625,0.97039794921875
1629807857736,-0.23126220703125,0.08740234375,0.9669189453125
1629807857736,-0.23126220703125,0.08404541015625,0.9617919921875
1629807857751,-0.2315673828125,0.0955810546875,0.96551513671875
1629807857751,-0.2275390625,0.08953857421875,0.96368408203125
1629807857798,-0.230712890625,0.08056640625,0.9720458984375
1629807857798,-0.23095703125,0.08642578125,0.96990966796875
1629807857798,-0.232177734375,0.08074951171875,0.97064208984375
1629807857908,-0.22918701171875,0.0897216796875,0.9664306640625
1629807857908,-0.230712890625,0.08660888671875,0.9705810546875
1629807857908,-0.23150634765625,0.08392333984375,0.97015380859375
1629807857954,-0.23468017578125,0.08599853515625,0.96722412109375
1629807857954,-0.2308349609375,0.08221435546875,0.9681396484375
1629807857954,-0.23614501953125,0.08660888671875,0.96759033203125
1629807858001,-0.23785400390625,0.08447265625,0.95806884765625
1629807858001,-0.2344970703125,0.0831298828125,0.9581298828125
1629807858001,-0.2376708984375,0.08355712890625,0.9605712890625
1629807858048,-0.23382568359375,0.08795166015625,0.9588623046875
1629807858048,-0.2354736328125,0.08612060546875,0.958984375
1629807858048,-0.236083984375,0.08831787109375,0.95843505859375
1629807858158,-0.22711181640625,0.08636474609375,0.96533203125
1629807858158,-0.23065185546875,0.08599853515625,0.96453857421875
1629807858158,-0.23486328125,0.0848388671875,0.96484375
1629807858189,-0.22772216796875,0.08544921875,0.96881103515625
1629807858189,-0.2269287109375,0.08416748046875,0.9698486328125
1629807858189,-0.22833251953125,0.08404541015625,0.97119140625
1629807858236,-0.2255859375,0.08697509765625,0.96783447265625
1629807858236,-0.223388671875,0.08819580078125,0.9676513671875
1629807858236,-0.227294921875,0.0830078125,0.96990966796875
1629807858298,-0.21875,0.094970703125,0.96942138671875
1629807858298,-0.22320556640625,0.09320068359375,0.96734619140625
1629807858298,-0.22210693359375,0.09051513671875,0.96734619140625
1629807858377,-0.2198486328125,0.0941162109375,0.967041015625
1629807858377,-0.22412109375,0.09906005859375,0.96673583984375
1629807858377,-0.221923828125,0.09429931640625,0.9713134765625
1629807858392,-0.2294921875,0.087646484375,0.970458984375
1629807858410,-0.229248046875,0.08123779296875,0.96453857421875
1629807858410,-0.2239990234375,0.08575439453125,0.96405029296875
1629807858472,-0.22540283203125,0.0966796875,0.96417236328125
1629807858488,-0.2154541015625,0.089111328125,0.96478271484375
1629807858488,-0.222412109375,0.0950927734375,0.964599609375
1629807858550,-0.219970703125,0.09332275390625,0.967529296875
1629807858566,-0.225341796875,0.08660888671875,0.97027587890625
1629807858566,-0.22119140625,0.092529296875,0.96661376953125
1629807858628,-0.224365234375,0.087158203125,0.9691162109375
1629807858628,-0.224853515625,0.08660888671875,0.9669189453125
1629807858628,-0.2235107421875,0.08258056640625,0.9669189453125
1629807858706,-0.22259521484375,0.0858154296875,0.97137451171875
1629807858722,-0.22161865234375,0.08966064453125,0.97174072265625
1629807858722,-0.22222900390625,0.09185791015625,0.972412109375
1629807858722,-0.22442626953125,0.0921630859375,0.96875
1629807858722,-0.2232666015625,0.0897216796875,0.97125244140625
1629807858738,-0.222412109375,0.08544921875,0.97271728515625
1629807858785,-0.22052001953125,0.09326171875,0.97418212890625
1629807858785,-0.2186279296875,0.09185791015625,0.97021484375
1629807858785,-0.22015380859375,0.09124755859375,0.97314453125
1629807858816,-0.2218017578125,0.0947265625,0.96441650390625
1629807858816,-0.2218017578125,0.09808349609375,0.971435546875
1629807858816,-0.2227783203125,0.09588623046875,0.96435546875
1629807858863,-0.22161865234375,0.09332275390625,0.96588134765625
1629807858863,-0.2242431640625,0.09417724609375,0.96014404296875
1629807858863,-0.219970703125,0.0947265625,0.95941162109375
1629807858910,-0.2181396484375,0.090087890625,0.96734619140625
1629807858925,-0.21734619140625,0.09307861328125,0.9617919921875
1629807858925,-0.21844482421875,0.090087890625,0.96527099609375
1629807858988,-0.21630859375,0.0902099609375,0.97296142578125
1629807858988,-0.2188720703125,0.0892333984375,0.969970703125
1629807858988,-0.21826171875,0.0880126953125,0.9722900390625
1629807859097,-0.21112060546875,0.08929443359375,0.9739990234375
1629807859097,-0.2100830078125,0.091796875,0.9742431640625
1629807859097,-0.213623046875,0.09210205078125,0.97540283203125
1629807859128,-0.21685791015625,0.08990478515625,0.9754638671875
1629807859128,-0.21942138671875,0.089599609375,0.9725341796875
1629807859128,-0.21630859375,0.09051513671875,0.9765625
1629807859159,-0.21893310546875,0.08941650390625,0.9669189453125
1629807859159,-0.22149658203125,0.091064453125,0.965576171875
1629807859159,-0.21722412109375,0.0894775390625,0.9722900390625
1629807859222,-0.223388671875,0.09039306640625,0.966796875
1629807859222,-0.22564697265625,0.0894775390625,0.967041015625
1629807859222,-0.2227783203125,0.09326171875,0.96331787109375
1629807859300,-0.22882080078125,0.09368896484375,0.95849609375
1629807859300,-0.2291259765625,0.0841064453125,0.96771240234375
1629807859300,-0.2257080078125,0.09246826171875,0.96820068359375
1629807859363,-0.23272705078125,0.0782470703125,0.96282958984375
1629807859363,-0.2281494140625,0.08233642578125,0.9613037109375
1629807859363,-0.228515625,0.08642578125,0.96331787109375
1629807859415,-0.22021484375,0.0933837890625,0.9674072265625
1629807859415,-0.22198486328125,0.09149169921875,0.96624755859375
1629807859415,-0.22515869140625,0.09600830078125,0.96795654296875
1629807859493,-0.21820068359375,0.09527587890625,0.97021484375
1629807859493,-0.22198486328125,0.088134765625,0.971923828125
1629807859493,-0.21923828125,0.09478759765625,0.9703369140625
1629807859540,-0.22125244140625,0.0816650390625,0.96844482421875
1629807859540,-0.2227783203125,0.0792236328125,0.96728515625
1629807859540,-0.2286376953125,0.08099365234375,0.9715576171875
1629807859602,-0.2236328125,0.07684326171875,0.96380615234375
1629807859602,-0.2236328125,0.08209228515625,0.96697998046875
1629807859602,-0.2264404296875,0.0806884765625,0.9669189453125
1629807859618,-0.22381591796875,0.0888671875,0.96636962890625
1629807859633,-0.22540283203125,0.0833740234375,0.96484375
1629807859633,-0.227294921875,0.0758056640625,0.9678955078125
1629807859712,-0.222412109375,0.08978271484375,0.972900390625
1629807859712,-0.2225341796875,0.08941650390625,0.97186279296875
1629807859712,-0.22607421875,0.0889892578125,0.97406005859375
1629807859743,-0.22259521484375,0.09295654296875,0.96307373046875
1629807859759,-0.22564697265625,0.09130859375,0.96783447265625
1629807859759,-0.22393798828125,0.093994140625,0.97296142578125
1629807859821,-0.2239990234375,0.09649658203125,0.96051025390625
1629807859821,-0.224365234375,0.0972900390625,0.965087890625
1629807859821,-0.22723388671875,0.096923828125,0.96185302734375
1629807859883,-0.22760009765625,0.09393310546875,0.95989990234375
1629807859883,-0.2249755859375,0.09552001953125,0.96209716796875
1629807859883,-0.22454833984375,0.09375,0.965087890625
1629807859961,-0.22509765625,0.08770751953125,0.96429443359375
1629807859961,-0.222900390625,0.08099365234375,0.97381591796875
1629807859977,-0.2198486328125,0.0797119140625,0.97821044921875
1629807859977,-0.22296142578125,0.083984375,0.9700927734375
1629807859977,-0.2193603515625,0.081298828125,0.973388671875
1629807859977,-0.21978759765625,0.080810546875,0.9688720703125
1629807860071,-0.21649169921875,0.0770263671875,0.97479248046875
1629807860071,-0.216552734375,0.0809326171875,0.9776611328125
1629807860086,-0.21502685546875,0.0799560546875,0.968994140625
1629807860118,-0.2186279296875,0.0809326171875,0.97259521484375
1629807860118,-0.2191162109375,0.07928466796875,0.96954345703125
1629807860118,-0.21832275390625,0.0784912109375,0.97467041015625
1629807860211,-0.22161865234375,0.07818603515625,0.9677734375
1629807860211,-0.22467041015625,0.07861328125,0.96710205078125
1629807860227,-0.2249755859375,0.0784912109375,0.96221923828125
1629807860243,-0.22430419921875,0.08050537109375,0.96331787109375
1629807860243,-0.22393798828125,0.079833984375,0.9632568359375
1629807860258,-0.22265625,0.08209228515625,0.96612548828125
1629807860290,-0.21826171875,0.087890625,0.9659423828125
1629807860290,-0.22161865234375,0.0855712890625,0.96630859375
1629807860290,-0.22503662109375,0.0848388671875,0.96826171875
1629807860352,-0.22186279296875,0.07275390625,0.96875
1629807860352,-0.22113037109375,0.07696533203125,0.96734619140625
1629807860368,-0.22406005859375,0.08612060546875,0.96795654296875
1629807860414,-0.215576171875,0.09027099609375,0.9705810546875
1629807860414,-0.222412109375,0.0806884765625,0.9678955078125
1629807860414,-0.2196044921875,0.07281494140625,0.97216796875
1629807860465,-0.2161865234375,0.0924072265625,0.97314453125
1629807860465,-0.216064453125,0.09820556640625,0.97210693359375
1629807860465,-0.2174072265625,0.095458984375,0.975830078125
1629807860528,-0.21759033203125,0.0889892578125,0.96746826171875
1629807860528,-0.21673583984375,0.09490966796875,0.96954345703125
1629807860528,-0.2230224609375,0.079345703125,0.96929931640625
1629807860636,-0.2203369140625,0.08123779296875,0.967529296875
1629807860636,-0.22320556640625,0.0797119140625,0.96343994140625
1629807860651,-0.2236328125,0.0789794921875,0.970703125
1629807860652,-0.2269287109375,0.07965087890625,0.9715576171875
1629807860666,-0.22344970703125,0.08111572265625,0.9678955078125
1629807860666,-0.22607421875,0.07501220703125,0.9669189453125
1629807860714,-0.22479248046875,0.07586669921875,0.97027587890625
1629807860714,-0.22137451171875,0.07672119140625,0.96954345703125
1629807860728,-0.22479248046875,0.08148193359375,0.964111328125
1629807860744,-0.22210693359375,0.08160400390625,0.97161865234375
1629807860760,-0.22283935546875,0.08013916015625,0.97265625
1629807860859,-0.22509765625,0.080322265625,0.9681396484375
1629807860859,-0.22125244140625,0.07904052734375,0.971435546875
1629807860859,-0.2235107421875,0.07769775390625,0.9678955078125
1629807860891,-0.22491455078125,0.08306884765625,0.9666748046875
1629807860891,-0.22589111328125,0.086181640625,0.9639892578125
1629807860891,-0.22430419921875,0.0810546875,0.9647216796875
1629807860921,-0.22760009765625,0.08428955078125,0.96453857421875
1629807860922,-0.2244873046875,0.08355712890625,0.96453857421875
1629807860937,-0.2265625,0.08392333984375,0.96588134765625
1629807860998,-0.2286376953125,0.07830810546875,0.9705810546875
1629807860999,-0.226806640625,0.0810546875,0.96575927734375
1629807861000,-0.22540283203125,0.0792236328125,0.9700927734375
1629807861092,-0.22509765625,0.07977294921875,0.97198486328125
1629807861092,-0.22808837890625,0.076171875,0.9688720703125
1629807861094,-0.22564697265625,0.07861328125,0.96942138671875
1629807861127,-0.22607421875,0.0799560546875,0.97137451171875
1629807861127,-0.22491455078125,0.0836181640625,0.970947265625
1629807861127,-0.22216796875,0.08111572265625,0.9669189453125
1629807861190,-0.226806640625,0.08843994140625,0.9703369140625
1629807861190,-0.22650146484375,0.08905029296875,0.96868896484375
1629807861205,-0.2275390625,0.08465576171875,0.97015380859375
1629807861221,-0.22796630859375,0.08563232421875,0.96380615234375
1629807861236,-0.22564697265625,0.08404541015625,0.9625244140625
1629807861236,-0.22979736328125,0.08917236328125,0.966552734375
1629807861330,-0.22650146484375,0.08197021484375,0.96881103515625
1629807861330,-0.22821044921875,0.088134765625,0.96722412109375
1629807861330,-0.2239990234375,0.08624267578125,0.96942138671875
1629807861361,-0.22906494140625,0.0810546875,0.96527099609375
1629807861361,-0.232177734375,0.0738525390625,0.9691162109375
1629807861377,-0.22607421875,0.08331298828125,0.9654541015625
1629807861443,-0.233642578125,0.07421875,0.960205078125
1629807861444,-0.230224609375,0.07177734375,0.96466064453125
1629807861445,-0.23138427734375,0.0830078125,0.96173095703125
1629807861457,-0.2235107421875,0.09197998046875,0.97222900390625
1629807861458,-0.22412109375,0.0914306640625,0.9620361328125
1629807861458,-0.23028564453125,0.08966064453125,0.96002197265625
1629807861576,-0.22320556640625,0.09381103515625,0.970703125
1629807861576,-0.224853515625,0.08935546875,0.97308349609375
1629807861576,-0.2218017578125,0.09637451171875,0.97149658203125
1629807861622,-0.22564697265625,0.0889892578125,0.96746826171875
1629807861623,-0.22479248046875,0.08746337890625,0.9608154296875
1629807861623,-0.22650146484375,0.08441162109375,0.96685791015625
1629807861653,-0.2266845703125,0.083251953125,0.9696044921875
1629807861653,-0.2235107421875,0.088134765625,0.96826171875
1629807861684,-0.2305908203125,0.0904541015625,0.96722412109375
1629807861684,-0.2265625,0.083984375,0.96990966796875
1629807861684,-0.22967529296875,0.090087890625,0.96453857421875
1629807861746,-0.223876953125,0.088623046875,0.9705810546875
1629807861746,-0.22833251953125,0.08734130859375,0.9678955078125
1629807861746,-0.2239990234375,0.0858154296875,0.97039794921875
1629807861855,-0.22637939453125,0.08868408203125,0.9705810546875
1629807861855,-0.22589111328125,0.090087890625,0.97210693359375
1629807861855,-0.22662353515625,0.08648681640625,0.96710205078125
1629807861871,-0.22747802734375,0.086669921875,0.96466064453125
1629807861871,-0.223388671875,0.08984375,0.96600341796875
1629807861871,-0.22662353515625,0.0855712890625,0.9678955078125
1629807861933,-0.22747802734375,0.09130859375,0.96295166015625
1629807861950,-0.224365234375,0.08935546875,0.96435546875
1629807861950,-0.2230224609375,0.09033203125,0.9649658203125
1629807862059,-0.225830078125,0.08831787109375,0.969482421875
1629807862063,-0.222412109375,0.08770751953125,0.96630859375
1629807862067,-0.22259521484375,0.08544921875,0.9676513671875
1629807862154,-0.22088623046875,0.0889892578125,0.96978759765625
1629807862154,-0.2216796875,0.08380126953125,0.9698486328125
1629807862155,-0.22210693359375,0.08392333984375,0.97235107421875
1629807862215,-0.220458984375,0.0914306640625,0.9705810546875
1629807862215,-0.22161865234375,0.085693359375,0.97454833984375
1629807862215,-0.21856689453125,0.09130859375,0.9730224609375
1629807862232,-0.2230224609375,0.09075927734375,0.97088623046875
1629807862232,-0.21856689453125,0.09576416015625,0.97308349609375
1629807862232,-0.2218017578125,0.09173583984375,0.96759033203125
1629807862260,-0.21893310546875,0.09130859375,0.9664306640625
1629807862276,-0.23052978515625,0.0848388671875,0.96942138671875
1629807862278,-0.2232666015625,0.08880615234375,0.96490478515625
1629807862278,-0.2220458984375,0.08843994140625,0.968505859375
1629807862301,-0.228271484375,0.086181640625,0.9718017578125
1629807862302,-0.22271728515625,0.0869140625,0.96575927734375
1629807862354,-0.24554443359375,0.06658935546875,0.976806640625
1629807862354,-0.23577880859375,0.07733154296875,0.9671630859375
1629807862354,-0.22381591796875,0.08197021484375,0.9632568359375
1629807862434,-0.22637939453125,0.08148193359375,0.9652099609375
1629807862434,-0.22833251953125,0.0784912109375,0.96295166015625
1629807862449,-0.2269287109375,0.07427978515625,0.96502685546875
1629807862541,-0.2210693359375,0.09027099609375,0.96160888671875
1629807862541,-0.22601318359375,0.09039306640625,0.9677734375
1629807862542,-0.22412109375,0.083984375,0.9705810546875
1629807862557,-0.22161865234375,0.09423828125,0.96875
1629807862557,-0.22515869140625,0.092041015625,0.96661376953125
1629807862568,-0.2249755859375,0.08868408203125,0.96734619140625
1629807862590,-0.22491455078125,0.08734130859375,0.9697265625
1629807862605,-0.224853515625,0.09088134765625,0.96826171875
1629807862605,-0.22369384765625,0.08624267578125,0.96405029296875
1629807862635,-0.22113037109375,0.08343505859375,0.96600341796875
1629807862636,-0.23345947265625,0.0755615234375,0.96746826171875
1629807862636,-0.2275390625,0.08575439453125,0.96795654296875
1629807862730,-0.22808837890625,0.08685302734375,0.96868896484375
1629807862730,-0.22674560546875,0.0892333984375,0.968994140625
1629807862749,-0.22442626953125,0.0867919921875,0.96905517578125
1629807862761,-0.22686767578125,0.083984375,0.97637939453125
1629807862762,-0.2274169921875,0.0858154296875,0.9703369140625
1629807862764,-0.2265625,0.0848388671875,0.97119140625
1629807862855,-0.22833251953125,0.08740234375,0.9642333984375
1629807862855,-0.2274169921875,0.08221435546875,0.963134765625
1629807862855,-0.23004150390625,0.0877685546875,0.96044921875
1629807862935,-0.2281494140625,0.08935546875,0.96209716796875
1629807862953,-0.2279052734375,0.085205078125,0.96612548828125
1629807862953,-0.231689453125,0.08892822265625,0.96209716796875
1629807862953,-0.2274169921875,0.08953857421875,0.9615478515625
1629807862963,-0.2281494140625,0.08807373046875,0.96221923828125
1629807862965,-0.2279052734375,0.08563232421875,0.96478271484375
1629807862985,-0.22686767578125,0.0802001953125,0.96600341796875
1629807862997,-0.2254638671875,0.080078125,0.966796875
1629807862997,-0.2276611328125,0.0772705078125,0.9681396484375
1629807863059,-0.22845458984375,0.081298828125,0.96746826171875
1629807863060,-0.22808837890625,0.08111572265625,0.9688720703125
1629807863060,-0.22247314453125,0.0865478515625,0.9691162109375
1629807863136,-0.22705078125,0.086669921875,0.97076416015625
1629807863136,-0.22845458984375,0.084228515625,0.97259521484375
1629807863136,-0.226806640625,0.08758544921875,0.96893310546875
1629807863167,-0.2271728515625,0.090576171875,0.96630859375
1629807863168,-0.2259521484375,0.08935546875,0.96539306640625
1629807863168,-0.23101806640625,0.09259033203125,0.9647216796875
1629807863247,-0.22467041015625,0.0955810546875,0.9654541015625
1629807863247,-0.22796630859375,0.09716796875,0.96832275390625
1629807863293,-0.23162841796875,0.083740234375,0.96563720703125
1629807863294,-0.23150634765625,0.09320068359375,0.96246337890625
1629807863294,-0.23126220703125,0.09503173828125,0.96502685546875
1629807863324,-0.23602294921875,0.0755615234375,0.96014404296875
1629807863324,-0.22540283203125,0.0880126953125,0.96173095703125
1629807863325,-0.2340087890625,0.0855712890625,0.9622802734375
1629807863418,-0.22052001953125,0.091064453125,0.968505859375
1629807863418,-0.2183837890625,0.0982666015625,0.970703125
1629807863418,-0.2227783203125,0.0921630859375,0.96502685546875
1629807863497,-0.22271728515625,0.08795166015625,0.97479248046875
1629807863498,-0.2178955078125,0.0908203125,0.97454833984375
1629807863498,-0.218505859375,0.09356689453125,0.96978759765625
1629807863563,-0.22418212890625,0.08843994140625,0.9725341796875
1629807863563,-0.2213134765625,0.0877685546875,0.96539306640625
1629807863563,-0.2244873046875,0.085205078125,0.97283935546875
1629807863610,-0.2279052734375,0.08343505859375,0.970458984375
1629807863610,-0.2259521484375,0.0855712890625,0.97235107421875
1629807863610,-0.23193359375,0.078857421875,0.9705810546875
1629807863657,-0.22821044921875,0.0889892578125,0.96636962890625
1629807863657,-0.228515625,0.0899658203125,0.9632568359375
1629807863657,-0.2301025390625,0.08758544921875,0.964111328125
1629807863688,-0.22808837890625,0.0904541015625,0.9681396484375
1629807863688,-0.22705078125,0.091064453125,0.97039794921875
1629807863688,-0.22747802734375,0.09246826171875,0.969970703125
1629807863766,-0.22967529296875,0.08966064453125,0.96630859375
1629807863766,-0.22906494140625,0.08941650390625,0.96295166015625
1629807863766,-0.230712890625,0.0909423828125,0.96771240234375
1629807863829,-0.2291259765625,0.09051513671875,0.965576171875
1629807863829,-0.2301025390625,0.0894775390625,0.96051025390625
1629807863829,-0.22906494140625,0.0904541015625,0.96270751953125
1629807863860,-0.22943115234375,0.08978271484375,0.9635009765625
1629807863860,-0.2293701171875,0.0911865234375,0.96551513671875
1629807863860,-0.2298583984375,0.0924072265625,0.9608154296875
1629807863985,-0.2225341796875,0.0858154296875,0.97332763671875
1629807863985,-0.22991943359375,0.08843994140625,0.965576171875
1629807863985,-0.2239990234375,0.08447265625,0.9720458984375
1629807863985,-0.2301025390625,0.0872802734375,0.9713134765625
1629807863985,-0.2239990234375,0.086181640625,0.96942138671875
1629807863985,-0.22607421875,0.08404541015625,0.9716796875
1629807864096,-0.2275390625,0.08856201171875,0.966796875
1629807864096,-0.22747802734375,0.08392333984375,0.9705810546875
1629807864096,-0.22320556640625,0.085205078125,0.97296142578125
1629807864127,-0.22503662109375,0.08831787109375,0.965576171875
1629807864127,-0.22625732421875,0.0938720703125,0.96490478515625
1629807864142,-0.223876953125,0.08905029296875,0.9686279296875
1629807864174,-0.22662353515625,0.0911865234375,0.9599609375
1629807864174,-0.23004150390625,0.08984375,0.9630126953125
1629807864174,-0.22607421875,0.0885009765625,0.9686279296875
1629807864268,-0.2242431640625,0.0909423828125,0.96551513671875
1629807864268,-0.23150634765625,0.092041015625,0.9691162109375
1629807864268,-0.22796630859375,0.09075927734375,0.96417236328125
1629807864299,-0.23138427734375,0.07366943359375,0.96661376953125
1629807864299,-0.23077392578125,0.0750732421875,0.96435546875
1629807864299,-0.23291015625,0.0845947265625,0.9691162109375
1629807864345,-0.228271484375,0.0828857421875,0.96630859375
1629807864345,-0.224365234375,0.08966064453125,0.97064208984375
1629807864345,-0.22479248046875,0.08984375,0.96563720703125
1629807864408,-0.22119140625,0.09210205078125,0.97271728515625
1629807864408,-0.2216796875,0.0916748046875,0.96978759765625
1629807864408,-0.22137451171875,0.09295654296875,0.969482421875
1629807864477,-0.227783203125,0.08428955078125,0.96588134765625
1629807864477,-0.22637939453125,0.09014892578125,0.971435546875
1629807864477,-0.22882080078125,0.08013916015625,0.96929931640625
1629807864574,-0.23095703125,0.08514404296875,0.968994140625
1629807864575,-0.22705078125,0.086669921875,0.9678955078125
1629807864575,-0.22833251953125,0.0784912109375,0.96661376953125
1629807864602,-0.23309326171875,0.08099365234375,0.97113037109375
1629807864602,-0.22650146484375,0.082763671875,0.96893310546875
1629807864603,-0.23260498046875,0.08453369140625,0.96697998046875
1629807864680,-0.228271484375,0.086181640625,0.96551513671875
1629807864680,-0.23272705078125,0.08575439453125,0.967041015625
1629807864680,-0.23101806640625,0.08551025390625,0.96563720703125
1629807864696,-0.23443603515625,0.0867919921875,0.96722412109375
1629807864696,-0.23211669921875,0.0872802734375,0.96893310546875
1629807864696,-0.23382568359375,0.08831787109375,0.96588134765625
1629807864776,-0.2374267578125,0.09075927734375,0.95819091796875
1629807864776,-0.235107421875,0.08563232421875,0.96380615234375
1629807864790,-0.23345947265625,0.08514404296875,0.962158203125
1629807864823,-0.23333740234375,0.09600830078125,0.96099853515625
1629807864823,-0.23699951171875,0.0909423828125,0.95916748046875
1629807864823,-0.2354736328125,0.09393310546875,0.96051025390625
1629807864861,-0.23291015625,0.08990478515625,0.96148681640625
1629807864861,-0.2330322265625,0.09088134765625,0.96331787109375
1629807864861,-0.23272705078125,0.08770751953125,0.9647216796875
1629807864955,-0.23236083984375,0.078857421875,0.96771240234375
1629807864955,-0.2320556640625,0.08111572265625,0.96636962890625
1629807864955,-0.2320556640625,0.08270263671875,0.96563720703125
1629807865064,-0.23089599609375,0.0833740234375,0.96893310546875
1629807865064,-0.23162841796875,0.0811767578125,0.97076416015625
1629807865064,-0.2333984375,0.08074951171875,0.96746826171875
1629807865080,-0.22906494140625,0.08538818359375,0.96649169921875
1629807865087,-0.2291259765625,0.08538818359375,0.96630859375
1629807865087,-0.231689453125,0.08209228515625,0.96771240234375
1629807865140,-0.2301025390625,0.0919189453125,0.96453857421875
1629807865140,-0.2314453125,0.08782958984375,0.96612548828125
1629807865140,-0.22998046875,0.09039306640625,0.963134765625
1629807865218,-0.2314453125,0.08892822265625,0.96441650390625
1629807865218,-0.23272705078125,0.0928955078125,0.9637451171875
1629807865218,-0.23095703125,0.091064453125,0.96685791015625
1629807865249,-0.22967529296875,0.087646484375,0.96502685546875
1629807865249,-0.22845458984375,0.094970703125,0.96612548828125
1629807865249,-0.22747802734375,0.0931396484375,0.96337890625
1629807865327,-0.228515625,0.08502197265625,0.96185302734375
1629807865327,-0.23065185546875,0.0833740234375,0.96893310546875
1629807865327,-0.23541259765625,0.078125,0.961181640625
1629807865343,-0.227294921875,0.089599609375,0.96343994140625
1629807865358,-0.2230224609375,0.09063720703125,0.96734619140625
1629807865358,-0.221923828125,0.091552734375,0.970458984375
1629807865421,-0.22003173828125,0.08953857421875,0.96875
1629807865421,-0.22027587890625,0.09375,0.97100830078125
1629807865421,-0.2218017578125,0.0897216796875,0.96929931640625
1629807865468,-0.22650146484375,0.08526611328125,0.9700927734375
1629807865468,-0.22503662109375,0.085693359375,0.9698486328125
1629807865468,-0.223876953125,0.08355712890625,0.96917724609375
1629807865530,-0.22393798828125,0.0819091796875,0.97125244140625
1629807865530,-0.22149658203125,0.08599853515625,0.965576171875
1629807865530,-0.22186279296875,0.08624267578125,0.971923828125
1629807865577,-0.22271728515625,0.085693359375,0.9678955078125
1629807865593,-0.2249755859375,0.0771484375,0.97283935546875
1629807865593,-0.22265625,0.0789794921875,0.97137451171875
1629807865655,-0.22332763671875,0.07965087890625,0.96978759765625
1629807865655,-0.223876953125,0.08123779296875,0.96905517578125
1629807865655,-0.22314453125,0.079345703125,0.97027587890625
1629807865733,-0.22076416015625,0.08673095703125,0.96417236328125
1629807865733,-0.22406005859375,0.08721923828125,0.97119140625
1629807865733,-0.22259521484375,0.0849609375,0.96405029296875
1629807865764,-0.22528076171875,0.08843994140625,0.9617919921875
1629807865764,-0.224609375,0.0887451171875,0.96173095703125
1629807865764,-0.22552490234375,0.08856201171875,0.965576171875
1629807865843,-0.22454833984375,0.08953857421875,0.965087890625
1629807865843,-0.2225341796875,0.094482421875,0.96368408203125
1629807865843,-0.22088623046875,0.09423828125,0.95953369140625
1629807865969,-0.21258544921875,0.08795166015625,0.97467041015625
1629807865969,-0.2164306640625,0.088623046875,0.9705810546875
1629807865969,-0.22314453125,0.094970703125,0.96783447265625
1629807865984,-0.21246337890625,0.08203125,0.97772216796875
1629807865984,-0.21185302734375,0.08477783203125,0.9737548828125
1629807865984,-0.20989990234375,0.08758544921875,0.9764404296875
1629807866015,-0.2127685546875,0.085205078125,0.97943115234375
1629807866015,-0.21484375,0.0872802734375,0.97900390625
1629807866015,-0.20843505859375,0.0897216796875,0.97222900390625
1629807866078,-0.21429443359375,0.0908203125,0.969970703125
1629807866078,-0.2142333984375,0.09271240234375,0.9676513671875
1629807866078,-0.2164306640625,0.088134765625,0.9696044921875
1629807866124,-0.211181640625,0.0946044921875,0.9705810546875
1629807866124,-0.21337890625,0.0926513671875,0.96807861328125
1629807866124,-0.2156982421875,0.094482421875,0.9696044921875
1629807866203,-0.22076416015625,0.0914306640625,0.9677734375
1629807866203,-0.21600341796875,0.09222412109375,0.97467041015625
1629807866203,-0.2154541015625,0.09381103515625,0.973876953125
1629807866234,-0.222900390625,0.08154296875,0.9619140625
1629807866234,-0.21710205078125,0.09027099609375,0.96160888671875
1629807866234,-0.22186279296875,0.09002685546875,0.9666748046875
1629807866344,-0.222412109375,0.07623291015625,0.966064453125
1629807866344,-0.21722412109375,0.0921630859375,0.966796875
1629807866344,-0.2154541015625,0.0938720703125,0.97021484375
1629807866344,-0.21649169921875,0.0985107421875,0.97418212890625
1629807866344,-0.22552490234375,0.082763671875,0.9654541015625
1629807866359,-0.22100830078125,0.09228515625,0.9744873046875
1629807866428,-0.2213134765625,0.091552734375,0.966796875
1629807866428,-0.2210693359375,0.087646484375,0.96484375
1629807866428,-0.2158203125,0.0947265625,0.966796875
1629807866506,-0.2244873046875,0.08837890625,0.9659423828125
1629807866506,-0.2254638671875,0.087646484375,0.96868896484375
1629807866521,-0.22076416015625,0.0924072265625,0.966552734375
1629807866521,-0.22100830078125,0.0911865234375,0.96435546875
1629807866521,-0.2222900390625,0.0838623046875,0.96881103515625
1629807866521,-0.22344970703125,0.0916748046875,0.9609375
1629807866615,-0.2208251953125,0.0924072265625,0.965087890625
1629807866615,-0.22076416015625,0.089599609375,0.96820068359375
1629807866615,-0.2200927734375,0.0924072265625,0.96875
1629807866631,-0.218017578125,0.09161376953125,0.96728515625
1629807866631,-0.21636962890625,0.09307861328125,0.97216796875
1629807866646,-0.2177734375,0.09478759765625,0.974365234375
1629807866725,-0.21612548828125,0.09466552734375,0.96820068359375
1629807866740,-0.216552734375,0.09783935546875,0.97161865234375
1629807866740,-0.21868896484375,0.09356689453125,0.96807861328125
1629807866818,-0.2161865234375,0.09503173828125,0.97137451171875
1629807866818,-0.21771240234375,0.095703125,0.97198486328125
1629807866818,-0.218505859375,0.09075927734375,0.9793701171875
1629807866818,-0.21502685546875,0.1005859375,0.97296142578125
1629807866818,-0.21710205078125,0.10028076171875,0.97418212890625
1629807866818,-0.21710205078125,0.09429931640625,0.97900390625
1629807866912,-0.21990966796875,0.076416015625,0.971435546875
1629807866912,-0.215576171875,0.07879638671875,0.9761962890625
1629807866912,-0.2156982421875,0.08428955078125,0.974609375
1629807866928,-0.21990966796875,0.08746337890625,0.96466064453125
1629807866928,-0.21728515625,0.08026123046875,0.9713134765625
1629807866928,-0.21722412109375,0.08197021484375,0.96923828125
1629807867037,-0.2218017578125,0.0943603515625,0.96044921875
1629807867037,-0.22344970703125,0.09869384765625,0.96356201171875
1629807867037,-0.2215576171875,0.09893798828125,0.96234130859375
1629807867068,-0.22283935546875,0.0919189453125,0.96600341796875
1629807867084,-0.2232666015625,0.09051513671875,0.96148681640625
1629807867084,-0.22210693359375,0.091552734375,0.96405029296875
1629807867115,-0.22119140625,0.08740234375,0.96295166015625
1629807867115,-0.22357177734375,0.089111328125,0.9647216796875
1629807867115,-0.224609375,0.09027099609375,0.97088623046875
1629807867162,-0.2257080078125,0.09228515625,0.9713134765625
1629807867178,-0.22308349609375,0.0963134765625,0.9813232421875
1629807867178,-0.22735595703125,0.09075927734375,0.9678955078125
1629807867241,-0.23419189453125,0.0750732421875,0.9638671875
1629807867241,-0.23065185546875,0.08154296875,0.95880126953125
1629807867241,-0.22802734375,0.082763671875,0.96868896484375
1629807867287,-0.22650146484375,0.083740234375,0.96234130859375
1629807867287,-0.22711181640625,0.09228515625,0.96307373046875
1629807867303,-0.22198486328125,0.09405517578125,0.9677734375
1629807867365,-0.22021484375,0.0909423828125,0.966552734375
1629807867365,-0.2158203125,0.089599609375,0.9664306640625
1629807867381,-0.2216796875,0.0870361328125,0.96783447265625
1629807867430,-0.22314453125,0.083984375,0.9666748046875
1629807867430,-0.22064208984375,0.083740234375,0.96722412109375
1629807867430,-0.22174072265625,0.0814208984375,0.96771240234375
1629807867461,-0.2197265625,0.08837890625,0.972900390625
1629807867461,-0.2216796875,0.079833984375,0.9697265625
1629807867461,-0.22119140625,0.08349609375,0.9718017578125
1629807867524,-0.220947265625,0.07952880859375,0.9744873046875
1629807867524,-0.22119140625,0.080810546875,0.97589111328125
1629807867524,-0.22015380859375,0.0838623046875,0.974853515625
1629807867571,-0.2271728515625,0.08465576171875,0.9725341796875
1629807867586,-0.21966552734375,0.08349609375,0.97064208984375
1629807867586,-0.2203369140625,0.08624267578125,0.97344970703125
1629807867664,-0.224365234375,0.0849609375,0.97021484375
1629807867664,-0.2259521484375,0.08538818359375,0.97332763671875
1629807867680,-0.22808837890625,0.08514404296875,0.967529296875
1629807867742,-0.231201171875,0.085693359375,0.9583740234375
1629807867742,-0.22711181640625,0.08795166015625,0.96282958984375
1629807867742,-0.2313232421875,0.08612060546875,0.96002197265625
1629807867821,-0.2296142578125,0.0888671875,0.95526123046875
1629807867821,-0.22894287109375,0.08758544921875,0.95892333984375
1629807867821,-0.2296142578125,0.08721923828125,0.95977783203125
1629807867852,-0.2200927734375,0.0916748046875,0.9658203125
1629807867852,-0.22418212890625,0.0948486328125,0.964111328125
1629807867852,-0.22662353515625,0.09295654296875,0.96142578125
1629807867883,-0.21990966796875,0.092529296875,0.9669189453125
1629807867899,-0.21844482421875,0.09100341796875,0.96630859375
1629807867899,-0.21502685546875,0.0899658203125,0.97064208984375
1629807867961,-0.22235107421875,0.08880615234375,0.9737548828125
1629807867961,-0.216064453125,0.08941650390625,0.9771728515625
1629807867961,-0.21746826171875,0.0914306640625,0.97247314453125
1629807868008,-0.21844482421875,0.0865478515625,0.97467041015625
1629807868008,-0.21783447265625,0.08856201171875,0.9769287109375
1629807868024,-0.217529296875,0.08892822265625,0.97003173828125
1629807868086,-0.22210693359375,0.08624267578125,0.97479248046875
1629807868086,-0.22039794921875,0.09149169921875,0.9638671875
1629807868102,-0.22412109375,0.08612060546875,0.97064208984375
1629807868133,-0.2247314453125,0.0771484375,0.96319580078125
1629807868133,-0.22625732421875,0.0833740234375,0.96759033203125
1629807868133,-0.22625732421875,0.07318115234375,0.96197509765625
1629807868227,-0.22528076171875,0.081787109375,0.9625244140625
1629807868227,-0.21868896484375,0.0968017578125,0.96893310546875
1629807868227,-0.220947265625,0.09130859375,0.96417236328125
1629807868258,-0.2152099609375,0.10009765625,0.97186279296875
1629807868258,-0.2171630859375,0.09686279296875,0.97052001953125
1629807868258,-0.2197265625,0.097900390625,0.9688720703125
1629807868336,-0.223876953125,0.08587646484375,0.9696044921875
1629807868336,-0.21734619140625,0.0911865234375,0.9683837890625
1629807868336,-0.21832275390625,0.08892822265625,0.96875
1629807868352,-0.22021484375,0.08746337890625,0.97607421875
1629807868352,-0.21844482421875,0.08551025390625,0.9718017578125
1629807868352,-0.21722412109375,0.08349609375,0.97119140625
1629807868416,-0.2191162109375,0.0836181640625,0.97271728515625
1629807868416,-0.22454833984375,0.08770751953125,0.96441650390625
1629807868416,-0.222900390625,0.08087158203125,0.968994140625
1629807868527,-0.22491455078125,0.087158203125,0.96466064453125
1629807868527,-0.22576904296875,0.08544921875,0.9647216796875
1629807868527,-0.22515869140625,0.08349609375,0.9693603515625
1629807868558,-0.22589111328125,0.08831787109375,0.96905517578125
1629807868574,-0.22467041015625,0.089599609375,0.97149658203125
1629807868574,-0.22564697265625,0.089111328125,0.972412109375
1629807868589,-0.225341796875,0.0931396484375,0.9647216796875
1629807868589,-0.224609375,0.0931396484375,0.9639892578125
1629807868589,-0.22467041015625,0.0908203125,0.9658203125
1629807868652,-0.22833251953125,0.09515380859375,0.96502685546875
1629807868652,-0.22576904296875,0.090576171875,0.9619140625
1629807868652,-0.22650146484375,0.09307861328125,0.96234130859375
1629807868746,-0.22222900390625,0.0841064453125,0.9677734375
1629807868746,-0.22259521484375,0.0909423828125,0.96478271484375
1629807868746,-0.2265625,0.09283447265625,0.96630859375
1629807868793,-0.22430419921875,0.0843505859375,0.97247314453125
1629807868793,-0.22222900390625,0.08416748046875,0.9720458984375
1629807868793,-0.219482421875,0.0875244140625,0.96905517578125
1629807868808,-0.2193603515625,0.0826416015625,0.97418212890625
1629807868808,-0.2193603515625,0.08404541015625,0.97216796875
1629807868824,-0.21923828125,0.08038330078125,0.975341796875
1629807868902,-0.219482421875,0.087890625,0.97430419921875
1629807868902,-0.21771240234375,0.0843505859375,0.969482421875
1629807868902,-0.21942138671875,0.08416748046875,0.96881103515625
1629807868980,-0.219482421875,0.09033203125,0.9696044921875
1629807868980,-0.22052001953125,0.08837890625,0.97039794921875
1629807868980,-0.22296142578125,0.091064453125,0.96234130859375
1629807869058,-0.2252197265625,0.08563232421875,0.96673583984375
1629807869058,-0.226806640625,0.07177734375,0.961181640625
1629807869058,-0.2261962890625,0.079833984375,0.96246337890625
1629807869089,-0.21893310546875,0.0941162109375,0.964599609375
1629807869089,-0.2222900390625,0.080078125,0.96533203125
1629807869089,-0.2227783203125,0.0830078125,0.965087890625
1629807869136,-0.21795654296875,0.09454345703125,0.97052001953125
1629807869136,-0.21868896484375,0.09619140625,0.9718017578125
1629807869136,-0.21917724609375,0.09735107421875,0.971435546875
1629807869183,-0.2203369140625,0.08697509765625,0.967041015625
1629807869183,-0.22576904296875,0.08148193359375,0.96929931640625
1629807869183,-0.21978759765625,0.09344482421875,0.96942138671875
1629807869246,-0.22418212890625,0.0765380859375,0.96844482421875
1629807869261,-0.224609375,0.08721923828125,0.96942138671875
1629807869261,-0.22357177734375,0.0821533203125,0.975341796875
1629807869339,-0.2230224609375,0.08251953125,0.9718017578125
1629807869339,-0.224609375,0.091796875,0.9686279296875
1629807869339,-0.22344970703125,0.0836181640625,0.96923828125
1629807869386,-0.226318359375,0.08990478515625,0.96875
1629807869386,-0.2216796875,0.08843994140625,0.96844482421875
1629807869402,-0.22314453125,0.087890625,0.96771240234375
1629807869449,-0.21966552734375,0.083251953125,0.97100830078125
1629807869449,-0.2257080078125,0.0830078125,0.968994140625
1629807869449,-0.22265625,0.0858154296875,0.97027587890625
1629807869464,-0.22564697265625,0.08984375,0.96221923828125
1629807869464,-0.22808837890625,0.08935546875,0.96209716796875
1629807869464,-0.2269287109375,0.08587646484375,0.9659423828125
1629807869542,-0.2303466796875,0.09063720703125,0.96026611328125
1629807869542,-0.2294921875,0.08978271484375,0.96185302734375
1629807869542,-0.2283935546875,0.09136962890625,0.9619140625
1629807869667,-0.22479248046875,0.087158203125,0.9619140625
1629807869667,-0.22607421875,0.086669921875,0.9642333984375
1629807869667,-0.2301025390625,0.08905029296875,0.96258544921875
1629807869714,-0.22100830078125,0.0882568359375,0.96917724609375
1629807869714,-0.22479248046875,0.0882568359375,0.96649169921875
1629807869714,-0.221923828125,0.08905029296875,0.9718017578125
1629807869730,-0.21978759765625,0.086669921875,0.9752197265625
1629807869730,-0.2264404296875,0.08551025390625,0.97467041015625
1629807869730,-0.22113037109375,0.089111328125,0.9722900390625
1629807869792,-0.2156982421875,0.08697509765625,0.97747802734375
1629807869792,-0.21856689453125,0.08782958984375,0.9742431640625
1629807869808,-0.217529296875,0.08709716796875,0.97552490234375
1629807869839,-0.2235107421875,0.09014892578125,0.97296142578125
1629807869839,-0.22174072265625,0.09100341796875,0.9786376953125
1629807869839,-0.2181396484375,0.0888671875,0.97698974609375
1629807869902,-0.228271484375,0.08935546875,0.96697998046875
1629807869902,-0.2320556640625,0.08001708984375,0.96307373046875
1629807869902,-0.22796630859375,0.0885009765625,0.957763671875
1629807869933,-0.2327880859375,0.07403564453125,0.9581298828125
1629807869933,-0.23687744140625,0.0699462890625,0.95770263671875
1629807869933,-0.23272705078125,0.0792236328125,0.9581298828125
1629807870054,-0.23126220703125,0.0836181640625,0.958740234375
1629807870070,-0.22821044921875,0.0830078125,0.95709228515625
1629807870070,-0.23004150390625,0.09033203125,0.96636962890625
1629807870101,-0.2283935546875,0.0946044921875,0.96405029296875
1629807870101,-0.2249755859375,0.0926513671875,0.96343994140625
1629807870101,-0.23114013671875,0.09320068359375,0.96466064453125
1629807870147,-0.23211669921875,0.09613037109375,0.96649169921875
1629807870147,-0.23095703125,0.0928955078125,0.966552734375
1629807870162,-0.22967529296875,0.09271240234375,0.96527099609375
1629807870243,-0.232421875,0.090087890625,0.9700927734375
1629807870243,-0.23162841796875,0.083740234375,0.97113037109375
1629807870243,-0.2296142578125,0.09521484375,0.96966552734375
1629807870287,-0.23004150390625,0.0908203125,0.9678955078125
1629807870288,-0.232177734375,0.089111328125,0.96612548828125
1629807870288,-0.2327880859375,0.08868408203125,0.96612548828125
1629807870318,-0.23150634765625,0.08624267578125,0.9678955078125
1629807870320,-0.2330322265625,0.08673095703125,0.97064208984375
1629807870334,-0.2327880859375,0.09027099609375,0.96783447265625
1629807870365,-0.23272705078125,0.08856201171875,0.961181640625
1629807870365,-0.23443603515625,0.08819580078125,0.9599609375
1629807870365,-0.22998046875,0.08721923828125,0.96209716796875
1629807870416,-0.2337646484375,0.091552734375,0.96051025390625
1629807870416,-0.22882080078125,0.0889892578125,0.96014404296875
1629807870417,-0.23211669921875,0.090576171875,0.9619140625
1629807870475,-0.22998046875,0.09197998046875,0.95953369140625
1629807870475,-0.22979736328125,0.08441162109375,0.96417236328125
1629807870476,-0.22637939453125,0.087158203125,0.9639892578125
1629807870539,-0.2247314453125,0.08331298828125,0.96990966796875
1629807870539,-0.2244873046875,0.08544921875,0.9666748046875
1629807870540,-0.22418212890625,0.08349609375,0.96990966796875
1629807870616,-0.22174072265625,0.08465576171875,0.9730224609375
1629807870616,-0.2230224609375,0.08319091796875,0.9742431640625
1629807870618,-0.2198486328125,0.08624267578125,0.9744873046875
1629807870654,-0.2196044921875,0.0869140625,0.9713134765625
1629807870655,-0.2222900390625,0.08489990234375,0.97393798828125
1629807870663,-0.22283935546875,0.082763671875,0.970703125
1629807870727,-0.2215576171875,0.0869140625,0.96783447265625
1629807870727,-0.2254638671875,0.0894775390625,0.97039794921875
1629807870727,-0.224365234375,0.0880126953125,0.968017578125
1629807870790,-0.222900390625,0.08978271484375,0.97100830078125
1629807870790,-0.2242431640625,0.093505859375,0.97052001953125
1629807870790,-0.22418212890625,0.09271240234375,0.9609375
1629807870837,-0.22991943359375,0.076171875,0.95684814453125
1629807870837,-0.226806640625,0.08123779296875,0.9654541015625
1629807870837,-0.22882080078125,0.0755615234375,0.96173095703125
1629807870914,-0.2169189453125,0.08502197265625,0.9718017578125
1629807870914,-0.22003173828125,0.08636474609375,0.9686279296875
1629807870915,-0.2261962890625,0.08099365234375,0.96337890625
1629807871007,-0.2205810546875,0.09320068359375,0.96966552734375
1629807871007,-0.214599609375,0.0865478515625,0.97259521484375
1629807871007,-0.22064208984375,0.0933837890625,0.9703369140625
1629807871075,-0.2196044921875,0.08929443359375,0.96746826171875
1629807871090,-0.22015380859375,0.08978271484375,0.9703369140625
1629807871102,-0.2235107421875,0.0860595703125,0.970947265625
1629807871118,-0.2208251953125,0.0850830078125,0.96630859375
1629807871123,-0.221923828125,0.08416748046875,0.97283935546875
1629807871123,-0.2186279296875,0.07684326171875,0.967529296875
1629807871148,-0.22222900390625,0.08197021484375,0.96893310546875
1629807871148,-0.22357177734375,0.08038330078125,0.96820068359375
1629807871148,-0.22149658203125,0.0838623046875,0.970703125
1629807871196,-0.22216796875,0.08587646484375,0.97015380859375
1629807871196,-0.22216796875,0.09088134765625,0.97119140625
1629807871196,-0.22174072265625,0.09197998046875,0.97149658203125
1629807871276,-0.2203369140625,0.08758544921875,0.9681396484375
1629807871276,-0.22076416015625,0.09246826171875,0.968994140625
1629807871277,-0.21875,0.0933837890625,0.97119140625
1629807871294,-0.22442626953125,0.08502197265625,0.96240234375
1629807871294,-0.22430419921875,0.0863037109375,0.964599609375
1629807871294,-0.2227783203125,0.08477783203125,0.96490478515625
1629807871335,-0.2237548828125,0.0880126953125,0.96484375
1629807871335,-0.22418212890625,0.08746337890625,0.9638671875
1629807871335,-0.22430419921875,0.0924072265625,0.96173095703125
1629807871445,-0.2235107421875,0.08868408203125,0.9644775390625
1629807871446,-0.22216796875,0.08758544921875,0.96539306640625
1629807871446,-0.21917724609375,0.08880615234375,0.97027587890625
1629807871476,-0.2166748046875,0.08392333984375,0.97186279296875
1629807871476,-0.2200927734375,0.0855712890625,0.9713134765625
1629807871477,-0.2200927734375,0.08587646484375,0.97357177734375
1629807871589,-0.2156982421875,0.08929443359375,0.97222900390625
1629807871589,-0.2156982421875,0.08905029296875,0.97576904296875
1629807871589,-0.2166748046875,0.0897216796875,0.97186279296875
1629807871652,-0.21978759765625,0.08807373046875,0.971435546875
1629807871652,-0.21881103515625,0.08746337890625,0.96881103515625
1629807871652,-0.218994140625,0.0897216796875,0.96728515625
1629807871714,-0.2225341796875,0.08953857421875,0.96832275390625
1629807871714,-0.22149658203125,0.09063720703125,0.9644775390625
1629807871716,-0.21875,0.0863037109375,0.965087890625
1629807871730,-0.2269287109375,0.08233642578125,0.95843505859375
1629807871730,-0.2261962890625,0.08770751953125,0.96392822265625
1629807871730,-0.22711181640625,0.08447265625,0.96807861328125
1629807871778,-0.22491455078125,0.0870361328125,0.96087646484375
1629807871778,-0.2176513671875,0.09539794921875,0.96502685546875
1629807871778,-0.21649169921875,0.09686279296875,0.9688720703125
1629807871856,-0.213134765625,0.09454345703125,0.97369384765625
1629807871856,-0.21649169921875,0.09466552734375,0.97509765625
1629807871856,-0.2125244140625,0.09576416015625,0.97198486328125
1629807871919,-0.2205810546875,0.0848388671875,0.969970703125
1629807871919,-0.21875,0.0875244140625,0.9700927734375
1629807871919,-0.2177734375,0.092529296875,0.9688720703125
1629807871982,-0.2186279296875,0.08734130859375,0.97052001953125
1629807871982,-0.21917724609375,0.08868408203125,0.97027587890625
1629807871983,-0.2232666015625,0.0819091796875,0.9697265625
1629807872014,-0.2178955078125,0.08111572265625,0.9696044921875
1629807872015,-0.22174072265625,0.0828857421875,0.9697265625
1629807872015,-0.22021484375,0.0904541015625,0.9705810546875
1629807872109,-0.22198486328125,0.0887451171875,0.96881103515625
1629807872109,-0.22186279296875,0.08984375,0.97235107421875
1629807872109,-0.21942138671875,0.088134765625,0.96832275390625
1629807872140,-0.22088623046875,0.0919189453125,0.972900390625
1629807872140,-0.22021484375,0.09686279296875,0.97320556640625
1629807872140,-0.2191162109375,0.091796875,0.96624755859375
1629807872156,-0.22601318359375,0.08984375,0.9635009765625
1629807872156,-0.22357177734375,0.0909423828125,0.96484375
1629807872156,-0.22186279296875,0.0927734375,0.96209716796875
1629807872250,-0.2181396484375,0.093017578125,0.9652099609375
1629807872250,-0.2235107421875,0.0948486328125,0.966552734375
1629807872250,-0.22491455078125,0.09552001953125,0.96612548828125
1629807872329,-0.218017578125,0.08697509765625,0.97052001953125
1629807872329,-0.2166748046875,0.08599853515625,0.97021484375
1629807872333,-0.2178955078125,0.0888671875,0.96795654296875
1629807872360,-0.21673583984375,0.08270263671875,0.9749755859375
1629807872360,-0.21527099609375,0.07958984375,0.9713134765625
1629807872360,-0.21661376953125,0.0811767578125,0.97021484375
1629807872439,-0.2177734375,0.0859375,0.9757080078125
1629807872439,-0.2149658203125,0.08563232421875,0.978759765625
1629807872440,-0.21710205078125,0.0849609375,0.97467041015625
1629807872470,-0.21484375,0.0887451171875,0.9688720703125
1629807872470,-0.2158203125,0.08843994140625,0.97161865234375
1629807872470,-0.221435546875,0.0904541015625,0.96588134765625
1629807872533,-0.2203369140625,0.08905029296875,0.97235107421875
1629807872550,-0.222412109375,0.08782958984375,0.96826171875
1629807872551,-0.2197265625,0.08868408203125,0.968017578125
1629807872596,-0.2286376953125,0.08624267578125,0.96917724609375
1629807872596,-0.2210693359375,0.09063720703125,0.9656982421875
1629807872596,-0.22467041015625,0.092529296875,0.9656982421875
1629807872720,-0.2225341796875,0.08624267578125,0.9674072265625
1629807872720,-0.2252197265625,0.07940673828125,0.9676513671875
1629807872720,-0.223876953125,0.0947265625,0.96380615234375
1629807872752,-0.21710205078125,0.0938720703125,0.97540283203125
1629807872752,-0.21624755859375,0.09722900390625,0.970947265625
1629807872753,-0.2188720703125,0.09564208984375,0.96649169921875
1629807872782,-0.21661376953125,0.08624267578125,0.968505859375
1629807872782,-0.21728515625,0.09625244140625,0.97393798828125
1629807872842,-0.219970703125,0.07818603515625,0.96746826171875
1629807872842,-0.2249755859375,0.08154296875,0.96881103515625
1629807872842,-0.2220458984375,0.083984375,0.970703125
1629807872920,-0.22393798828125,0.080810546875,0.973876953125
1629807872937,-0.2259521484375,0.08294677734375,0.97088623046875
1629807872937,-0.22314453125,0.07855224609375,0.9669189453125
1629807872984,-0.22576904296875,0.0810546875,0.96710205078125
1629807872990,-0.22509765625,0.08807373046875,0.9674072265625
1629807872990,-0.22747802734375,0.08624267578125,0.966796875
1629807873029,-0.2281494140625,0.083740234375,0.96612548828125
1629807873030,-0.22607421875,0.08697509765625,0.96710205078125
1629807873030,-0.226806640625,0.08538818359375,0.96514892578125
1629807873062,-0.22894287109375,0.08709716796875,0.962890625
1629807873062,-0.22698974609375,0.0914306640625,0.9647216796875
1629807873062,-0.2275390625,0.0882568359375,0.963623046875
1629807873123,-0.2252197265625,0.09576416015625,0.96484375
1629807873123,-0.2265625,0.09698486328125,0.9654541015625
1629807873123,-0.2255859375,0.09716796875,0.96417236328125
1629807873161,-0.2259521484375,0.098388671875,0.96295166015625
1629807873177,-0.2197265625,0.09490966796875,0.96868896484375
1629807873177,-0.21844482421875,0.0977783203125,0.97222900390625
1629807873286,-0.2161865234375,0.09515380859375,0.9700927734375
1629807873286,-0.219970703125,0.0958251953125,0.97265625
1629807873286,-0.21734619140625,0.09552001953125,0.9700927734375
1629807873318,-0.2174072265625,0.09027099609375,0.971435546875
1629807873318,-0.2152099609375,0.0926513671875,0.97222900390625
1629807873318,-0.2183837890625,0.09161376953125,0.9720458984375
1629807873349,-0.2225341796875,0.0911865234375,0.97027587890625
1629807873349,-0.21441650390625,0.09088134765625,0.97064208984375
1629807873349,-0.21856689453125,0.09423828125,0.97003173828125
1629807873443,-0.22259521484375,0.09417724609375,0.9683837890625
1629807873443,-0.22564697265625,0.09014892578125,0.963623046875
1629807873443,-0.22039794921875,0.0926513671875,0.96923828125
1629807873489,-0.2247314453125,0.0938720703125,0.9593505859375
1629807873489,-0.22357177734375,0.092041015625,0.95965576171875
1629807873501,-0.2232666015625,0.09130859375,0.9622802734375
1629807873595,-0.2191162109375,0.09686279296875,0.9713134765625
1629807873595,-0.2237548828125,0.0965576171875,0.96917724609375
1629807873595,-0.227294921875,0.09613037109375,0.97113037109375
1629807873611,-0.22198486328125,0.07745361328125,0.96734619140625
1629807873611,-0.224853515625,0.08868408203125,0.9736328125
1629807873611,-0.221435546875,0.09375,0.96771240234375
1629807873642,-0.22265625,0.08990478515625,0.96905517578125
1629807873642,-0.2249755859375,0.0819091796875,0.966796875
1629807873642,-0.21868896484375,0.09600830078125,0.97149658203125
1629807873736,-0.2218017578125,0.0999755859375,0.97198486328125
1629807873736,-0.2158203125,0.1041259765625,0.97320556640625
1629807873736,-0.21673583984375,0.10498046875,0.97271728515625
1629807873767,-0.22314453125,0.0946044921875,0.96405029296875
1629807873767,-0.2247314453125,0.08538818359375,0.963623046875
1629807873767,-0.219482421875,0.09979248046875,0.9676513671875
1629807873830,-0.22161865234375,0.08514404296875,0.96435546875
1629807873830,-0.22509765625,0.09356689453125,0.96466064453125
1629807873830,-0.2218017578125,0.0869140625,0.96051025390625
1629807873923,-0.21759033203125,0.09185791015625,0.9698486328125
1629807873923,-0.21923828125,0.089111328125,0.96697998046875
1629807873923,-0.22027587890625,0.08978271484375,0.96710205078125
1629807873979,-0.22283935546875,0.09197998046875,0.96820068359375
1629807873979,-0.2205810546875,0.08685302734375,0.973876953125
1629807873979,-0.22393798828125,0.0909423828125,0.97137451171875
1629807874010,-0.22119140625,0.08837890625,0.97772216796875
1629807874010,-0.22039794921875,0.09051513671875,0.974365234375
1629807874010,-0.22064208984375,0.09552001953125,0.9720458984375
1629807874072,-0.2220458984375,0.09393310546875,0.970458984375
1629807874072,-0.22406005859375,0.09539794921875,0.9666748046875
1629807874072,-0.22442626953125,0.093505859375,0.9637451171875
1629807874135,-0.2237548828125,0.09033203125,0.96160888671875
1629807874135,-0.22802734375,0.09466552734375,0.96368408203125
1629807874135,-0.225341796875,0.09228515625,0.96337890625
1629807874229,-0.2276611328125,0.09033203125,0.9598388671875
1629807874229,-0.22479248046875,0.089111328125,0.9681396484375
1629807874229,-0.224609375,0.09466552734375,0.9625244140625
1629807874260,-0.223388671875,0.08624267578125,0.96795654296875
1629807874276,-0.220458984375,0.08929443359375,0.96734619140625
1629807874276,-0.21783447265625,0.08551025390625,0.9736328125
1629807874354,-0.219482421875,0.08416748046875,0.97369384765625
1629807874354,-0.21710205078125,0.08477783203125,0.97552490234375
1629807874354,-0.21734619140625,0.0869140625,0.9766845703125
1629807874400,-0.218994140625,0.09063720703125,0.9737548828125
1629807874400,-0.21661376953125,0.0897216796875,0.97607421875
1629807874401,-0.21942138671875,0.0965576171875,0.9716796875
1629807874460,-0.2239990234375,0.093994140625,0.96527099609375
1629807874460,-0.21978759765625,0.0947265625,0.96807861328125
1629807874476,-0.22161865234375,0.09625244140625,0.968505859375
1629807874526,-0.22344970703125,0.08685302734375,0.96612548828125
1629807874528,-0.22174072265625,0.087890625,0.96630859375
1629807874531,-0.22308349609375,0.09124755859375,0.96527099609375
1629807874555,-0.2218017578125,0.08697509765625,0.9659423828125
1629807874556,-0.22430419921875,0.090087890625,0.963623046875
1629807874556,-0.22320556640625,0.08935546875,0.9656982421875
1629807874615,-0.220703125,0.08880615234375,0.9725341796875
1629807874615,-0.222412109375,0.092529296875,0.96697998046875
1629807874615,-0.22283935546875,0.09124755859375,0.97003173828125
1629807874662,-0.22113037109375,0.0947265625,0.96734619140625
1629807874662,-0.2236328125,0.08087158203125,0.97198486328125
1629807874662,-0.2220458984375,0.08880615234375,0.96728515625
1629807874725,-0.221923828125,0.08404541015625,0.97259521484375
1629807874726,-0.22705078125,0.0740966796875,0.96722412109375
1629807874739,-0.22064208984375,0.09295654296875,0.97021484375
1629807874769,-0.2174072265625,0.1036376953125,0.9691162109375
1629807874769,-0.216552734375,0.0963134765625,0.9691162109375
1629807874769,-0.21551513671875,0.09844970703125,0.9683837890625
1629807874846,-0.215087890625,0.100830078125,0.968994140625
1629807874846,-0.22137451171875,0.0894775390625,0.965087890625
1629807874846,-0.220947265625,0.10137939453125,0.96710205078125
1629807874909,-0.21893310546875,0.087890625,0.96435546875
1629807874925,-0.22412109375,0.08251953125,0.962158203125
1629807874926,-0.2276611328125,0.08184814453125,0.9649658203125
1629807874939,-0.220703125,0.08245849609375,0.97149658203125
1629807874939,-0.22076416015625,0.0894775390625,0.96954345703125
1629807874939,-0.22576904296875,0.08929443359375,0.97412109375
1629807875002,-0.22161865234375,0.09039306640625,0.96759033203125
1629807875012,-0.22216796875,0.091064453125,0.96917724609375
1629807875012,-0.21917724609375,0.08770751953125,0.97174072265625
1629807875106,-0.22308349609375,0.0909423828125,0.97552490234375
1629807875106,-0.21954345703125,0.09014892578125,0.97210693359375
1629807875122,-0.21881103515625,0.0885009765625,0.9713134765625
1629807875137,-0.222900390625,0.09454345703125,0.97015380859375
1629807875137,-0.2236328125,0.09130859375,0.9677734375
1629807875137,-0.2249755859375,0.09820556640625,0.964599609375
1629807875200,-0.2265625,0.09564208984375,0.95953369140625
1629807875200,-0.225341796875,0.09503173828125,0.95953369140625
1629807875200,-0.2242431640625,0.0946044921875,0.95965576171875
1629807875293,-0.22149658203125,0.09197998046875,0.9620361328125
1629807875293,-0.22662353515625,0.09307861328125,0.958251953125
1629807875293,-0.2235107421875,0.09393310546875,0.95867919921875
1629807875330,-0.2191162109375,0.0855712890625,0.97344970703125
1629807875337,-0.22052001953125,0.090087890625,0.97052001953125
1629807875344,-0.22222900390625,0.087646484375,0.9713134765625
1629807875359,-0.21954345703125,0.09075927734375,0.970947265625
1629807875359,-0.2169189453125,0.08721923828125,0.97235107421875
1629807875359,-0.2169189453125,0.08612060546875,0.9705810546875
1629807875406,-0.2188720703125,0.09283447265625,0.97515869140625
1629807875406,-0.22100830078125,0.0919189453125,0.970947265625
1629807875406,-0.22137451171875,0.09259033203125,0.97418212890625
1629807875484,-0.22454833984375,0.09356689453125,0.96588134765625
1629807875484,-0.21917724609375,0.09393310546875,0.96923828125
1629807875484,-0.22222900390625,0.092529296875,0.96649169921875
1629807875578,-0.222900390625,0.08807373046875,0.96112060546875
1629807875578,-0.22454833984375,0.09075927734375,0.96527099609375
1629807875578,-0.22283935546875,0.0931396484375,0.9671630859375
1629807875610,-0.221923828125,0.08917236328125,0.96392822265625
1629807875610,-0.2247314453125,0.08740234375,0.96234130859375
1629807875610,-0.22576904296875,0.08819580078125,0.96563720703125
1629807875656,-0.22100830078125,0.090576171875,0.9656982421875
1629807875656,-0.22283935546875,0.09259033203125,0.96954345703125
1629807875656,-0.22100830078125,0.09295654296875,0.968505859375
1629807875750,-0.2203369140625,0.093994140625,0.96661376953125
1629807875750,-0.2254638671875,0.08599853515625,0.97149658203125
1629807875750,-0.21746826171875,0.09259033203125,0.96435546875
1629807875797,-0.2215576171875,0.09027099609375,0.9671630859375
1629807875797,-0.218505859375,0.07928466796875,0.96575927734375
1629807875797,-0.22381591796875,0.07757568359375,0.9693603515625
1629807875828,-0.2174072265625,0.09564208984375,0.9737548828125
1629807875828,-0.2159423828125,0.0966796875,0.97283935546875
1629807875828,-0.220947265625,0.09979248046875,0.96875
1629807875906,-0.2171630859375,0.086669921875,0.96832275390625
1629807875906,-0.2181396484375,0.0897216796875,0.97064208984375
1629807875906,-0.21209716796875,0.0963134765625,0.97088623046875
1629807875937,-0.2191162109375,0.0809326171875,0.96734619140625
1629807875937,-0.2178955078125,0.0804443359375,0.96905517578125
1629807875937,-0.22021484375,0.083251953125,0.96893310546875
1629807876016,-0.212890625,0.08135986328125,0.9708251953125
1629807876016,-0.22088623046875,0.08526611328125,0.97003173828125
1629807876031,-0.2213134765625,0.086669921875,0.97186279296875
1629807876078,-0.21282958984375,0.084716796875,0.9693603515625
1629807876078,-0.2196044921875,0.08331298828125,0.96923828125
1629807876078,-0.2142333984375,0.08343505859375,0.97515869140625
1629807876156,-0.2164306640625,0.08453369140625,0.97283935546875
1629807876156,-0.21453857421875,0.08697509765625,0.9732666015625
1629807876156,-0.21563720703125,0.08551025390625,0.9752197265625
1629807876187,-0.2164306640625,0.08856201171875,0.96990966796875
1629807876187,-0.21630859375,0.090087890625,0.96728515625
1629807876187,-0.2183837890625,0.08721923828125,0.97259521484375
1629807876250,-0.22021484375,0.08990478515625,0.9658203125
1629807876250,-0.2169189453125,0.093505859375,0.964111328125
1629807876250,-0.21875,0.08721923828125,0.9696044921875
1629807876344,-0.21612548828125,0.0887451171875,0.96759033203125
1629807876344,-0.21807861328125,0.08880615234375,0.966796875
1629807876344,-0.2161865234375,0.0902099609375,0.96929931640625
1629807876359,-0.2138671875,0.087158203125,0.97119140625
1629807876359,-0.21502685546875,0.08770751953125,0.96923828125
1629807876359,-0.2177734375,0.0843505859375,0.96722412109375
1629807876452,-0.212158203125,0.09002685546875,0.97454833984375
1629807876454,-0.2113037109375,0.08660888671875,0.97418212890625
1629807876454,-0.2135009765625,0.086669921875,0.9774169921875
1629807876482,-0.21112060546875,0.0860595703125,0.9700927734375
1629807876482,-0.21533203125,0.0833740234375,0.97314453125
1629807876483,-0.21258544921875,0.08642578125,0.97283935546875
1629807876561,-0.21319580078125,0.08624267578125,0.97052001953125
1629807876561,-0.21551513671875,0.0882568359375,0.9696044921875
1629807876562,-0.2113037109375,0.089599609375,0.96844482421875
1629807876591,-0.2177734375,0.0919189453125,0.96942138671875
1629807876591,-0.21728515625,0.0919189453125,0.96417236328125
1629807876591,-0.216552734375,0.0916748046875,0.96710205078125
1629807876672,-0.21551513671875,0.08905029296875,0.967041015625
1629807876672,-0.2132568359375,0.0882568359375,0.9722900390625
1629807876672,-0.2188720703125,0.0894775390625,0.96673583984375
1629807876749,-0.21392822265625,0.0897216796875,0.96533203125
1629807876749,-0.21405029296875,0.0892333984375,0.96954345703125
1629807876749,-0.21612548828125,0.08746337890625,0.97027587890625
1629807876796,-0.21795654296875,0.082275390625,0.966552734375
1629807876797,-0.22357177734375,0.08282470703125,0.97161865234375
1629807876799,-0.21539306640625,0.0887451171875,0.9671630859375
1629807876843,-0.2056884765625,0.09368896484375,0.9766845703125
1629807876844,-0.212158203125,0.09814453125,0.9725341796875
1629807876859,-0.20989990234375,0.09765625,0.9693603515625
1629807876889,-0.21051025390625,0.09405517578125,0.974853515625
1629807876889,-0.21002197265625,0.0975341796875,0.97149658203125
1629807876890,-0.2059326171875,0.0911865234375,0.971435546875
1629807876954,-0.2135009765625,0.093017578125,0.96868896484375
1629807876954,-0.21124267578125,0.08636474609375,0.97119140625
1629807876954,-0.21246337890625,0.0902099609375,0.97119140625
1629807877031,-0.21417236328125,0.08258056640625,0.9697265625
1629807877047,-0.21173095703125,0.09033203125,0.97210693359375
1629807877047,-0.21331787109375,0.09014892578125,0.96966552734375
1629807877077,-0.2127685546875,0.09136962890625,0.9720458984375
1629807877077,-0.21173095703125,0.08966064453125,0.96868896484375
1629807877077,-0.20758056640625,0.08123779296875,0.96759033203125
1629807877155,-0.21124267578125,0.09228515625,0.9769287109375
1629807877155,-0.208740234375,0.0892333984375,0.9710693359375
1629807877156,-0.21148681640625,0.09173583984375,0.9732666015625
1629807877185,-0.21331787109375,0.09002685546875,0.97296142578125
1629807877185,-0.21392822265625,0.0936279296875,0.96771240234375
1629807877185,-0.21307373046875,0.0955810546875,0.9720458984375
1629807877276,-0.21600341796875,0.0948486328125,0.96478271484375
1629807877277,-0.21673583984375,0.09564208984375,0.9656982421875
1629807877277,-0.21575927734375,0.09503173828125,0.96307373046875
1629807877308,-0.21661376953125,0.0966796875,0.965087890625
1629807877323,-0.2110595703125,0.0931396484375,0.9691162109375
1629807877323,-0.21453857421875,0.093994140625,0.967041015625
1629807877369,-0.21063232421875,0.09124755859375,0.96893310546875
1629807877369,-0.2122802734375,0.094482421875,0.96697998046875
1629807877370,-0.214599609375,0.09075927734375,0.96612548828125
1629807877433,-0.20635986328125,0.08929443359375,0.97705078125
1629807877433,-0.20819091796875,0.0902099609375,0.9759521484375
1629807877434,-0.21026611328125,0.0880126953125,0.97991943359375
1629807877493,-0.2109375,0.08709716796875,0.9755859375
1629807877493,-0.20745849609375,0.08697509765625,0.9765625
1629807877493,-0.2093505859375,0.08740234375,0.97308349609375
1629807877572,-0.2142333984375,0.0921630859375,0.9696044921875
1629807877572,-0.21075439453125,0.09490966796875,0.96893310546875
1629807877572,-0.21063232421875,0.0909423828125,0.97052001953125
1629807877618,-0.210693359375,0.09033203125,0.97125244140625
1629807877618,-0.2103271484375,0.087890625,0.96856689453125
1629807877618,-0.21533203125,0.09234619140625,0.96856689453125
1629807877681,-0.215087890625,0.0860595703125,0.970947265625
1629807877681,-0.21343994140625,0.0921630859375,0.97021484375
1629807877681,-0.21337890625,0.09442138671875,0.96282958984375
1629807877697,-0.22064208984375,0.08349609375,0.97198486328125
1629807877697,-0.21148681640625,0.096923828125,0.967041015625
1629807877697,-0.21600341796875,0.0875244140625,0.96160888671875
1629807877775,-0.20391845703125,0.09735107421875,0.973876953125
1629807877775,-0.2095947265625,0.09423828125,0.97393798828125
1629807877775,-0.2083740234375,0.09619140625,0.97076416015625
1629807877900,-0.20501708984375,0.0904541015625,0.9703369140625
1629807877900,-0.20709228515625,0.0928955078125,0.97528076171875
1629807877900,-0.20697021484375,0.09100341796875,0.9715576171875
1629807877900,-0.2103271484375,0.087890625,0.97528076171875
1629807877915,-0.21136474609375,0.09088134765625,0.9739990234375
1629807877915,-0.20941162109375,0.0904541015625,0.9739990234375
1629807877978,-0.21044921875,0.0919189453125,0.97271728515625
1629807877978,-0.212890625,0.07977294921875,0.96917724609375
1629807877978,-0.21661376953125,0.08349609375,0.96942138671875
1629807878041,-0.21240234375,0.08917236328125,0.96990966796875
1629807878041,-0.21624755859375,0.0914306640625,0.97161865234375
1629807878041,-0.21258544921875,0.0821533203125,0.97076416015625
1629807878088,-0.21575927734375,0.09112548828125,0.97705078125
1629807878088,-0.21258544921875,0.09033203125,0.97247314453125
1629807878088,-0.21514892578125,0.092041015625,0.97467041015625
1629807878166,-0.212890625,0.09259033203125,0.9671630859375
1629807878166,-0.21954345703125,0.09320068359375,0.9666748046875
1629807878166,-0.21917724609375,0.09130859375,0.96136474609375
1629807878197,-0.21551513671875,0.09527587890625,0.9674072265625
1629807878197,-0.21661376953125,0.0941162109375,0.96795654296875
1629807878197,-0.2183837890625,0.09820556640625,0.96844482421875
1629807878306,-0.21539306640625,0.094970703125,0.9677734375
1629807878306,-0.2188720703125,0.10089111328125,0.96624755859375
1629807878306,-0.214111328125,0.09423828125,0.96856689453125
1629807878322,-0.21209716796875,0.09033203125,0.9736328125
1629807878322,-0.2137451171875,0.09033203125,0.970947265625
1629807878322,-0.2149658203125,0.08966064453125,0.97442626953125
1629807878413,-0.21136474609375,0.09356689453125,0.973388671875
1629807878413,-0.21197509765625,0.0919189453125,0.97174072265625
1629807878413,-0.212646484375,0.0909423828125,0.97271728515625
1629807878463,-0.2137451171875,0.09222412109375,0.97021484375
1629807878463,-0.2149658203125,0.0906982421875,0.967529296875
1629807878463,-0.21685791015625,0.0869140625,0.97265625
1629807878510,-0.21929931640625,0.09405517578125,0.96881103515625
1629807878526,-0.21630859375,0.09088134765625,0.9683837890625
1629807878526,-0.21826171875,0.0908203125,0.967529296875
1629807878574,-0.2158203125,0.09320068359375,0.9661865234375
1629807878574,-0.21783447265625,0.0909423828125,0.96966552734375
1629807878574,-0.21844482421875,0.0953369140625,0.96282958984375
1629807878634,-0.22454833984375,0.08660888671875,0.9696044921875
1629807878635,-0.22198486328125,0.0777587890625,0.96636962890625
1629807878635,-0.22552490234375,0.0784912109375,0.96600341796875
1629807878664,-0.21875,0.08941650390625,0.96722412109375
1629807878664,-0.2137451171875,0.09100341796875,0.9708251953125
1629807878664,-0.22064208984375,0.0838623046875,0.96435546875
1629807878773,-0.21240234375,0.09613037109375,0.97637939453125
1629807878773,-0.2108154296875,0.09344482421875,0.97454833984375
1629807878773,-0.21453857421875,0.09368896484375,0.9755859375
1629807878795,-0.21722412109375,0.089111328125,0.970703125
1629807878795,-0.216552734375,0.083984375,0.97027587890625
1629807878795,-0.212158203125,0.09161376953125,0.969970703125
1629807878842,-0.21844482421875,0.08270263671875,0.96417236328125
1629807878857,-0.21563720703125,0.08740234375,0.96417236328125
1629807878857,-0.21527099609375,0.08697509765625,0.96484375
1629807878904,-0.2183837890625,0.09088134765625,0.9552001953125
1629807878920,-0.21917724609375,0.0863037109375,0.958984375
1629807878920,-0.2191162109375,0.083984375,0.95916748046875
1629807878982,-0.20941162109375,0.07769775390625,0.94781494140625
1629807878982,-0.2147216796875,0.089111328125,0.951416015625
1629807878982,-0.21533203125,0.08355712890625,0.9505615234375
1629807878998,-0.2015380859375,0.09075927734375,0.98175048828125
1629807878998,-0.20623779296875,0.08135986328125,0.96893310546875
1629807879013,-0.21075439453125,0.07745361328125,0.95513916015625
1629807879107,-0.19476318359375,0.08880615234375,0.987548828125
1629807879107,-0.187744140625,0.09246826171875,0.99462890625
1629807879107,-0.18780517578125,0.09234619140625,0.99371337890625
1629807879138,-0.17864990234375,0.09490966796875,0.9915771484375
1629807879138,-0.18206787109375,0.08905029296875,0.99029541015625
1629807879138,-0.179443359375,0.09271240234375,0.98828125
1629807879217,-0.18115234375,0.09136962890625,0.99017333984375
1629807879217,-0.17633056640625,0.07965087890625,0.99127197265625
1629807879217,-0.1807861328125,0.08477783203125,0.99163818359375
1629807879263,-0.1787109375,0.07476806640625,0.9915771484375
1629807879263,-0.182861328125,0.074951171875,0.989501953125
1629807879263,-0.17962646484375,0.07513427734375,0.99273681640625
1629807879357,-0.1837158203125,0.07537841796875,0.97900390625
1629807879357,-0.18719482421875,0.07476806640625,0.98089599609375
1629807879357,-0.18170166015625,0.07513427734375,0.9830322265625
1629807879388,-0.18511962890625,0.08111572265625,0.96826171875
1629807879404,-0.18572998046875,0.0784912109375,0.9715576171875
1629807879404,-0.185302734375,0.07843017578125,0.97235107421875
1629807879513,-0.17791748046875,0.08099365234375,0.97210693359375
1629807879513,-0.18365478515625,0.0849609375,0.976318359375
1629807879513,-0.1842041015625,0.0782470703125,0.97100830078125
1629807879545,-0.171630859375,0.078857421875,0.97564697265625
1629807879545,-0.178466796875,0.08819580078125,0.98138427734375
1629807879545,-0.17169189453125,0.0762939453125,0.96588134765625
1629807879545,-0.17340087890625,0.07708740234375,0.963623046875
1629807879560,-0.17596435546875,0.08905029296875,0.9781494140625
1629807879560,-0.177734375,0.08868408203125,0.98052978515625
1629807879623,-0.1671142578125,0.08392333984375,0.96490478515625
1629807879623,-0.16400146484375,0.09429931640625,0.988525390625
1629807879623,-0.16436767578125,0.09210205078125,0.9747314453125
1629807879654,-0.1614990234375,0.10064697265625,1.00018310546875
1629807879654,-0.15887451171875,0.100830078125,1.00579833984375
1629807879654,-0.16204833984375,0.098876953125,1.00128173828125
1629807879732,-0.16900634765625,0.08197021484375,0.9791259765625
1629807879732,-0.15997314453125,0.098388671875,0.9957275390625
1629807879732,-0.168701171875,0.09027099609375,0.9869384765625
1629807879841,-0.177001953125,0.08233642578125,0.97314453125
1629807879841,-0.17486572265625,0.0794677734375,0.971923828125
1629807879841,-0.16864013671875,0.0777587890625,0.975830078125
1629807879873,-0.17791748046875,0.082275390625,0.9820556640625
1629807879888,-0.1793212890625,0.08111572265625,0.97833251953125
1629807879888,-0.17510986328125,0.0762939453125,0.972412109375
1629807879951,-0.1788330078125,0.07159423828125,0.9901123046875
1629807879951,-0.17657470703125,0.0816650390625,0.98822021484375
1629807879951,-0.1798095703125,0.07647705078125,0.9892578125
1629807879982,-0.1927490234375,0.0692138671875,0.983642578125
1629807879998,-0.18206787109375,0.0706787109375,0.98822021484375
1629807879998,-0.1859130859375,0.069091796875,0.9852294921875
1629807880060,-0.1953125,0.0762939453125,0.975341796875
1629807880060,-0.18914794921875,0.073486328125,0.9805908203125
1629807880060,-0.19305419921875,0.0845947265625,0.9732666015625
1629807880123,-0.1976318359375,0.09478759765625,0.9681396484375
1629807880123,-0.20562744140625,0.09881591796875,0.9736328125
1629807880123,-0.1962890625,0.09112548828125,0.9681396484375
1629807880138,-0.2025146484375,0.10015869140625,0.97265625
1629807880138,-0.20758056640625,0.1016845703125,0.9769287109375
1629807880138,-0.20806884765625,0.10516357421875,0.97528076171875
1629807880201,-0.20928955078125,0.0966796875,0.97802734375
1629807880201,-0.21185302734375,0.09283447265625,0.975341796875
1629807880201,-0.20526123046875,0.10333251953125,0.9744873046875
1629807880263,-0.21319580078125,0.0889892578125,0.95684814453125
1629807880263,-0.2113037109375,0.09539794921875,0.947265625
1629807880263,-0.209716796875,0.09039306640625,0.96661376953125
1629807880326,-0.2147216796875,0.09674072265625,0.94281005859375
1629807880326,-0.21356201171875,0.0955810546875,0.939697265625
1629807880326,-0.20721435546875,0.08978271484375,0.94317626953125
1629807880404,-0.21221923828125,0.08367919921875,0.95550537109375
1629807880404,-0.20489501953125,0.0775146484375,0.96636962890625
1629807880404,-0.1962890625,0.07366943359375,0.9752197265625
1629807880435,-0.19140625,0.076904296875,0.9918212890625
1629807880435,-0.194091796875,0.0780029296875,0.98773193359375
1629807880435,-0.19512939453125,0.0782470703125,0.99700927734375
1629807880527,-0.19384765625,0.07659912109375,0.9906005859375
1629807880527,-0.201416015625,0.0753173828125,0.98468017578125
1629807880527,-0.19744873046875,0.0770263671875,0.98931884765625
1629807880558,-0.201171875,0.08819580078125,0.9664306640625
1629807880558,-0.201904296875,0.07781982421875,0.975341796875
1629807880558,-0.19842529296875,0.09613037109375,0.96282958984375
1629807880621,-0.19818115234375,0.097900390625,0.971923828125
1629807880621,-0.19586181640625,0.09832763671875,0.9713134765625
1629807880621,-0.199462890625,0.10107421875,0.97412109375
1629807880699,-0.20452880859375,0.097412109375,0.9644775390625
1629807880699,-0.20111083984375,0.1016845703125,0.96783447265625
1629807880714,-0.20947265625,0.093505859375,0.9730224609375
1629807880746,-0.210205078125,0.09271240234375,0.9749755859375
1629807880746,-0.2113037109375,0.09613037109375,0.97381591796875
1629807880746,-0.20916748046875,0.09051513671875,0.97674560546875
1629807880824,-0.21905517578125,0.0845947265625,0.97027587890625
1629807880839,-0.21649169921875,0.0882568359375,0.972900390625
1629807880839,-0.21820068359375,0.09051513671875,0.974365234375
1629807880855,-0.2208251953125,0.0887451171875,0.96929931640625
1629807880855,-0.2225341796875,0.0906982421875,0.96807861328125
1629807880855,-0.22052001953125,0.08978271484375,0.96661376953125
1629807880910,-0.229736328125,0.08502197265625,0.9708251953125
1629807880910,-0.2294921875,0.08392333984375,0.96337890625
1629807880926,-0.2293701171875,0.088134765625,0.96856689453125
1629807880957,-0.2353515625,0.0889892578125,0.95159912109375
1629807880957,-0.2335205078125,0.08489990234375,0.96197509765625
1629807880957,-0.23486328125,0.08441162109375,0.9603271484375
1629807881061,-0.23052978515625,0.09613037109375,0.9332275390625
1629807881061,-0.2342529296875,0.08709716796875,0.94268798828125
1629807881077,-0.23345947265625,0.09100341796875,0.94073486328125
1629807881108,-0.23016357421875,0.08197021484375,0.9385986328125
1629807881108,-0.22589111328125,0.07183837890625,0.96649169921875
1629807881108,-0.228271484375,0.0733642578125,0.95220947265625
1629807881123,-0.2237548828125,0.073974609375,0.98236083984375
1629807881123,-0.2138671875,0.067626953125,0.9932861328125
1629807881123,-0.21875,0.06817626953125,0.99053955078125
1629807881201,-0.20831298828125,0.05401611328125,0.98712158203125
1629807881201,-0.209228515625,0.05999755859375,0.98858642578125
1629807881201,-0.2098388671875,0.0504150390625,0.975341796875
1629807881264,-0.2161865234375,0.052490234375,0.9737548828125
1629807881264,-0.21551513671875,0.0504150390625,0.97003173828125
1629807881264,-0.210693359375,0.048583984375,0.973388671875
1629807881326,-0.2154541015625,0.06011962890625,0.977783203125
1629807881326,-0.2139892578125,0.0709228515625,0.97833251953125
1629807881389,-0.21356201171875,0.0728759765625,0.96270751953125
1629807881389,-0.212158203125,0.0721435546875,0.9693603515625
1629807881389,-0.20843505859375,0.06390380859375,0.952880859375
1629807881451,-0.20904541015625,0.05743408203125,0.95709228515625
1629807881451,-0.20916748046875,0.06573486328125,0.95135498046875
1629807881451,-0.2103271484375,0.042724609375,0.9693603515625
1629807881545,-0.19573974609375,0.052001953125,0.9810791015625
1629807881545,-0.20904541015625,0.04669189453125,0.9671630859375
1629807881545,-0.2032470703125,0.04620361328125,0.9759521484375
1629807881576,-0.18975830078125,0.0675048828125,0.99505615234375
1629807881576,-0.193603515625,0.05767822265625,0.99383544921875
1629807881576,-0.19268798828125,0.05511474609375,0.9866943359375
1629807881608,-0.19830322265625,0.06805419921875,0.97503662109375
1629807881623,-0.1888427734375,0.07232666015625,0.990966796875
1629807881623,-0.1884765625,0.07379150390625,0.979736328125
1629807881670,-0.20233154296875,0.06060791015625,0.97979736328125
1629807881670,-0.20330810546875,0.06500244140625,0.9830322265625
1629807881670,-0.1978759765625,0.06536865234375,0.9739990234375
1629807881795,-0.19256591796875,0.0587158203125,0.97332763671875
1629807881795,-0.19708251953125,0.06231689453125,0.980224609375
1629807881811,-0.20257568359375,0.06097412109375,0.9808349609375
1629807881858,-0.2021484375,0.0718994140625,0.99542236328125
1629807881858,-0.1983642578125,0.07305908203125,0.9814453125
1629807881858,-0.20452880859375,0.07574462890625,0.9949951171875
1629807881873,-0.20904541015625,0.05914306640625,0.9664306640625
1629807881873,-0.2049560546875,0.0640869140625,0.97125244140625
1629807881873,-0.20074462890625,0.0693359375,0.98358154296875
1629807881936,-0.2120361328125,0.076904296875,0.95428466796875
1629807881936,-0.2100830078125,0.0618896484375,0.9576416015625
1629807881951,-0.21527099609375,0.070068359375,0.96087646484375
1629807882014,-0.21923828125,0.08062744140625,0.965576171875
1629807882014,-0.217529296875,0.0841064453125,0.9549560546875
1629807882014,-0.21514892578125,0.07806396484375,0.9534912109375
1629807882095,-0.21466064453125,0.08111572265625,0.97198486328125
1629807882095,-0.208984375,0.08984375,0.9622802734375
1629807882095,-0.21533203125,0.0838623046875,0.9732666015625
1629807882095,-0.21868896484375,0.0816650390625,0.97418212890625
1629807882095,-0.21044921875,0.0875244140625,0.96929931640625
1629807882095,-0.20672607421875,0.09063720703125,0.96240234375
1629807882188,-0.207275390625,0.09173583984375,0.97216796875
1629807882188,-0.2073974609375,0.08697509765625,0.9744873046875
1629807882188,-0.2108154296875,0.08746337890625,0.97894287109375
1629807882235,-0.2080078125,0.0855712890625,0.97149658203125
1629807882235,-0.19598388671875,0.0919189453125,0.96343994140625
1629807882235,-0.20196533203125,0.0892333984375,0.964599609375
1629807882251,-0.19580078125,0.0870361328125,0.98565673828125
1629807882251,-0.18994140625,0.08074951171875,0.98797607421875
1629807882266,-0.19488525390625,0.08831787109375,0.97705078125
1629807882329,-0.19683837890625,0.0731201171875,0.98590087890625
1629807882329,-0.19110107421875,0.07763671875,0.98736572265625
1629807882329,-0.19024658203125,0.08099365234375,0.98834228515625
1629807882437,-0.203125,0.06549072265625,0.97906494140625
1629807882437,-0.201904296875,0.0670166015625,0.98492431640625
1629807882437,-0.20855712890625,0.0665283203125,0.9708251953125
1629807882485,-0.20257568359375,0.07757568359375,0.956298828125
1629807882485,-0.20916748046875,0.074462890625,0.96197509765625
1629807882500,-0.1995849609375,0.0794677734375,0.960693359375
1629807882531,-0.20159912109375,0.07562255859375,0.970458984375
1629807882531,-0.203369140625,0.076904296875,0.97894287109375
1629807882547,-0.20074462890625,0.08154296875,0.98779296875
1629807882581,-0.21173095703125,0.08221435546875,0.987060546875
1629807882581,-0.206787109375,0.0841064453125,0.997802734375
1629807882581,-0.206787109375,0.0845947265625,0.9923095703125
1629807882628,-0.21771240234375,0.080322265625,0.9671630859375
1629807882628,-0.21490478515625,0.076904296875,0.9693603515625
1629807882628,-0.2271728515625,0.0726318359375,0.9693603515625
1629807882722,-0.23443603515625,0.04052734375,0.9599609375
1629807882722,-0.2303466796875,0.05224609375,0.97052001953125
1629807882722,-0.23297119140625,0.03790283203125,0.94970703125
1629807882753,-0.2244873046875,0.03704833984375,0.943603515625
1629807882753,-0.22271728515625,0.03900146484375,0.94696044921875
1629807882753,-0.21466064453125,0.046875,0.95819091796875
1629807882815,-0.2095947265625,0.0718994140625,0.987060546875
1629807882815,-0.20965576171875,0.083740234375,0.99102783203125
1629807882815,-0.2149658203125,0.05426025390625,0.97509765625
1629807882878,-0.21063232421875,0.093505859375,0.99267578125
1629807882878,-0.21746826171875,0.11260986328125,0.9879150390625
1629807882878,-0.2130126953125,0.1060791015625,0.9959716796875
1629807882893,-0.22674560546875,0.1107177734375,0.98394775390625
1629807882893,-0.22802734375,0.10345458984375,0.96630859375
1629807882893,-0.22955322265625,0.11199951171875,0.97564697265625
1629807882971,-0.2288818359375,0.10015869140625,0.96148681640625
1629807882971,-0.22601318359375,0.100341796875,0.9527587890625
1629807882971,-0.223876953125,0.1075439453125,0.9498291015625
1629807883018,-0.20428466796875,0.1026611328125,0.9459228515625
1629807883018,-0.2176513671875,0.10687255859375,0.945556640625
1629807883018,-0.20855712890625,0.10430908203125,0.94403076171875
1629807883128,-0.20172119140625,0.09661865234375,0.95196533203125
1629807883143,-0.20001220703125,0.083740234375,0.9617919921875
1629807883143,-0.194580078125,0.072265625,0.96722412109375
1629807883159,-0.19952392578125,0.06561279296875,0.974853515625
1629807883159,-0.1949462890625,0.05169677734375,0.9747314453125
1629807883159,-0.19488525390625,0.054443359375,0.974609375
1629807883237,-0.19622802734375,0.04559326171875,0.97967529296875
1629807883237,-0.19342041015625,0.0496826171875,0.97760009765625
1629807883237,-0.1956787109375,0.0478515625,0.9820556640625
1629807883284,-0.196044921875,0.0504150390625,0.9830322265625
1629807883284,-0.1956787109375,0.05596923828125,0.98712158203125
1629807883284,-0.1986083984375,0.05718994140625,0.98968505859375
1629807883332,-0.2060546875,0.0499267578125,0.9971923828125
1629807883332,-0.2073974609375,0.039306640625,0.9984130859375
1629807883332,-0.20819091796875,0.0361328125,0.998291015625
1629807883396,-0.21185302734375,0.03887939453125,0.9925537109375
1629807883396,-0.21307373046875,0.034423828125,0.99798583984375
1629807883396,-0.21697998046875,0.04266357421875,0.9892578125
1629807883443,-0.21893310546875,0.04425048828125,0.982666015625
1629807883443,-0.2335205078125,0.0523681640625,0.96875
1629807883443,-0.2244873046875,0.04827880859375,0.97137451171875
1629807883537,-0.23968505859375,0.0638427734375,0.95068359375
1629807883537,-0.232666015625,0.05975341796875,0.95611572265625
1629807883537,-0.23651123046875,0.0657958984375,0.95068359375
1629807883568,-0.2379150390625,0.0693359375,0.94622802734375
1629807883568,-0.23223876953125,0.07733154296875,0.94403076171875
1629807883568,-0.23236083984375,0.082763671875,0.94464111328125
1629807883646,-0.2261962890625,0.08184814453125,0.94769287109375
1629807883646,-0.22802734375,0.085693359375,0.95123291015625
1629807883662,-0.23065185546875,0.0799560546875,0.94354248046875
1629807883693,-0.2237548828125,0.0889892578125,0.9573974609375
1629807883693,-0.212158203125,0.091796875,0.9620361328125
1629807883693,-0.2093505859375,0.0909423828125,0.9676513671875
1629807883787,-0.20416259765625,0.0892333984375,0.9810791015625
1629807883787,-0.19903564453125,0.09832763671875,0.99261474609375
1629807883787,-0.21063232421875,0.0970458984375,0.987548828125
1629807883802,-0.1988525390625,0.0960693359375,0.98919677734375
1629807883802,-0.19818115234375,0.09649658203125,0.99298095703125
1629807883802,-0.200439453125,0.09332275390625,0.98919677734375
1629807883881,-0.207763671875,0.081787109375,0.9752197265625
1629807883881,-0.20037841796875,0.09344482421875,0.98663330078125
1629807883881,-0.1995849609375,0.084228515625,0.97955322265625
1629807883912,-0.212646484375,0.06427001953125,0.95941162109375
1629807883912,-0.21405029296875,0.0684814453125,0.96429443359375
1629807883912,-0.21014404296875,0.07318115234375,0.9730224609375
1629807883990,-0.21282958984375,0.070068359375,0.959228515625
1629807883990,-0.21600341796875,0.06524658203125,0.95867919921875
1629807883990,-0.21221923828125,0.06781005859375,0.9609375
1629807884084,-0.2064208984375,0.06781005859375,0.9715576171875
1629807884099,-0.20391845703125,0.07354736328125,0.9793701171875
1629807884099,-0.21136474609375,0.0689697265625,0.96466064453125
1629807884099,-0.20855712890625,0.0726318359375,0.97589111328125
1629807884099,-0.20849609375,0.06805419921875,0.9652099609375
1629807884115,-0.204833984375,0.0762939453125,0.981201171875
1629807884162,-0.20184326171875,0.08447265625,0.98382568359375
1629807884162,-0.20098876953125,0.084228515625,0.98321533203125
1629807884177,-0.20391845703125,0.08111572265625,0.98406982421875
1629807884224,-0.2060546875,0.08642578125,0.98443603515625
1629807884224,-0.2054443359375,0.08184814453125,0.97906494140625
1629807884224,-0.20538330078125,0.0833740234375,0.9736328125
1629807884255,-0.21539306640625,0.064453125,0.96746826171875
1629807884255,-0.21221923828125,0.0831298828125,0.97564697265625
1629807884255,-0.21746826171875,0.07183837890625,0.97027587890625
1629807884334,-0.2108154296875,0.07525634765625,0.9637451171875
1629807884334,-0.2137451171875,0.07623291015625,0.9686279296875
1629807884334,-0.2154541015625,0.06951904296875,0.96502685546875
1629807884414,-0.20904541015625,0.08056640625,0.9715576171875
1629807884414,-0.2125244140625,0.08245849609375,0.97308349609375
1629807884414,-0.2113037109375,0.0777587890625,0.96905517578125
1629807884446,-0.21502685546875,0.08447265625,0.970703125
1629807884461,-0.21533203125,0.07696533203125,0.968994140625
1629807884461,-0.21380615234375,0.0789794921875,0.96771240234375
1629807884508,-0.21295166015625,0.07373046875,0.97357177734375
1629807884508,-0.21087646484375,0.075927734375,0.97259521484375
1629807884508,-0.2115478515625,0.07745361328125,0.9801025390625
1629807884555,-0.210205078125,0.07672119140625,0.9765625
1629807884555,-0.21099853515625,0.07745361328125,0.97100830078125
1629807884555,-0.20867919921875,0.075439453125,0.9736328125
1629807884617,-0.21441650390625,0.07958984375,0.973388671875
1629807884632,-0.21533203125,0.07598876953125,0.972900390625
1629807884632,-0.21295166015625,0.07855224609375,0.97406005859375
1629807884706,-0.21295166015625,0.0816650390625,0.96917724609375
1629807884706,-0.21484375,0.08013916015625,0.97064208984375
1629807884706,-0.21551513671875,0.0826416015625,0.9686279296875
1629807884754,-0.21429443359375,0.08441162109375,0.9669189453125
1629807884754,-0.21649169921875,0.08709716796875,0.96417236328125
1629807884779,-0.2177734375,0.0865478515625,0.96661376953125
1629807884799,-0.21484375,0.084228515625,0.9661865234375
1629807884815,-0.21502685546875,0.08929443359375,0.9666748046875
1629807884815,-0.217529296875,0.08929443359375,0.96875
1629807884896,-0.21600341796875,0.09112548828125,0.9669189453125
1629807884905,-0.2152099609375,0.08880615234375,0.97021484375
1629807884905,-0.21649169921875,0.088134765625,0.967041015625
1629807884972,-0.2119140625,0.084716796875,0.9678955078125
1629807884973,-0.2103271484375,0.08465576171875,0.9722900390625
1629807885019,-0.216064453125,0.08282470703125,0.9754638671875
1629807885019,-0.21002197265625,0.08416748046875,0.97308349609375
1629807885020,-0.2125244140625,0.0853271484375,0.97625732421875
1629807885064,-0.20947265625,0.0830078125,0.97760009765625
1629807885064,-0.209228515625,0.08319091796875,0.9739990234375
1629807885083,-0.21063232421875,0.08001708984375,0.97332763671875
1629807885112,-0.20855712890625,0.08123779296875,0.97418212890625
1629807885116,-0.21246337890625,0.07965087890625,0.9744873046875
1629807885117,-0.21038818359375,0.08013916015625,0.9722900390625
1629807885173,-0.2147216796875,0.0833740234375,0.96173095703125
1629807885173,-0.21826171875,0.08087158203125,0.97283935546875
1629807885174,-0.21624755859375,0.083984375,0.9730224609375
1629807885235,-0.21673583984375,0.0751953125,0.9674072265625
1629807885237,-0.2169189453125,0.07647705078125,0.96484375
1629807885238,-0.21221923828125,0.08258056640625,0.96539306640625
1629807885267,-0.208984375,0.084716796875,0.97369384765625
1629807885267,-0.2108154296875,0.08489990234375,0.9678955078125
1629807885280,-0.2081298828125,0.08770751953125,0.9744873046875
1629807885347,-0.2064208984375,0.08953857421875,0.97515869140625
1629807885348,-0.2110595703125,0.09173583984375,0.970703125
1629807885348,-0.2083740234375,0.0888671875,0.9703369140625
1629807885377,-0.20989990234375,0.08709716796875,0.9739990234375
1629807885378,-0.2103271484375,0.0882568359375,0.972412109375
1629807885378,-0.21234130859375,0.08685302734375,0.97247314453125
1629807885454,-0.21331787109375,0.0853271484375,0.97418212890625
1629807885454,-0.21063232421875,0.08184814453125,0.97027587890625
1629807885454,-0.213623046875,0.08917236328125,0.97259521484375
1629807885502,-0.2147216796875,0.0855712890625,0.96807861328125
1629807885502,-0.21356201171875,0.08270263671875,0.97137451171875
1629807885502,-0.21527099609375,0.08050537109375,0.97149658203125
1629807885564,-0.21124267578125,0.083251953125,0.96844482421875
1629807885565,-0.20977783203125,0.08770751953125,0.969482421875
1629807885566,-0.2105712890625,0.081298828125,0.97137451171875
1629807885628,-0.21307373046875,0.09197998046875,0.969970703125
1629807885628,-0.2164306640625,0.0863037109375,0.96929931640625
1629807885629,-0.2093505859375,0.09014892578125,0.96923828125
1629807885695,-0.21478271484375,0.08636474609375,0.96728515625
1629807885695,-0.212158203125,0.08551025390625,0.97015380859375
1629807885695,-0.213134765625,0.08428955078125,0.9683837890625
1629807885754,-0.21258544921875,0.08551025390625,0.96771240234375
1629807885754,-0.20953369140625,0.0872802734375,0.9677734375
1629807885754,-0.2100830078125,0.084228515625,0.97210693359375
1629807885818,-0.2093505859375,0.07598876953125,0.9727783203125
1629807885818,-0.20458984375,0.08013916015625,0.9735107421875
1629807885818,-0.20745849609375,0.08050537109375,0.96978759765625
1629807885876,-0.2054443359375,0.0830078125,0.97576904296875
1629807885876,-0.2054443359375,0.0848388671875,0.97625732421875
1629807885876,-0.207275390625,0.0816650390625,0.97430419921875
1629807885923,-0.2017822265625,0.0850830078125,0.97576904296875
1629807885923,-0.2049560546875,0.08587646484375,0.97760009765625
1629807885923,-0.20318603515625,0.0887451171875,0.9766845703125
1629807885995,-0.20501708984375,0.0909423828125,0.97613525390625
1629807885995,-0.20318603515625,0.0860595703125,0.9739990234375
1629807885995,-0.2000732421875,0.08978271484375,0.9786376953125
1629807886073,-0.20916748046875,0.0794677734375,0.9703369140625
1629807886073,-0.20513916015625,0.0888671875,0.9661865234375
1629807886073,-0.2039794921875,0.08941650390625,0.97418212890625
1629807886120,-0.20721435546875,0.076416015625,0.96649169921875
1629807886120,-0.2098388671875,0.0748291015625,0.96978759765625
1629807886135,-0.2044677734375,0.08526611328125,0.96929931640625
1629807886182,-0.20404052734375,0.09033203125,0.97662353515625
1629807886182,-0.2044677734375,0.0894775390625,0.9774169921875
1629807886182,-0.2020263671875,0.084228515625,0.97296142578125
1629807886213,-0.20660400390625,0.0888671875,0.9747314453125
1629807886213,-0.20245361328125,0.0919189453125,0.97491455078125
1629807886213,-0.202392578125,0.09332275390625,0.97222900390625
1629807886292,-0.20440673828125,0.0880126953125,0.97552490234375
1629807886292,-0.20086669921875,0.08892822265625,0.97406005859375
1629807886292,-0.20074462890625,0.09112548828125,0.9766845703125
1629807886362,-0.20196533203125,0.0897216796875,0.97509765625
1629807886362,-0.20416259765625,0.0843505859375,0.97509765625
1629807886362,-0.20355224609375,0.08477783203125,0.97503662109375
1629807886394,-0.2042236328125,0.08782958984375,0.97662353515625
1629807886394,-0.2034912109375,0.0882568359375,0.9718017578125
1629807886394,-0.2071533203125,0.08648681640625,0.96905517578125
1629807886459,-0.20654296875,0.090087890625,0.96832275390625
1629807886459,-0.20489501953125,0.091552734375,0.97064208984375
1629807886459,-0.2064208984375,0.089599609375,0.9715576171875
1629807886490,-0.2080078125,0.090576171875,0.97412109375
1629807886490,-0.20831298828125,0.08978271484375,0.96868896484375
1629807886506,-0.203857421875,0.091552734375,0.97119140625
1629807886595,-0.204345703125,0.09185791015625,0.9700927734375
1629807886595,-0.2069091796875,0.09014892578125,0.969482421875
1629807886595,-0.2059326171875,0.08868408203125,0.96868896484375
1629807886626,-0.20697021484375,0.09149169921875,0.971435546875
1629807886626,-0.20709228515625,0.08544921875,0.971923828125
1629807886626,-0.205322265625,0.08935546875,0.97125244140625
1629807886735,-0.20013427734375,0.08306884765625,0.9744873046875
1629807886735,-0.20074462890625,0.0848388671875,0.97113037109375
1629807886735,-0.19921875,0.0797119140625,0.98016357421875
1629807886782,-0.20068359375,0.07830810546875,0.97857666015625
1629807886782,-0.20269775390625,0.0780029296875,0.9791259765625
1629807886782,-0.19879150390625,0.0780029296875,0.9775390625
1629807886845,-0.2041015625,0.08270263671875,0.9720458984375
1629807886845,-0.20233154296875,0.08648681640625,0.97491455078125
1629807886845,-0.2059326171875,0.08929443359375,0.97332763671875
1629807886860,-0.21087646484375,0.0924072265625,0.969482421875
1629807886860,-0.21197509765625,0.09259033203125,0.958251953125
1629807886860,-0.20684814453125,0.08868408203125,0.97479248046875
1629807886954,-0.21270751953125,0.08367919921875,0.96832275390625
1629807886954,-0.2120361328125,0.0792236328125,0.96795654296875
1629807886954,-0.20977783203125,0.08050537109375,0.9658203125
1629807887001,-0.2073974609375,0.09326171875,0.9639892578125
1629807887001,-0.19927978515625,0.09283447265625,0.9793701171875
1629807887001,-0.201171875,0.09527587890625,0.9727783203125
1629807887049,-0.1932373046875,0.09454345703125,0.98052978515625
1629807887049,-0.1983642578125,0.09649658203125,0.9813232421875
1629807887049,-0.1959228515625,0.093994140625,0.98046875
1629807887096,-0.1961669921875,0.08221435546875,0.97991943359375
1629807887097,-0.196044921875,0.08892822265625,0.974609375
1629807887097,-0.19952392578125,0.0849609375,0.978759765625
1629807887143,-0.1998291015625,0.08502197265625,0.97003173828125
1629807887143,-0.20001220703125,0.08233642578125,0.97576904296875
1629807887143,-0.198974609375,0.08538818359375,0.97412109375
1629807887228,-0.20379638671875,0.08306884765625,0.9691162109375
1629807887228,-0.20458984375,0.0804443359375,0.97021484375
1629807887228,-0.20330810546875,0.0802001953125,0.97064208984375
1629807887290,-0.19854736328125,0.08685302734375,0.97540283203125
1629807887306,-0.20361328125,0.0838623046875,0.97027587890625
1629807887306,-0.20526123046875,0.08465576171875,0.97119140625
1629807887322,-0.19970703125,0.0914306640625,0.97296142578125
1629807887322,-0.2021484375,0.09161376953125,0.9775390625
1629807887322,-0.198974609375,0.08740234375,0.97686767578125
1629807887431,-0.2041015625,0.08709716796875,0.9715576171875
1629807887431,-0.20379638671875,0.09100341796875,0.97412109375
1629807887431,-0.2000732421875,0.08819580078125,0.973388671875
1629807887478,-0.20465087890625,0.09295654296875,0.969970703125
1629807887478,-0.20440673828125,0.0877685546875,0.9697265625
1629807887493,-0.20361328125,0.0894775390625,0.96893310546875
1629807887529,-0.20513916015625,0.0897216796875,0.96844482421875
1629807887529,-0.20123291015625,0.088134765625,0.9730224609375
1629807887529,-0.20294189453125,0.087890625,0.97027587890625
1629807887638,-0.201171875,0.082763671875,0.975341796875
1629807887653,-0.19879150390625,0.08203125,0.97491455078125
1629807887653,-0.202392578125,0.0850830078125,0.980224609375
1629807887669,-0.2017822265625,0.08770751953125,0.974365234375
1629807887669,-0.20098876953125,0.0855712890625,0.97784423828125
1629807887669,-0.19927978515625,0.0858154296875,0.973876953125
1629807887700,-0.20184326171875,0.08734130859375,0.97503662109375
1629807887700,-0.20245361328125,0.095947265625,0.9737548828125
1629807887700,-0.20361328125,0.09466552734375,0.97357177734375
1629807887763,-0.20953369140625,0.0794677734375,0.96539306640625
1629807887763,-0.20147705078125,0.08929443359375,0.96685791015625
1629807887763,-0.2081298828125,0.08551025390625,0.97027587890625
1629807887810,-0.20880126953125,0.07611083984375,0.96685791015625
1629807887810,-0.20770263671875,0.08758544921875,0.96820068359375
1629807887810,-0.20550537109375,0.081787109375,0.96502685546875
1629807887888,-0.19793701171875,0.09393310546875,0.981201171875
1629807887888,-0.19964599609375,0.09197998046875,0.9788818359375
1629807887888,-0.202392578125,0.0914306640625,0.974853515625
1629807887919,-0.20257568359375,0.08209228515625,0.9718017578125
1629807887919,-0.2027587890625,0.09136962890625,0.9737548828125
1629807887919,-0.19873046875,0.0946044921875,0.97412109375
1629807887997,-0.20037841796875,0.08135986328125,0.974365234375
1629807887997,-0.204345703125,0.08001708984375,0.97576904296875
1629807888006,-0.20440673828125,0.07794189453125,0.97601318359375
1629807888045,-0.2052001953125,0.08087158203125,0.974365234375
1629807888045,-0.20159912109375,0.08172607421875,0.97930908203125
1629807888045,-0.2061767578125,0.07843017578125,0.9754638671875
1629807888077,-0.20599365234375,0.08551025390625,0.9725341796875
1629807888077,-0.2041015625,0.08575439453125,0.97271728515625
1629807888077,-0.203369140625,0.08349609375,0.972900390625
1629807888170,-0.20721435546875,0.08392333984375,0.97589111328125
1629807888170,-0.20538330078125,0.08575439453125,0.974609375
1629807888170,-0.2081298828125,0.08782958984375,0.97210693359375
1629807888248,-0.2086181640625,0.08892822265625,0.9669189453125
1629807888248,-0.20684814453125,0.08807373046875,0.97247314453125
1629807888248,-0.20953369140625,0.0904541015625,0.9697265625
1629807888280,-0.2108154296875,0.09051513671875,0.9678955078125
1629807888280,-0.2093505859375,0.087890625,0.9676513671875
1629807888280,-0.209228515625,0.09173583984375,0.96881103515625
1629807888342,-0.2060546875,0.08856201171875,0.97052001953125
1629807888342,-0.206787109375,0.09173583984375,0.96868896484375
1629807888342,-0.2066650390625,0.08837890625,0.97283935546875
1629807888420,-0.20391845703125,0.0855712890625,0.9769287109375
1629807888420,-0.2064208984375,0.08795166015625,0.97454833984375
1629807888420,-0.2025146484375,0.08575439453125,0.9732666015625
1629807888451,-0.20703125,0.084228515625,0.97589111328125
1629807888451,-0.20074462890625,0.08416748046875,0.9775390625
1629807888451,-0.20330810546875,0.0833740234375,0.9779052734375
1629807888514,-0.20306396484375,0.0921630859375,0.972412109375
1629807888514,-0.19891357421875,0.08795166015625,0.97503662109375
1629807888514,-0.2044677734375,0.088134765625,0.97418212890625
1629807888576,-0.20599365234375,0.0911865234375,0.96746826171875
1629807888576,-0.20782470703125,0.0933837890625,0.9710693359375
1629807888576,-0.2117919921875,0.08251953125,0.97235107421875
1629807888639,-0.212158203125,0.084716796875,0.96575927734375
1629807888639,-0.21087646484375,0.07354736328125,0.9688720703125
1629807888639,-0.21087646484375,0.07037353515625,0.967041015625
1629807888686,-0.20074462890625,0.09954833984375,0.974365234375
1629807888686,-0.20654296875,0.090576171875,0.97149658203125
1629807888686,-0.2052001953125,0.09625244140625,0.9759521484375
1629807888795,-0.2044677734375,0.095703125,0.97235107421875
1629807888795,-0.200927734375,0.10028076171875,0.97491455078125
1629807888795,-0.2034912109375,0.0908203125,0.97113037109375
1629807888842,-0.20751953125,0.077392578125,0.972900390625
1629807888842,-0.2060546875,0.0789794921875,0.97100830078125
1629807888842,-0.21044921875,0.083740234375,0.97198486328125
1629807888873,-0.20648193359375,0.084228515625,0.977783203125
1629807888873,-0.20611572265625,0.08172607421875,0.97552490234375
1629807888873,-0.20635986328125,0.083251953125,0.97552490234375
1629807888936,-0.211181640625,0.089599609375,0.97235107421875
1629807888936,-0.2083740234375,0.08441162109375,0.971435546875
1629807888936,-0.21075439453125,0.0885009765625,0.97161865234375
1629807889014,-0.2066650390625,0.088134765625,0.972412109375
1629807889014,-0.20611572265625,0.08428955078125,0.96978759765625
1629807889014,-0.2127685546875,0.0870361328125,0.9703369140625
1629807889061,-0.20880126953125,0.0892333984375,0.96929931640625
1629807889061,-0.210205078125,0.0877685546875,0.97564697265625
1629807889061,-0.20953369140625,0.08935546875,0.97076416015625
1629807889108,-0.20989990234375,0.0909423828125,0.96759033203125
1629807889108,-0.2108154296875,0.09234619140625,0.97119140625
1629807889108,-0.213134765625,0.09130859375,0.97113037109375
1629807889186,-0.208984375,0.0965576171875,0.968505859375
1629807889186,-0.20660400390625,0.0948486328125,0.967041015625
1629807889186,-0.2113037109375,0.0931396484375,0.9658203125
1629807889216,-0.204833984375,0.0899658203125,0.97314453125
1629807889216,-0.2086181640625,0.0931396484375,0.9697265625
1629807889217,-0.20513916015625,0.09161376953125,0.97113037109375
1629807889324,-0.20513916015625,0.08953857421875,0.97528076171875
1629807889324,-0.20477294921875,0.08990478515625,0.9735107421875
1629807889324,-0.20550537109375,0.0889892578125,0.97491455078125
1629807889387,-0.20452880859375,0.08599853515625,0.97894287109375
1629807889387,-0.2052001953125,0.08758544921875,0.97454833984375
1629807889387,-0.2049560546875,0.08648681640625,0.97528076171875
1629807889402,-0.20526123046875,0.09332275390625,0.97210693359375
1629807889418,-0.20477294921875,0.089111328125,0.9720458984375
1629807889418,-0.20245361328125,0.08856201171875,0.97210693359375
1629807889449,-0.20782470703125,0.0960693359375,0.97100830078125
1629807889449,-0.2078857421875,0.0950927734375,0.969482421875
1629807889449,-0.2088623046875,0.0947265625,0.968994140625
1629807889562,-0.2083740234375,0.09197998046875,0.97308349609375
1629807889565,-0.2113037109375,0.085205078125,0.96600341796875
1629807889567,-0.2088623046875,0.08123779296875,0.96539306640625
1629807889595,-0.2042236328125,0.08526611328125,0.96917724609375
1629807889595,-0.2012939453125,0.09759521484375,0.97418212890625
1629807889595,-0.2064208984375,0.094970703125,0.97247314453125
1629807889626,-0.19970703125,0.0931396484375,0.97564697265625
1629807889626,-0.19970703125,0.09136962890625,0.9739990234375
1629807889626,-0.19598388671875,0.09423828125,0.9764404296875
1629807889689,-0.20050048828125,0.0855712890625,0.9716796875
1629807889689,-0.20550537109375,0.075927734375,0.971435546875
1629807889689,-0.203125,0.07867431640625,0.97418212890625
1629807889782,-0.20306396484375,0.08203125,0.97552490234375
1629807889782,-0.198486328125,0.08056640625,0.974609375
1629807889782,-0.2017822265625,0.07537841796875,0.97021484375
1629807889814,-0.20233154296875,0.08099365234375,0.97320556640625
1629807889814,-0.202392578125,0.08673095703125,0.9735107421875
1629807889814,-0.2021484375,0.08441162109375,0.9727783203125
1629807889876,-0.200927734375,0.0911865234375,0.97772216796875
1629807889876,-0.203369140625,0.087890625,0.97784423828125
1629807889876,-0.20587158203125,0.089599609375,0.9786376953125
1629807889954,-0.2030029296875,0.09381103515625,0.972900390625
1629807889954,-0.19915771484375,0.0933837890625,0.975830078125
1629807889954,-0.19903564453125,0.0914306640625,0.9801025390625
1629807890001,-0.2052001953125,0.09490966796875,0.96612548828125
1629807890001,-0.20477294921875,0.09307861328125,0.969970703125
1629807890001,-0.2041015625,0.09527587890625,0.9688720703125
1629807890064,-0.20965576171875,0.0914306640625,0.97015380859375
1629807890064,-0.204345703125,0.095458984375,0.96929931640625
1629807890095,-0.20391845703125,0.08905029296875,0.96795654296875
1629807890095,-0.203857421875,0.0841064453125,0.9715576171875
1629807890095,-0.20672607421875,0.089111328125,0.97021484375
1629807890110,-0.2049560546875,0.08721923828125,0.97210693359375
1629807890173,-0.2017822265625,0.0858154296875,0.9730224609375
1629807890173,-0.206787109375,0.08453369140625,0.9732666015625
1629807890173,-0.2037353515625,0.08392333984375,0.973876953125
1629807890251,-0.20318603515625,0.08203125,0.975830078125
1629807890251,-0.19921875,0.0841064453125,0.97454833984375
1629807890251,-0.19781494140625,0.0859375,0.9749755859375
1629807890332,-0.19970703125,0.089111328125,0.97528076171875
1629807890332,-0.20245361328125,0.0894775390625,0.97528076171875
1629807890332,-0.1973876953125,0.08526611328125,0.97686767578125
1629807890364,-0.2012939453125,0.0921630859375,0.97491455078125
1629807890364,-0.20111083984375,0.08935546875,0.9730224609375
1629807890364,-0.2020263671875,0.0888671875,0.974609375
1629807890442,-0.200927734375,0.08984375,0.9708251953125
1629807890442,-0.20135498046875,0.0887451171875,0.9727783203125
1629807890442,-0.2032470703125,0.08673095703125,0.971923828125
1629807890489,-0.20147705078125,0.09002685546875,0.9693603515625
1629807890489,-0.205322265625,0.0921630859375,0.97247314453125
1629807890489,-0.2034912109375,0.092041015625,0.9710693359375
1629807890505,-0.209228515625,0.08544921875,0.974853515625
1629807890505,-0.20269775390625,0.09130859375,0.97149658203125
1629807890505,-0.2054443359375,0.07928466796875,0.96844482421875
1629807890626,-0.19598388671875,0.09027099609375,0.97296142578125
1629807890626,-0.1937255859375,0.09075927734375,0.98016357421875
1629807890641,-0.20013427734375,0.08477783203125,0.9708251953125
1629807890672,-0.19378662109375,0.09716796875,0.98223876953125
1629807890672,-0.19171142578125,0.093017578125,0.98101806640625
1629807890672,-0.1920166015625,0.09912109375,0.9769287109375
1629807890735,-0.2001953125,0.093994140625,0.96600341796875
1629807890735,-0.199462890625,0.0997314453125,0.971435546875
