timestamp,ax,ay,az
1631021159159,-0.04693603515625,0.0281982421875,1.001708984375
1631021159159,-0.05364990234375,0.02313232421875,1.0018310546875
1631021159159,-0.05072021484375,0.0281982421875,1.00543212890625
1631021159200,-0.0560302734375,0.02374267578125,1.0015869140625
1631021159201,-0.0540771484375,0.02587890625,0.993896484375
1631021159202,-0.057373046875,0.0267333984375,0.99163818359375
1631021159349,-0.05535888671875,0.02520751953125,0.99176025390625
1631021159349,-0.05487060546875,0.02716064453125,0.9925537109375
1631021159349,-0.05572509765625,0.0247802734375,0.9893798828125
1631021159365,-0.0594482421875,0.027099609375,0.99346923828125
1631021159365,-0.05255126953125,0.02923583984375,0.99896240234375
1631021159365,-0.05133056640625,0.02557373046875,0.99462890625
1631021159380,-0.0521240234375,0.0283203125,1.00054931640625
1631021159380,-0.04962158203125,0.03143310546875,1.002197265625
1631021159380,-0.04840087890625,0.0289306640625,1.00091552734375
1631021159427,-0.05364990234375,0.03375244140625,1.0
1631021159427,-0.0528564453125,0.032470703125,1.00030517578125
1631021159427,-0.04998779296875,0.0302734375,0.99822998046875
1631021159505,-0.0538330078125,0.0311279296875,0.99212646484375
1631021159505,-0.05145263671875,0.03125,0.98663330078125
1631021159505,-0.047607421875,0.03131103515625,0.9957275390625
1631021159552,-0.04498291015625,0.030517578125,0.99993896484375
1631021159552,-0.04595947265625,0.033203125,0.99908447265625
1631021159552,-0.04840087890625,0.028076171875,0.99578857421875
1631021159615,-0.04400634765625,0.03179931640625,1.002197265625
1631021159615,-0.041748046875,0.0325927734375,1.0013427734375
1631021159615,-0.04498291015625,0.031982421875,0.9981689453125
1631021159661,-0.043212890625,0.03778076171875,1.00274658203125
1631021159661,-0.04339599609375,0.030517578125,1.0025634765625
1631021159661,-0.04278564453125,0.03277587890625,1.00677490234375
1631021159755,-0.0482177734375,0.0284423828125,1.00140380859375
1631021159755,-0.04449462890625,0.029296875,0.99700927734375
1631021159755,-0.04315185546875,0.0294189453125,0.99884033203125
1631021159802,-0.0457763671875,0.0343017578125,0.99859619140625
1631021159802,-0.04656982421875,0.0343017578125,1.0029296875
1631021159802,-0.04351806640625,0.0340576171875,1.00042724609375
1631021159849,-0.04486083984375,0.03826904296875,0.99755859375
1631021159849,-0.04864501953125,0.0360107421875,0.99749755859375
1631021159849,-0.0440673828125,0.03265380859375,0.99847412109375
1631021159911,-0.048583984375,0.0322265625,0.997314453125
1631021159911,-0.047119140625,0.03179931640625,0.99591064453125
1631021159911,-0.04779052734375,0.03076171875,1.0037841796875
1631021159989,-0.05047607421875,0.03045654296875,0.99169921875
1631021159989,-0.04949951171875,0.02813720703125,1.00177001953125
1631021159989,-0.05126953125,0.0303955078125,0.99853515625
1631021160021,-0.04864501953125,0.02984619140625,0.99993896484375
1631021160021,-0.05059814453125,0.03240966796875,0.99932861328125
1631021160021,-0.05072021484375,0.029541015625,1.001220703125
1631021160068,-0.0477294921875,0.02947998046875,0.99920654296875
1631021160068,-0.0479736328125,0.0296630859375,1.0001220703125
1631021160068,-0.04833984375,0.0296630859375,1.00286865234375
1631021160162,-0.04913330078125,0.030517578125,1.0009765625
1631021160162,-0.0545654296875,0.0316162109375,0.99169921875
1631021160162,-0.05206298828125,0.031494140625,0.99981689453125
1631021160208,-0.05279541015625,0.0306396484375,0.98822021484375
1631021160208,-0.0535888671875,0.02935791015625,0.986572265625
1631021160208,-0.0555419921875,0.0283203125,0.99053955078125
1631021160271,-0.04937744140625,0.02777099609375,0.9993896484375
1631021160271,-0.05072021484375,0.0269775390625,0.99560546875
1631021160271,-0.0509033203125,0.02752685546875,0.998046875
1631021160318,-0.04425048828125,0.025146484375,0.99859619140625
1631021160318,-0.044677734375,0.023193359375,0.99505615234375
1631021160318,-0.04339599609375,0.02557373046875,0.99859619140625
1631021160365,-0.044677734375,0.0235595703125,1.00433349609375
1631021160365,-0.04132080078125,0.02447509765625,1.0057373046875
1631021160365,-0.04107666015625,0.02508544921875,1.0064697265625
1631021160442,-0.04241943359375,0.02874755859375,1.0042724609375
1631021160442,-0.0445556640625,0.0318603515625,0.9989013671875
1631021160442,-0.04278564453125,0.0330810546875,1.0128173828125
1631021160521,-0.0501708984375,0.02764892578125,1.00372314453125
1631021160521,-0.05364990234375,0.02294921875,0.99139404296875
1631021160521,-0.0535888671875,0.0186767578125,1.001708984375
1631021160536,-0.0491943359375,0.0286865234375,0.990966796875
1631021160536,-0.05438232421875,0.03131103515625,0.99493408203125
1631021160536,-0.05157470703125,0.02978515625,0.99163818359375
1631021160599,-0.0562744140625,0.0338134765625,0.99237060546875
1631021160599,-0.05352783203125,0.02984619140625,0.99603271484375
1631021160599,-0.05328369140625,0.03411865234375,0.99237060546875
1631021160692,-0.05291748046875,0.02825927734375,0.99273681640625
1631021160692,-0.0574951171875,0.02569580078125,0.995849609375
1631021160692,-0.05780029296875,0.03033447265625,0.99127197265625
1631021160739,-0.056396484375,0.02484130859375,0.99774169921875
1631021160739,-0.05523681640625,0.02093505859375,0.99566650390625
1631021160739,-0.055419921875,0.02410888671875,0.99383544921875
1631021160817,-0.04864501953125,0.024658203125,0.99853515625
1631021160817,-0.0518798828125,0.025390625,1.00018310546875
1631021160817,-0.05389404296875,0.02593994140625,0.99542236328125
1631021160833,-0.05120849609375,0.02606201171875,0.99945068359375
1631021160849,-0.051513671875,0.02764892578125,1.00677490234375
1631021160849,-0.05224609375,0.02801513671875,1.00140380859375
1631021160895,-0.05450439453125,0.0277099609375,1.001708984375
1631021160895,-0.0538330078125,0.029541015625,1.00244140625
1631021160895,-0.04827880859375,0.0267333984375,1.002685546875
1631021161036,-0.0516357421875,0.03021240234375,0.99176025390625
1631021161036,-0.05792236328125,0.0306396484375,0.99346923828125
1631021161036,-0.0565185546875,0.031005859375,0.9910888671875
1631021161099,-0.0531005859375,0.0323486328125,0.99334716796875
1631021161099,-0.049560546875,0.0306396484375,0.99322509765625
1631021161099,-0.05389404296875,0.03155517578125,0.9969482421875
1631021161114,-0.05242919921875,0.02703857421875,0.99676513671875
1631021161114,-0.05010986328125,0.02752685546875,0.993408203125
1631021161114,-0.050048828125,0.027099609375,0.99212646484375
1631021161161,-0.0440673828125,0.0277099609375,0.99481201171875
1631021161177,-0.0450439453125,0.034423828125,1.00390625
1631021161177,-0.04486083984375,0.03460693359375,0.9952392578125
1631021161208,-0.04248046875,0.0364990234375,1.0042724609375
1631021161208,-0.04254150390625,0.04266357421875,1.0040283203125
1631021161208,-0.040771484375,0.039794921875,1.010986328125
1631021161286,-0.04296875,0.03607177734375,1.0023193359375
1631021161286,-0.04400634765625,0.03094482421875,1.00830078125
1631021161302,-0.04443359375,0.0294189453125,0.9942626953125
1631021161349,-0.04437255859375,0.02880859375,0.99407958984375
1631021161349,-0.05181884765625,0.02740478515625,1.00054931640625
1631021161349,-0.04693603515625,0.03399658203125,1.00164794921875
1631021161380,-0.0474853515625,0.033935546875,1.00439453125
1631021161380,-0.05078125,0.03680419921875,0.99749755859375
1631021161380,-0.05291748046875,0.033447265625,0.992431640625
1631021161442,-0.0528564453125,0.029296875,0.9906005859375
1631021161442,-0.05194091796875,0.03314208984375,0.99139404296875
1631021161442,-0.04998779296875,0.03045654296875,0.9932861328125
1631021161536,-0.05224609375,0.032470703125,0.9969482421875
1631021161536,-0.05621337890625,0.029052734375,0.9964599609375
1631021161536,-0.0513916015625,0.02740478515625,0.995361328125
1631021161583,-0.05120849609375,0.03680419921875,0.9984130859375
1631021161583,-0.05145263671875,0.037109375,0.99591064453125
1631021161583,-0.05133056640625,0.03472900390625,0.9986572265625
1631021161614,-0.04888916015625,0.03662109375,1.003662109375
1631021161614,-0.05047607421875,0.03668212890625,1.00177001953125
1631021161614,-0.04754638671875,0.0384521484375,0.998046875
1631021161677,-0.05218505859375,0.03515625,1.000732421875
1631021161677,-0.05181884765625,0.0325927734375,0.99609375
1631021161677,-0.04864501953125,0.03387451171875,0.9989013671875
1631021161755,-0.04949951171875,0.03497314453125,1.000244140625
1631021161755,-0.04827880859375,0.0384521484375,0.992431640625
1631021161755,-0.053466796875,0.03961181640625,0.99505615234375
1631021161864,-0.04571533203125,0.03411865234375,0.994873046875
1631021161864,-0.04754638671875,0.03656005859375,0.9923095703125
1631021161864,-0.04937744140625,0.036865234375,0.99346923828125
1631021161880,-0.0430908203125,0.02960205078125,0.99725341796875
1631021161880,-0.04339599609375,0.03131103515625,0.99835205078125
1631021161880,-0.040283203125,0.0291748046875,0.9986572265625
1631021161973,-0.04107666015625,0.033447265625,1.0008544921875
1631021161973,-0.040283203125,0.03338623046875,1.00262451171875
1631021161989,-0.0391845703125,0.03924560546875,1.0037841796875
1631021161989,-0.03912353515625,0.0364990234375,1.0067138671875
1631021161989,-0.038818359375,0.0390625,1.00274658203125
1631021161989,-0.04022216796875,0.04473876953125,0.99847412109375
1631021162020,-0.0400390625,0.02716064453125,1.00726318359375
1631021162020,-0.04241943359375,0.028076171875,1.00006103515625
1631021162020,-0.04217529296875,0.03472900390625,0.9947509765625
1631021162114,-0.04266357421875,0.03546142578125,0.9957275390625
1631021162114,-0.04437255859375,0.03594970703125,0.99896240234375
1631021162114,-0.04425048828125,0.0418701171875,0.99749755859375
1631021162145,-0.04486083984375,0.04144287109375,0.99420166015625
1631021162145,-0.048095703125,0.04290771484375,0.994873046875
1631021162145,-0.0499267578125,0.03582763671875,0.9951171875
1631021162210,-0.05078125,0.03216552734375,0.994873046875
1631021162211,-0.05078125,0.03326416015625,0.9979248046875
1631021162211,-0.05340576171875,0.03399658203125,0.99066162109375
1631021162289,-0.0511474609375,0.03277587890625,0.99615478515625
1631021162289,-0.05029296875,0.03375244140625,0.9996337890625
1631021162304,-0.0501708984375,0.04022216796875,0.99603271484375
1631021162336,-0.04669189453125,0.03497314453125,0.99530029296875
1631021162336,-0.04779052734375,0.03668212890625,0.9940185546875
1631021162336,-0.04876708984375,0.0360107421875,0.99334716796875
1631021162398,-0.041259765625,0.03704833984375,1.00750732421875
1631021162398,-0.04449462890625,0.037353515625,1.005859375
1631021162398,-0.04620361328125,0.032470703125,0.9986572265625
1631021162461,-0.0462646484375,0.0313720703125,1.00164794921875
1631021162476,-0.0499267578125,0.03326416015625,0.9998779296875
1631021162476,-0.0460205078125,0.03363037109375,1.00225830078125
1631021162554,-0.05078125,0.0352783203125,0.9901123046875
1631021162554,-0.046875,0.03765869140625,0.995849609375
1631021162554,-0.04498291015625,0.0335693359375,0.9918212890625
1631021162570,-0.04632568359375,0.03302001953125,0.9967041015625
1631021162570,-0.04791259765625,0.03118896484375,0.9952392578125
1631021162570,-0.0465087890625,0.0308837890625,0.99493408203125
1631021162617,-0.0419921875,0.02923583984375,0.995849609375
1631021162617,-0.0457763671875,0.03082275390625,0.9967041015625
1631021162648,-0.04058837890625,0.03350830078125,0.99530029296875
1631021162648,-0.04364013671875,0.03265380859375,1.00439453125
1631021162648,-0.0406494140625,0.04095458984375,1.00091552734375
1631021162757,-0.04510498046875,0.02874755859375,0.9998779296875
1631021162757,-0.04461669921875,0.0302734375,1.0
1631021162757,-0.0406494140625,0.04034423828125,1.00469970703125
1631021162804,-0.04229736328125,0.03887939453125,1.00146484375
1631021162804,-0.040283203125,0.0350341796875,0.99676513671875
1631021162804,-0.04095458984375,0.0357666015625,1.000732421875
1631021162851,-0.03912353515625,0.04180908203125,1.00018310546875
1631021162851,-0.03973388671875,0.0377197265625,1.0018310546875
1631021162851,-0.042724609375,0.0438232421875,0.99761962890625
1631021162976,-0.0482177734375,0.03912353515625,0.9945068359375
1631021162976,-0.04425048828125,0.0330810546875,0.9945068359375
1631021162976,-0.04547119140625,0.04022216796875,0.99462890625
1631021163054,-0.04437255859375,0.034423828125,0.99896240234375
1631021163054,-0.04559326171875,0.03326416015625,0.9984130859375
1631021163070,-0.04638671875,0.0311279296875,1.0010986328125
1631021163117,-0.04150390625,0.03546142578125,1.001220703125
1631021163117,-0.044189453125,0.0399169921875,0.99688720703125
1631021163117,-0.04156494140625,0.03472900390625,0.99774169921875
1631021163117,-0.04290771484375,0.03582763671875,0.996337890625
1631021163117,-0.04248046875,0.036865234375,0.9970703125
1631021163117,-0.04217529296875,0.035888671875,0.9989013671875
1631021163148,-0.04296875,0.03631591796875,1.0015869140625
1631021163148,-0.04052734375,0.03631591796875,1.0018310546875
1631021163148,-0.041259765625,0.03607177734375,0.99737548828125
1631021163197,-0.04541015625,0.039794921875,0.989501953125
1631021163197,-0.0435791015625,0.04083251953125,0.99700927734375
1631021163197,-0.0411376953125,0.03759765625,0.99603271484375
1631021163259,-0.039794921875,0.039306640625,0.9945068359375
1631021163259,-0.044189453125,0.03936767578125,0.98712158203125
1631021163322,-0.0352783203125,0.03497314453125,1.00250244140625
1631021163322,-0.03759765625,0.0361328125,1.00189208984375
1631021163322,-0.03741455078125,0.033447265625,1.00543212890625
1631021163384,-0.036865234375,0.04376220703125,1.0089111328125
1631021163384,-0.037841796875,0.04107666015625,0.98919677734375
1631021163384,-0.0462646484375,0.03948974609375,1.0186767578125
1631021163462,-0.0491943359375,0.04168701171875,1.01116943359375
1631021163462,-0.048095703125,0.03143310546875,1.000244140625
1631021163462,-0.0531005859375,0.01983642578125,0.97955322265625
1631021163478,-0.05413818359375,0.0318603515625,0.9893798828125
1631021163478,-0.0513916015625,0.03546142578125,0.99871826171875
1631021163478,-0.0540771484375,0.02777099609375,0.972900390625
1631021163556,-0.04571533203125,0.03857421875,1.0069580078125
1631021163556,-0.0452880859375,0.04150390625,1.0006103515625
1631021163572,-0.04302978515625,0.0362548828125,0.99114990234375
1631021163681,-0.04302978515625,0.030029296875,0.99822998046875
1631021163681,-0.04107666015625,0.03216552734375,1.00067138671875
1631021163681,-0.04632568359375,0.02655029296875,0.99896240234375
1631021163697,-0.04010009765625,0.0284423828125,1.00347900390625
1631021163697,-0.04217529296875,0.0262451171875,1.00360107421875
1631021163697,-0.04046630859375,0.025634765625,1.0048828125
1631021163744,-0.0416259765625,0.0391845703125,0.99371337890625
1631021163744,-0.0439453125,0.0477294921875,0.99041748046875
1631021163744,-0.04034423828125,0.03857421875,0.991455078125
1631021163791,-0.04791259765625,0.04931640625,0.99383544921875
1631021163791,-0.04608154296875,0.05242919921875,1.0028076171875
1631021163791,-0.04217529296875,0.052490234375,0.99542236328125
1631021163889,-0.0413818359375,0.04107666015625,1.00518798828125
1631021163889,-0.04034423828125,0.0496826171875,0.98828125
1631021163889,-0.0396728515625,0.0499267578125,0.97674560546875
1631021163920,-0.04132080078125,0.0413818359375,1.0028076171875
1631021163920,-0.0316162109375,0.044921875,0.99566650390625
1631021163920,-0.0394287109375,0.04693603515625,0.9970703125
1631021163982,-0.03302001953125,0.040771484375,1.00360107421875
1631021163982,-0.03106689453125,0.041748046875,1.00177001953125
1631021163982,-0.03460693359375,0.04632568359375,1.00372314453125
1631021164061,-0.03070068359375,0.0423583984375,1.0040283203125
1631021164061,-0.03106689453125,0.0401611328125,1.0020751953125
1631021164061,-0.0303955078125,0.04425048828125,1.0037841796875
1631021164123,-0.03265380859375,0.03875732421875,1.006591796875
1631021164123,-0.02984619140625,0.0411376953125,1.00323486328125
1631021164123,-0.03173828125,0.04107666015625,1.003173828125
1631021164221,-0.037353515625,0.03582763671875,1.008056640625
1631021164222,-0.03314208984375,0.0325927734375,1.0018310546875
1631021164223,-0.03631591796875,0.03741455078125,1.00042724609375
1631021164241,-0.03826904296875,0.039794921875,0.99072265625
1631021164242,-0.0386962890625,0.043212890625,0.9945068359375
1631021164242,-0.0430908203125,0.03826904296875,0.99053955078125
1631021164258,-0.04095458984375,0.04473876953125,0.994384765625
1631021164259,-0.04412841796875,0.04327392578125,0.99676513671875
1631021164260,-0.0445556640625,0.0433349609375,0.99822998046875
1631021164343,-0.04443359375,0.04803466796875,0.99688720703125
1631021164344,-0.0413818359375,0.04864501953125,0.9925537109375
1631021164344,-0.04107666015625,0.0489501953125,0.99456787109375
1631021164408,-0.04486083984375,0.04473876953125,0.99737548828125
1631021164409,-0.03863525390625,0.0426025390625,0.99853515625
1631021164409,-0.040771484375,0.04315185546875,1.00555419921875
1631021164433,-0.042236328125,0.04443359375,0.99639892578125
1631021164433,-0.03790283203125,0.04742431640625,0.9962158203125
1631021164433,-0.0386962890625,0.043701171875,0.9957275390625
1631021164726,-0.03717041015625,0.04345703125,0.99737548828125
1631021164727,-0.03564453125,0.0469970703125,0.99951171875
1631021164727,-0.03857421875,0.04718017578125,0.9979248046875
1631021164734,-0.0382080078125,0.0472412109375,0.9996337890625
1631021164735,-0.03863525390625,0.04736328125,0.99932861328125
1631021164735,-0.038330078125,0.04986572265625,0.99688720703125
1631021164751,-0.04046630859375,0.04345703125,0.99334716796875
1631021164751,-0.0389404296875,0.04669189453125,0.99462890625
1631021164751,-0.037353515625,0.0438232421875,0.99462890625
1631021164766,-0.03582763671875,0.04522705078125,0.9986572265625
1631021164766,-0.037109375,0.05072021484375,0.9998779296875
1631021164766,-0.0396728515625,0.04949951171875,0.99462890625
1631021164813,-0.03717041015625,0.04180908203125,1.00384521484375
1631021164813,-0.0341796875,0.04736328125,1.00408935546875
1631021164813,-0.03375244140625,0.04058837890625,1.0072021484375
1631021164900,-0.03485107421875,0.041259765625,0.99798583984375
1631021164902,-0.0322265625,0.0477294921875,1.00164794921875
1631021164903,-0.03759765625,0.044677734375,1.00390625
1631021164933,-0.0406494140625,0.0540771484375,0.99957275390625
1631021164933,-0.03887939453125,0.05108642578125,0.998779296875
1631021164934,-0.04010009765625,0.0543212890625,0.99755859375
1631021164996,-0.0384521484375,0.05224609375,0.99188232421875
1631021164997,-0.04376220703125,0.0467529296875,0.99261474609375
1631021164997,-0.04266357421875,0.04510498046875,0.98980712890625
1631021165054,-0.04669189453125,0.04193115234375,1.00262451171875
1631021165054,-0.0478515625,0.043212890625,0.99627685546875
1631021165055,-0.03985595703125,0.04345703125,0.99688720703125
1631021165094,-0.04058837890625,0.04681396484375,0.990478515625
1631021165094,-0.03851318359375,0.04742431640625,0.99139404296875
1631021165095,-0.03509521484375,0.04742431640625,0.9935302734375
1631021165212,-0.03564453125,0.05035400390625,1.000732421875
1631021165213,-0.0325927734375,0.04742431640625,1.0035400390625
1631021165214,-0.03485107421875,0.0458984375,0.99969482421875
1631021165240,-0.03717041015625,0.04730224609375,1.00115966796875
1631021165241,-0.03387451171875,0.044189453125,0.99945068359375
1631021165241,-0.03277587890625,0.04949951171875,1.00177001953125
1631021165283,-0.03466796875,0.04986572265625,0.999267578125
1631021165284,-0.033935546875,0.05291748046875,0.99871826171875
1631021165284,-0.03277587890625,0.0521240234375,1.00018310546875
1631021165360,-0.0325927734375,0.05047607421875,0.99755859375
1631021165361,-0.03289794921875,0.049560546875,0.9959716796875
1631021165364,-0.03680419921875,0.0452880859375,0.998046875
1631021165427,-0.03497314453125,0.0430908203125,0.9945068359375
1631021165429,-0.0338134765625,0.0435791015625,0.99847412109375
1631021165430,-0.02880859375,0.04083251953125,0.99957275390625
1631021165482,-0.028076171875,0.044921875,0.9971923828125
1631021165483,-0.02630615234375,0.04437255859375,1.00421142578125
1631021165483,-0.03265380859375,0.04180908203125,1.00701904296875
1631021165514,-0.0286865234375,0.04351806640625,1.000732421875
1631021165514,-0.02789306640625,0.03851318359375,0.9984130859375
1631021165606,-0.0350341796875,0.05328369140625,1.00189208984375
1631021165607,-0.02874755859375,0.0489501953125,1.00274658203125
1631021165608,-0.0316162109375,0.05255126953125,1.00164794921875
1631021165625,-0.0325927734375,0.05389404296875,1.00146484375
1631021165626,-0.03594970703125,0.0498046875,1.00018310546875
1631021165626,-0.0325927734375,0.04840087890625,0.99560546875
1631021165696,-0.03338623046875,0.0489501953125,0.99517822265625
1631021165696,-0.036865234375,0.04766845703125,0.99761962890625
1631021165697,-0.03558349609375,0.04620361328125,1.00048828125
1631021165755,-0.037109375,0.0516357421875,0.99566650390625
1631021165755,-0.04071044921875,0.04736328125,0.997314453125
1631021165756,-0.03839111328125,0.05035400390625,0.995361328125
1631021165815,-0.0382080078125,0.045654296875,0.99932861328125
1631021165816,-0.032958984375,0.051025390625,0.99713134765625
1631021165816,-0.0345458984375,0.05084228515625,0.99859619140625
1631021165854,-0.03509521484375,0.050048828125,1.00128173828125
1631021165855,-0.03289794921875,0.049072265625,0.99945068359375
1631021165856,-0.0330810546875,0.0528564453125,1.00079345703125
1631021165968,-0.0302734375,0.05255126953125,1.00445556640625
1631021165968,-0.03350830078125,0.05377197265625,0.9976806640625
1631021165969,-0.03515625,0.05413818359375,0.99981689453125
1631021165998,-0.03521728515625,0.05621337890625,1.00091552734375
1631021165999,-0.03546142578125,0.05157470703125,0.99420166015625
1631021165999,-0.0360107421875,0.053466796875,1.000244140625
1631021166031,-0.03192138671875,0.04681396484375,0.9974365234375
1631021166031,-0.03289794921875,0.04949951171875,0.998779296875
1631021166031,-0.0325927734375,0.0496826171875,0.99456787109375
1631021166096,-0.03204345703125,0.04742431640625,1.00042724609375
1631021166096,-0.03350830078125,0.048095703125,1.0018310546875
1631021166097,-0.02838134765625,0.05255126953125,0.9959716796875
1631021166201,-0.0341796875,0.051513671875,1.00421142578125
1631021166203,-0.02996826171875,0.04608154296875,1.00054931640625
1631021166206,-0.03375244140625,0.05023193359375,0.99456787109375
1631021166223,-0.033935546875,0.05816650390625,1.0003662109375
1631021166223,-0.032470703125,0.05450439453125,0.9952392578125
1631021166223,-0.03192138671875,0.05877685546875,0.9971923828125
1631021166284,-0.03216552734375,0.0576171875,0.99853515625
1631021166284,-0.03411865234375,0.05914306640625,0.9991455078125
1631021166285,-0.0367431640625,0.05938720703125,0.99896240234375
1631021166331,-0.0360107421875,0.05401611328125,0.9923095703125
1631021166331,-0.04083251953125,0.04888916015625,0.9927978515625
1631021166332,-0.03564453125,0.0518798828125,0.99560546875
1631021166414,-0.036865234375,0.04742431640625,1.00048828125
1631021166415,-0.03424072265625,0.04833984375,0.9959716796875
1631021166448,-0.03656005859375,0.05560302734375,0.99871826171875
1631021166449,-0.03662109375,0.052978515625,0.9951171875
1631021166541,-0.03594970703125,0.05242919921875,0.99615478515625
1631021166541,-0.03472900390625,0.051025390625,1.00457763671875
1631021166541,-0.03955078125,0.05010986328125,0.99920654296875
1631021166584,-0.03399658203125,0.050048828125,1.00048828125
1631021166584,-0.035400390625,0.04852294921875,0.99981689453125
1631021166584,-0.03472900390625,0.04913330078125,0.994873046875
1631021166615,-0.03662109375,0.04925537109375,0.9932861328125
1631021166615,-0.036376953125,0.04803466796875,0.99481201171875
1631021166615,-0.03802490234375,0.0472412109375,0.99908447265625
1631021166662,-0.03411865234375,0.04730224609375,0.995849609375
1631021166662,-0.03533935546875,0.04559326171875,0.9927978515625
1631021166678,-0.0325927734375,0.04718017578125,0.99560546875
1631021166725,-0.02996826171875,0.0491943359375,0.9993896484375
1631021166725,-0.02886962890625,0.04644775390625,0.99444580078125
1631021166725,-0.02972412109375,0.0484619140625,0.9993896484375
1631021166786,-0.026123046875,0.0501708984375,0.9986572265625
1631021166786,-0.0284423828125,0.05035400390625,1.0037841796875
1631021166786,-0.0308837890625,0.048095703125,1.00347900390625
1631021166865,-0.02838134765625,0.0443115234375,1.00537109375
1631021166865,-0.02886962890625,0.0550537109375,0.99755859375
1631021166927,-0.03021240234375,0.05303955078125,0.99310302734375
1631021166927,-0.03253173828125,0.04742431640625,0.9981689453125
1631021166927,-0.02996826171875,0.05523681640625,0.997802734375
1631021166990,-0.033935546875,0.05816650390625,0.9990234375
1631021166990,-0.031982421875,0.0552978515625,1.0006103515625
1631021166990,-0.03118896484375,0.052978515625,0.99945068359375
1631021167083,-0.0340576171875,0.0567626953125,0.99859619140625
1631021167083,-0.033935546875,0.0506591796875,0.994873046875
1631021167099,-0.03277587890625,0.05035400390625,0.99359130859375
1631021167099,-0.03546142578125,0.0478515625,0.99908447265625
1631021167099,-0.0330810546875,0.05279541015625,0.99761962890625
1631021167161,-0.0361328125,0.05419921875,0.99871826171875
1631021167161,-0.03497314453125,0.05194091796875,0.99822998046875
1631021167208,-0.02874755859375,0.04833984375,1.00213623046875
1631021167208,-0.031494140625,0.04815673828125,0.9993896484375
1631021167208,-0.03082275390625,0.05096435546875,0.9954833984375
1631021167304,-0.0303955078125,0.04925537109375,1.00250244140625
1631021167304,-0.033203125,0.049072265625,0.99798583984375
1631021167304,-0.03179931640625,0.05572509765625,0.99884033203125
1631021167320,-0.036376953125,0.0521240234375,0.99969482421875
1631021167320,-0.0333251953125,0.0528564453125,1.00048828125
1631021167320,-0.0323486328125,0.05877685546875,0.99871826171875
1631021167383,-0.0299072265625,0.0552978515625,0.99932861328125
1631021167383,-0.0286865234375,0.056640625,0.99456787109375
1631021167383,-0.028076171875,0.0526123046875,0.99407958984375
1631021167430,-0.0260009765625,0.0479736328125,1.00006103515625
1631021167430,-0.02777099609375,0.04962158203125,0.997314453125
1631021167430,-0.02728271484375,0.04901123046875,0.99798583984375
1631021167518,-0.02557373046875,0.0556640625,1.00146484375
1631021167518,-0.02362060546875,0.05145263671875,1.0028076171875
1631021167518,-0.027587890625,0.05352783203125,0.99920654296875
1631021167565,-0.02142333984375,0.05401611328125,0.9993896484375
1631021167565,-0.02685546875,0.0576171875,1.0032958984375
1631021167565,-0.029052734375,0.057861328125,0.9957275390625
1631021167639,-0.02838134765625,0.05462646484375,1.0
1631021167641,-0.02996826171875,0.044189453125,1.00286865234375
1631021167643,-0.0286865234375,0.0526123046875,0.99224853515625
1631021167675,-0.03173828125,0.0556640625,0.99237060546875
1631021167676,-0.0308837890625,0.0560302734375,0.99725341796875
1631021167677,-0.0286865234375,0.0572509765625,0.996826171875
1631021167789,-0.0325927734375,0.063232421875,0.9964599609375
1631021167790,-0.03033447265625,0.0579833984375,0.99761962890625
1631021167791,-0.0325927734375,0.0557861328125,0.997314453125
1631021167825,-0.02960205078125,0.04888916015625,0.9949951171875
1631021167826,-0.0338134765625,0.04705810546875,0.998779296875
1631021167826,-0.037109375,0.053466796875,0.9951171875
1631021167878,-0.03363037109375,0.05999755859375,0.99224853515625
1631021167881,-0.03558349609375,0.05255126953125,0.99822998046875
1631021167884,-0.034423828125,0.05462646484375,0.99871826171875
1631021167917,-0.0306396484375,0.0501708984375,1.0010986328125
1631021167917,-0.03118896484375,0.0518798828125,1.00250244140625
1631021167917,-0.03369140625,0.05499267578125,1.00042724609375
1631021168073,-0.02557373046875,0.0443115234375,1.0023193359375
1631021168073,-0.0264892578125,0.04840087890625,0.99884033203125
1631021168073,-0.02850341796875,0.04730224609375,1.0032958984375
1631021168089,-0.02703857421875,0.04254150390625,1.00372314453125
1631021168089,-0.0272216796875,0.04559326171875,1.00494384765625
1631021168089,-0.0255126953125,0.04296875,1.0010986328125
1631021168120,-0.02783203125,0.04669189453125,0.99798583984375
1631021168120,-0.0267333984375,0.0491943359375,0.9996337890625
1631021168120,-0.0252685546875,0.04815673828125,0.997314453125
1631021168167,-0.0267333984375,0.047607421875,0.99591064453125
1631021168167,-0.0245361328125,0.0478515625,0.99639892578125
1631021168167,-0.0257568359375,0.05072021484375,0.99761962890625
1631021168270,-0.02667236328125,0.050537109375,0.99755859375
1631021168270,-0.02801513671875,0.05157470703125,0.9984130859375
1631021168270,-0.02587890625,0.055419921875,0.99951171875
1631021168285,-0.02764892578125,0.05914306640625,1.0035400390625
1631021168285,-0.02349853515625,0.0574951171875,1.0006103515625
1631021168285,-0.02777099609375,0.052490234375,1.0040283203125
1631021168301,-0.0269775390625,0.06475830078125,0.998779296875
1631021168301,-0.02276611328125,0.0633544921875,1.00372314453125
1631021168301,-0.02313232421875,0.0584716796875,1.00689697265625
1631021168406,-0.02978515625,0.06524658203125,1.00286865234375
1631021168407,-0.03179931640625,0.0535888671875,0.9989013671875
1631021168409,-0.03094482421875,0.0594482421875,0.994384765625
1631021168490,-0.0306396484375,0.06365966796875,0.99127197265625
1631021168491,-0.0296630859375,0.0635986328125,1.0001220703125
1631021168492,-0.02801513671875,0.0628662109375,1.00274658203125
1631021168533,-0.03594970703125,0.06146240234375,1.000244140625
1631021168533,-0.03216552734375,0.0640869140625,0.99786376953125
1631021168534,-0.0343017578125,0.05963134765625,0.995361328125
1631021168581,-0.0330810546875,0.0570068359375,0.992919921875
1631021168582,-0.03802490234375,0.05084228515625,0.99169921875
1631021168582,-0.03533935546875,0.05303955078125,0.99444580078125
1631021168629,-0.03857421875,0.0506591796875,0.9979248046875
1631021168630,-0.036376953125,0.0474853515625,0.9991455078125
1631021168631,-0.03546142578125,0.05303955078125,0.99285888671875
1631021168750,-0.03460693359375,0.0538330078125,0.99188232421875
1631021168751,-0.0306396484375,0.05279541015625,0.9913330078125
1631021168752,-0.03076171875,0.05364990234375,0.99609375
1631021168767,-0.033935546875,0.0543212890625,0.9989013671875
1631021168769,-0.037109375,0.0546875,0.99609375
1631021168771,-0.029541015625,0.0557861328125,1.0001220703125
1631021168847,-0.03228759765625,0.0587158203125,0.999755859375
1631021168848,-0.0313720703125,0.0596923828125,1.00262451171875
1631021168848,-0.03118896484375,0.05963134765625,1.00201416015625
1631021168868,-0.02764892578125,0.05462646484375,1.00079345703125
1631021168868,-0.02679443359375,0.0584716796875,0.9974365234375
1631021168868,-0.02899169921875,0.054443359375,1.00396728515625
1631021168965,-0.0286865234375,0.0577392578125,1.00152587890625
1631021168967,-0.02886962890625,0.0537109375,1.0006103515625
1631021168967,-0.0277099609375,0.0570068359375,0.99664306640625
1631021169006,-0.0257568359375,0.053955078125,1.00030517578125
1631021169006,-0.0289306640625,0.04974365234375,1.00079345703125
1631021169006,-0.02520751953125,0.05133056640625,1.00238037109375
1631021169028,-0.026123046875,0.05145263671875,0.99957275390625
1631021169029,-0.0279541015625,0.0550537109375,0.99383544921875
1631021169029,-0.02349853515625,0.05511474609375,0.99755859375
1631021169170,-0.02813720703125,0.0640869140625,0.99639892578125
1631021169170,-0.0284423828125,0.0623779296875,1.00250244140625
1631021169170,-0.02838134765625,0.0631103515625,0.99267578125
1631021169185,-0.0284423828125,0.04833984375,1.00030517578125
1631021169185,-0.030517578125,0.05328369140625,0.99786376953125
1631021169185,-0.03009033203125,0.06573486328125,0.9923095703125
1631021169217,-0.029541015625,0.05206298828125,0.99713134765625
1631021169217,-0.02581787109375,0.055908203125,0.99835205078125
1631021169217,-0.0234375,0.05841064453125,1.002197265625
1631021169299,-0.02557373046875,0.0589599609375,1.003173828125
1631021169299,-0.02947998046875,0.05548095703125,0.9986572265625
1631021169299,-0.02520751953125,0.06097412109375,1.00921630859375
1631021169354,-0.0296630859375,0.0491943359375,0.99639892578125
1631021169354,-0.0325927734375,0.0513916015625,0.99835205078125
1631021169354,-0.03045654296875,0.04693603515625,0.9986572265625
1631021169416,-0.0328369140625,0.0540771484375,0.99920654296875
1631021169416,-0.03460693359375,0.04754638671875,0.99871826171875
1631021169416,-0.03350830078125,0.05364990234375,0.99420166015625
1631021169432,-0.0328369140625,0.05511474609375,0.99371337890625
1631021169432,-0.0345458984375,0.0552978515625,0.99603271484375
1631021169448,-0.0345458984375,0.054931640625,0.9930419921875
1631021169495,-0.032958984375,0.052490234375,0.99432373046875
1631021169495,-0.03033447265625,0.0538330078125,0.998779296875
1631021169495,-0.02850341796875,0.05712890625,1.00244140625
1631021169588,-0.027099609375,0.0567626953125,1.00286865234375
1631021169588,-0.02728271484375,0.05084228515625,1.0013427734375
1631021169588,-0.02349853515625,0.05596923828125,1.00439453125
1631021169749,-0.025146484375,0.05755615234375,1.003662109375
1631021169750,-0.02716064453125,0.060546875,1.00128173828125
1631021169754,-0.02850341796875,0.06231689453125,0.996337890625
1631021169770,-0.0272216796875,0.05950927734375,0.999267578125
1631021169771,-0.02264404296875,0.0592041015625,1.00054931640625
1631021169772,-0.02593994140625,0.05548095703125,0.9959716796875
1631021169791,-0.02471923828125,0.05517578125,0.993896484375
1631021169791,-0.023681640625,0.05303955078125,0.9964599609375
1631021169792,-0.02520751953125,0.05419921875,0.99993896484375
1631021169923,-0.02801513671875,0.053466796875,0.99981689453125
1631021169924,-0.0247802734375,0.0562744140625,1.0042724609375
1631021169924,-0.02667236328125,0.0552978515625,0.99798583984375
1631021169939,-0.02093505859375,0.0576171875,1.00054931640625
1631021169940,-0.02752685546875,0.05816650390625,1.00372314453125
1631021169941,-0.0263671875,0.05816650390625,0.99505615234375
1631021169984,-0.025390625,0.06170654296875,1.00250244140625
1631021169985,-0.0291748046875,0.06182861328125,0.99566650390625
1631021169989,-0.0313720703125,0.05780029296875,0.99102783203125
1631021170002,-0.030029296875,0.0521240234375,1.00384521484375
1631021170002,-0.03729248046875,0.056640625,0.9949951171875
1631021170063,-0.03106689453125,0.06182861328125,1.001708984375
1631021170064,-0.0341796875,0.06085205078125,0.99505615234375
1631021170064,-0.03436279296875,0.06402587890625,0.998046875
1631021170103,-0.02886962890625,0.0601806640625,0.99462890625
1631021170103,-0.0294189453125,0.05718994140625,0.99139404296875
1631021170150,-0.035400390625,0.0565185546875,0.9901123046875
1631021170150,-0.0299072265625,0.05584716796875,0.99896240234375
1631021170150,-0.03533935546875,0.060302734375,0.99627685546875
1631021170197,-0.034423828125,0.0570068359375,1.0023193359375
1631021170197,-0.03143310546875,0.064697265625,0.994140625
1631021170197,-0.03448486328125,0.0616455078125,0.9981689453125
1631021170292,-0.03155517578125,0.06341552734375,0.99737548828125
1631021170308,-0.02838134765625,0.06304931640625,1.004150390625
1631021170308,-0.0294189453125,0.0615234375,0.997314453125
1631021170355,-0.0272216796875,0.06158447265625,1.0068359375
1631021170355,-0.0263671875,0.06085205078125,1.00323486328125
1631021170355,-0.02679443359375,0.06072998046875,1.0028076171875
1631021170417,-0.02789306640625,0.05804443359375,1.00189208984375
1631021170417,-0.03302001953125,0.0596923828125,0.99627685546875
1631021170417,-0.02923583984375,0.05987548828125,1.00091552734375
1631021170490,-0.035400390625,0.05633544921875,0.9940185546875
1631021170490,-0.03814697265625,0.05828857421875,0.99176025390625
1631021170491,-0.03533935546875,0.0567626953125,0.9903564453125
1631021170519,-0.02777099609375,0.059814453125,0.997802734375
1631021170519,-0.03277587890625,0.0595703125,0.99114990234375
1631021170519,-0.0323486328125,0.0615234375,0.99468994140625
1631021170598,-0.02618408203125,0.0596923828125,0.99676513671875
1631021170598,-0.0274658203125,0.05999755859375,1.00384521484375
1631021170598,-0.0283203125,0.0595703125,1.00384521484375
1631021170660,-0.02655029296875,0.06219482421875,1.00811767578125
1631021170660,-0.0264892578125,0.06341552734375,1.00311279296875
1631021170676,-0.02960205078125,0.06365966796875,1.0078125
1631021170676,-0.03277587890625,0.0653076171875,0.99969482421875
1631021170676,-0.0404052734375,0.06597900390625,0.99749755859375
1631021170769,-0.03533935546875,0.06298828125,0.9876708984375
1631021170769,-0.03778076171875,0.0584716796875,0.99652099609375
1631021170769,-0.04241943359375,0.05743408203125,0.996337890625
1631021170816,-0.03363037109375,0.061767578125,0.9951171875
1631021170816,-0.03369140625,0.06195068359375,0.999755859375
1631021170816,-0.0362548828125,0.06787109375,0.99822998046875
1631021170879,-0.03570556640625,0.06744384765625,0.99713134765625
1631021170879,-0.0382080078125,0.06427001953125,0.99664306640625
1631021170879,-0.0389404296875,0.06744384765625,0.9957275390625
1631021170957,-0.0399169921875,0.0594482421875,0.99957275390625
1631021170957,-0.04150390625,0.0634765625,0.995849609375
1631021170957,-0.03948974609375,0.05999755859375,0.99432373046875
1631021171020,-0.03765869140625,0.05950927734375,0.99761962890625
1631021171023,-0.03814697265625,0.0654296875,0.9993896484375
1631021171046,-0.0340576171875,0.0704345703125,0.9983
1631021171047,-0.03729248046875,0.07135009765625,0.99664306640625
1631021171097,-0.0360107421875,0.06982421875,0.9998779296875
1631021171098,-0.03607177734375,0.06793212890625,1.00152587890625
1631021171099,-0.03826904296875,0.06231689453125,0.9954833984375
1631021171186,-0.0391845703125,0.0638427734375,0.9942626953125
1631021171188,-0.03546142578125,0.0592041015625,0.9951171875
1631021171189,-0.04156494140625,0.060546875,0.99615478515625
1631021171245,-0.03924560546875,0.06121826171875,0.99200439453125
1631021171246,-0.039306640625,0.06298828125,0.99090576171875
1631021171246,-0.03936767578125,0.06298828125,0.991943359375
1631021171324,-0.03875732421875,0.0643310546875,0.990478515625
1631021171326,-0.0377197265625,0.06134033203125,0.992431640625
1631021171327,-0.033935546875,0.0631103515625,0.994140625
1631021171370,-0.03082275390625,0.0601806640625,0.99481201171875
1631021171371,-0.02978515625,0.0579833984375,1.003173828125
1631021171373,-0.03106689453125,0.05755615234375,1.00067138671875
1631021171460,-0.02838134765625,0.062255859375,1.0015869140625
1631021171461,-0.02459716796875,0.062744140625,1.00372314453125
1631021171461,-0.03070068359375,0.06317138671875,1.00738525390625
1631021171534,-0.022705078125,0.06640625,0.9991455078125
1631021171534,-0.0279541015625,0.05755615234375,1.00469970703125
1631021171534,-0.02734375,0.06561279296875,1.00543212890625
1631021171565,-0.02667236328125,0.05511474609375,1.00262451171875
1631021171565,-0.0299072265625,0.0574951171875,0.99346923828125
1631021171565,-0.0252685546875,0.05712890625,0.9996337890625
1631021171596,-0.0257568359375,0.05804443359375,0.99908447265625
1631021171596,-0.02496337890625,0.058349609375,0.992431640625
1631021171596,-0.024658203125,0.06341552734375,1.0013427734375
1631021171636,-0.02886962890625,0.06402587890625,0.99517822265625
1631021171636,-0.02325439453125,0.06768798828125,1.00103759765625
1631021171636,-0.02203369140625,0.06683349609375,1.0018310546875
1631021171714,-0.0205078125,0.05975341796875,0.99542236328125
1631021171714,-0.02410888671875,0.06036376953125,0.99322509765625
1631021171714,-0.02398681640625,0.063720703125,0.99896240234375
1631021171761,-0.02435302734375,0.0633544921875,0.998779296875
1631021171761,-0.0257568359375,0.05938720703125,1.00079345703125
1631021171761,-0.02386474609375,0.0548095703125,1.0030517578125
1631021171808,-0.02227783203125,0.06536865234375,0.99981689453125
1631021171808,-0.0213623046875,0.0657958984375,0.9986572265625
1631021171808,-0.02203369140625,0.0621337890625,1.00244140625
1631021171933,-0.0234375,0.06341552734375,1.0032958984375
1631021171934,-0.0205078125,0.05963134765625,1.00213623046875
1631021171934,-0.02545166015625,0.05712890625,1.00018310546875
1631021171948,-0.0228271484375,0.057861328125,0.99884033203125
1631021171950,-0.02252197265625,0.05633544921875,1.00030517578125
1631021171951,-0.023193359375,0.0560302734375,0.9981689453125
1631021172042,-0.025634765625,0.06268310546875,0.9940185546875
1631021172044,-0.02728271484375,0.064697265625,0.99530029296875
1631021172045,-0.0263671875,0.06268310546875,0.9947509765625
1631021172084,-0.0234375,0.05975341796875,0.99322509765625
1631021172085,-0.023681640625,0.06085205078125,0.99176025390625
1631021172087,-0.0250244140625,0.06182861328125,0.99591064453125
1631021172142,-0.02313232421875,0.0594482421875,0.999755859375
1631021172143,-0.02001953125,0.05963134765625,1.0003662109375
1631021172144,-0.0206298828125,0.0640869140625,1.00341796875
1631021172153,-0.02093505859375,0.06201171875,0.99981689453125
1631021172153,-0.0186767578125,0.0609130859375,1.00213623046875
1631021172153,-0.02203369140625,0.06146240234375,1.0018310546875
1631021172231,-0.01910400390625,0.0650634765625,0.99786376953125
1631021172231,-0.0181884765625,0.0606689453125,1.00665283203125
1631021172231,-0.02044677734375,0.06365966796875,1.00518798828125
1631021172299,-0.01849365234375,0.05462646484375,0.99993896484375
1631021172299,-0.02252197265625,0.0548095703125,1.00665283203125
1631021172299,-0.016845703125,0.06158447265625,0.99639892578125
1631021172379,-0.02069091796875,0.0693359375,0.99884033203125
1631021172381,-0.0167236328125,0.07196044921875,0.99969482421875
1631021172383,-0.02099609375,0.06982421875,1.000244140625
1631021172396,-0.01824951171875,0.07366943359375,0.9981689453125
1631021172397,-0.02056884765625,0.06982421875,0.995361328125
1631021172398,-0.022216796875,0.06402587890625,0.99237060546875
1631021172477,-0.02337646484375,0.06024169921875,0.98919677734375
1631021172478,-0.02325439453125,0.05364990234375,0.99090576171875
1631021172479,-0.0228271484375,0.0531005859375,0.99676513671875
1631021172566,-0.01690673828125,0.05816650390625,1.000244140625
1631021172566,-0.02117919921875,0.051513671875,0.99737548828125
1631021172660,-0.0194091796875,0.05865478515625,1.00616455078125
1631021172660,-0.014892578125,0.05914306640625,1.0030517578125
1631021172660,-0.01751708984375,0.05792236328125,1.00238037109375
1631021172676,-0.017333984375,0.05657958984375,0.9993896484375
1631021172676,-0.0191650390625,0.05804443359375,1.00079345703125
1631021172676,-0.018798828125,0.06103515625,1.0025634765625
1631021172723,-0.02130126953125,0.056396484375,1.00250244140625
1631021172723,-0.01922607421875,0.0560302734375,0.99884033203125
1631021172723,-0.02313232421875,0.0592041015625,0.99700927734375
1631021172754,-0.0240478515625,0.05804443359375,0.9949951171875
1631021172754,-0.0247802734375,0.06011962890625,0.99554443359375
1631021172754,-0.02276611328125,0.06195068359375,0.9932861328125
1631021172832,-0.02117919921875,0.05908203125,0.9927978515625
1631021172832,-0.02313232421875,0.06158447265625,0.99346923828125
1631021172832,-0.02294921875,0.05731201171875,0.99456787109375
1631021172897,-0.01910400390625,0.05670166015625,0.9942626953125
1631021172898,-0.02386474609375,0.06195068359375,0.99664306640625
1631021172899,-0.01995849609375,0.0614013671875,0.9993896484375
1631021172932,-0.01837158203125,0.05902099609375,1.00079345703125
1631021172933,-0.01611328125,0.0653076171875,1.001708984375
1631021172934,-0.01824951171875,0.0689697265625,1.00146484375
1631021173014,-0.0169677734375,0.06805419921875,0.99383544921875
1631021173015,-0.01702880859375,0.06829833984375,1.008544921875
1631021173016,-0.01861572265625,0.064697265625,0.99908447265625
1631021173049,-0.01800537109375,0.0582275390625,0.99847412109375
1631021173050,-0.01708984375,0.06878662109375,0.99365234375
1631021173050,-0.01629638671875,0.068115234375,0.99786376953125
1631021173131,-0.01715087890625,0.0692138671875,0.99981689453125
1631021173134,-0.0157470703125,0.06781005859375,1.00115966796875
1631021173137,-0.01788330078125,0.06829833984375,0.99945068359375
1631021173200,-0.0179443359375,0.06561279296875,0.99456787109375
1631021173200,-0.01904296875,0.06011962890625,0.993408203125
1631021173200,-0.01904296875,0.06048583984375,0.99432373046875
1631021173278,-0.01458740234375,0.0596923828125,0.99603271484375
1631021173278,-0.016845703125,0.06109619140625,1.00067138671875
1631021173279,-0.015380859375,0.05938720703125,1.001953125
1631021173298,-0.0142822265625,0.0577392578125,0.99664306640625
1631021173299,-0.01568603515625,0.06475830078125,0.9959716796875
1631021173300,-0.01495361328125,0.06268310546875,0.99224853515625
1631021173333,-0.01629638671875,0.0616455078125,0.999267578125
1631021173333,-0.01617431640625,0.06036376953125,0.99945068359375
1631021173334,-0.0118408203125,0.06707763671875,0.99835205078125
1631021173380,-0.01470947265625,0.0654296875,0.9912109375
1631021173380,-0.01239013671875,0.0634765625,1.0103759765625
1631021173380,-0.0106201171875,0.06378173828125,0.995361328125
1631021173481,-0.01416015625,0.0574951171875,1.0
1631021173481,-0.01678466796875,0.06439208984375,1.00262451171875
1631021173482,-0.01531982421875,0.06842041015625,1.00128173828125
1631021173550,-0.0169677734375,0.064453125,0.99151611328125
1631021173550,-0.01611328125,0.0706787109375,0.99407958984375
1631021173551,-0.01165771484375,0.064208984375,0.99468994140625
1631021173611,-0.01275634765625,0.06304931640625,0.99932861328125
1631021173611,-0.01104736328125,0.061767578125,1.005126953125
1631021173612,-0.00701904296875,0.05841064453125,1.0096435546875
1631021173645,-0.00640869140625,0.057373046875,1.01446533203125
1631021173646,-0.005615234375,0.05426025390625,0.99835205078125
1631021173646,-0.008544921875,0.05322265625,0.9954833984375
1631021173698,-0.00909423828125,0.04974365234375,0.99114990234375
1631021173699,-0.0103759765625,0.04644775390625,0.9849853515625
1631021173700,-0.01287841796875,0.0496826171875,0.9910888671875
1631021173779,-0.00958251953125,0.04736328125,0.9866943359375
1631021173783,-0.01202392578125,0.044921875,1.00970458984375
1631021173786,-0.00872802734375,0.04278564453125,1.0040283203125
1631021173838,-0.00787353515625,0.04364013671875,0.99786376953125
1631021173839,-0.00592041015625,0.04425048828125,0.9886474609375
1631021173839,-0.00299072265625,0.04730224609375,0.9853515625
1631021173870,-0.0015869140625,0.0474853515625,0.98663330078125
1631021173870,-0.00213623046875,0.04571533203125,0.9844970703125
1631021173871,-0.0001220703125,0.04730224609375,0.98724365234375
1631021173941,-0.00225830078125,0.0478515625,0.97772216796875
1631021173942,0.00146484375,0.040771484375,0.973388671875
1631021173943,0.00189208984375,0.03814697265625,0.96856689453125
1631021174061,0.00390625,0.0374755859375,0.97296142578125
1631021174065,0.0108642578125,0.03839111328125,0.974365234375
1631021174072,0.023193359375,0.04779052734375,0.9588623046875
1631021174084,0.0108642578125,0.01904296875,0.9620361328125
1631021174087,0.03656005859375,0.0452880859375,0.9315185546875
1631021174092,0.04644775390625,0.05810546875,0.954833984375
1631021174140,0.0572509765625,0.0665283203125,0.944580078125
1631021174141,0.09014892578125,0.05828857421875,1.0179443359375
1631021174141,0.0740966796875,0.0582275390625,1.00042724609375
1631021174201,0.1065673828125,0.0494384765625,1.03106689453125
1631021174202,0.1153564453125,0.0440673828125,1.02996826171875
1631021174203,0.127685546875,0.03955078125,1.03350830078125
1631021174247,0.13916015625,0.02850341796875,1.04248046875
1631021174251,0.15167236328125,0.02349853515625,1.05377197265625
1631021174254,0.1636962890625,0.0242919921875,1.03692626953125
1631021174296,0.1689453125,0.01690673828125,1.0101318359375
1631021174297,0.17431640625,0.01629638671875,0.99176025390625
1631021174298,0.1776123046875,0.0101318359375,0.99395751953125
1631021174341,0.18023681640625,0.00640869140625,1.00347900390625
1631021174342,0.1895751953125,0.00836181640625,1.01806640625
1631021174343,0.18768310546875,0.008056640625,1.01080322265625
1631021174415,0.19158935546875,0.01116943359375,0.99652099609375
1631021174416,0.19793701171875,0.01568603515625,1.009521484375
1631021174417,0.20184326171875,0.0205078125,0.9927978515625
1631021174497,0.198974609375,0.026611328125,0.9879150390625
1631021174499,0.19805908203125,0.0289306640625,0.97650146484375
1631021174501,0.198486328125,0.03387451171875,0.9676513671875
1631021174574,0.20025634765625,0.0335693359375,0.97174072265625
1631021174575,0.20098876953125,0.0296630859375,0.9764404296875
1631021174576,0.20166015625,0.02484130859375,0.98333740234375
1631021174597,0.20159912109375,0.01861572265625,0.99432373046875
1631021174597,0.20086669921875,0.01837158203125,0.99151611328125
1631021174598,0.2030029296875,0.017822265625,0.98846435546875
1631021174630,0.20318603515625,0.0196533203125,0.99346923828125
1631021174631,0.203369140625,0.02099609375,0.98797607421875
1631021174631,0.200927734375,0.0224609375,0.99383544921875
1631021174759,0.19891357421875,0.0255126953125,0.995849609375
1631021174760,0.20166015625,0.03656005859375,0.98480224609375
1631021174761,0.19854736328125,0.04071044921875,0.98016357421875
1631021174773,0.19744873046875,0.04193115234375,0.977294921875
1631021174773,0.19781494140625,0.04833984375,0.96484375
1631021174774,0.19451904296875,0.04986572265625,0.97607421875
1631021174808,0.192138671875,0.0479736328125,0.99041748046875
1631021174808,0.19696044921875,0.05035400390625,0.98895263671875
1631021174902,0.19439697265625,0.04541015625,0.96795654296875
1631021174902,0.19683837890625,0.0516357421875,0.97613525390625
1631021174902,0.201416015625,0.0489501953125,0.980712890625
1631021174918,0.2198486328125,0.03753662109375,0.99871826171875
1631021174980,0.235595703125,0.033447265625,1.0264892578125
1631021174980,0.2281494140625,0.03912353515625,1.01171875
1631021174980,0.2247314453125,0.0372314453125,1.00311279296875
1631021175074,0.2442626953125,0.02984619140625,0.960693359375
1631021175074,0.24517822265625,0.030029296875,0.99530029296875
1631021175074,0.2421875,0.03277587890625,1.01983642578125
1631021175136,0.24139404296875,0.0330810546875,0.95025634765625
1631021175152,0.23870849609375,0.0394287109375,0.96099853515625
1631021175152,0.2408447265625,0.05499267578125,0.97503662109375
1631021175178,0.23931884765625,0.08099365234375,0.97723388671875
1631021175178,0.24005126953125,0.0673828125,0.98162841796875
1631021175179,0.23773193359375,0.0899658203125,0.97137451171875
1631021175283,0.2313232421875,0.09771728515625,0.96087646484375
1631021175285,0.2332763671875,0.09912109375,0.96099853515625
1631021175286,0.234375,0.107421875,0.9671630859375
1631021175335,0.23492431640625,0.10980224609375,0.9769287109375
1631021175335,0.23944091796875,0.11798095703125,0.98504638671875
1631021175335,0.239501953125,0.1217041015625,0.98223876953125
1631021175335,0.2379150390625,0.1158447265625,0.9862060546875
1631021175335,0.2425537109375,0.1207275390625,0.97998046875
1631021175335,0.23785400390625,0.11614990234375,0.9697265625
1631021175429,0.2459716796875,0.1168212890625,0.98040771484375
1631021175429,0.243896484375,0.09771728515625,0.98773193359375
1631021175429,0.24859619140625,0.108154296875,0.9903564453125
1631021175476,0.2481689453125,0.0777587890625,0.96856689453125
1631021175476,0.24005126953125,0.07305908203125,0.978759765625
1631021175476,0.24700927734375,0.0933837890625,0.9779052734375
1631021175522,0.24176025390625,0.06878662109375,0.96868896484375
1631021175522,0.24163818359375,0.06646728515625,0.96337890625
1631021175585,0.23834228515625,0.0789794921875,0.97607421875
1631021175585,0.24151611328125,0.06842041015625,0.97320556640625
1631021175679,0.24273681640625,0.09210205078125,0.9832763671875
1631021175679,0.24169921875,0.0986328125,0.9840087890625
1631021175679,0.2374267578125,0.0860595703125,0.98394775390625
1631021175694,0.23797607421875,0.10443115234375,0.974609375
1631021175694,0.24261474609375,0.11492919921875,0.96978759765625
1631021175694,0.2386474609375,0.11212158203125,0.9630126953125
1631021175788,0.24835205078125,0.1070556640625,0.93896484375
1631021175788,0.23541259765625,0.11859130859375,0.97064208984375
1631021175788,0.23931884765625,0.1171875,0.96038818359375
1631021175850,0.24932861328125,0.10455322265625,0.95599365234375
1631021175866,0.25274658203125,0.09075927734375,0.9697265625
1631021175866,0.249755859375,0.09765625,0.96722412109375
1631021175897,0.2611083984375,0.07928466796875,0.98095703125
1631021175897,0.2510986328125,0.0887451171875,0.975341796875
1631021175897,0.2547607421875,0.08416748046875,0.982177734375
1631021175913,0.2579345703125,0.077392578125,0.9609375
1631021175913,0.25958251953125,0.079833984375,0.9794921875
1631021175913,0.2581787109375,0.0712890625,0.975341796875
1631021175975,0.25421142578125,0.0865478515625,0.9815673828125
1631021175975,0.2557373046875,0.0966796875,0.99835205078125
1631021175975,0.25653076171875,0.0804443359375,0.98443603515625
1631021176038,0.25347900390625,0.11669921875,0.972412109375
1631021176038,0.254638671875,0.10565185546875,0.976318359375
1631021176038,0.2515869140625,0.1220703125,0.96478271484375
1631021176100,0.25787353515625,0.127197265625,0.9649658203125
1631021176100,0.2567138671875,0.12353515625,0.9639892578125
1631021176100,0.2547607421875,0.123779296875,0.9671630859375
1631021176194,0.25701904296875,0.12493896484375,0.97552490234375
1631021176194,0.255859375,0.1304931640625,0.97686767578125
1631021176194,0.2529296875,0.13116455078125,0.97119140625
1631021176265,0.2567138671875,0.11981201171875,0.957275390625
1631021176266,0.25634765625,0.104248046875,0.95806884765625
1631021176266,0.25750732421875,0.112548828125,0.9608154296875
1631021176292,0.2574462890625,0.10028076171875,0.95635986328125
1631021176308,0.260498046875,0.0943603515625,0.95965576171875
1631021176308,0.26446533203125,0.093017578125,0.9798583984375
1631021176386,0.2613525390625,0.08892822265625,0.96875
1631021176386,0.26654052734375,0.08880615234375,0.9822998046875
1631021176386,0.26251220703125,0.0877685546875,0.977294921875
1631021176436,0.2513427734375,0.09783935546875,0.967041015625
1631021176436,0.25701904296875,0.09075927734375,0.9686279296875
1631021176436,0.2608642578125,0.09088134765625,0.97149658203125
1631021176483,0.25250244140625,0.11474609375,0.96429443359375
1631021176483,0.25799560546875,0.12506103515625,0.9671630859375
1631021176483,0.248779296875,0.1048583984375,0.96234130859375
1631021176514,0.25592041015625,0.13677978515625,0.9715576171875
1631021176514,0.25543212890625,0.1441650390625,0.97021484375
1631021176514,0.25396728515625,0.1351318359375,0.97454833984375
1631021176561,0.2548828125,0.14495849609375,0.968505859375
1631021176577,0.25750732421875,0.13946533203125,0.962646484375
1631021176577,0.2542724609375,0.1416015625,0.962890625
1631021176655,0.26055908203125,0.12939453125,0.9620361328125
1631021176655,0.25640869140625,0.13311767578125,0.9638671875
1631021176655,0.265380859375,0.123291015625,0.95989990234375
1631021176702,0.272705078125,0.10552978515625,0.96258544921875
1631021176702,0.2672119140625,0.1116943359375,0.96392822265625
1631021176702,0.274169921875,0.10186767578125,0.9649658203125
1631021176764,0.27581787109375,0.09088134765625,0.9691162109375
1631021176764,0.274658203125,0.09619140625,0.9671630859375
1631021176764,0.2806396484375,0.08984375,0.9615478515625
1631021176811,0.28363037109375,0.0927734375,0.9617919921875
1631021176811,0.278564453125,0.09808349609375,0.9788818359375
1631021176811,0.281494140625,0.09478759765625,0.97283935546875
1631021176858,0.2813720703125,0.1146240234375,0.96221923828125
1631021176858,0.28033447265625,0.12481689453125,0.96649169921875
1631021176858,0.2811279296875,0.10223388671875,0.97576904296875
1631021176952,0.27471923828125,0.13836669921875,0.97247314453125
1631021176952,0.2764892578125,0.1361083984375,0.9727783203125
1631021176952,0.2791748046875,0.13604736328125,0.9732666015625
1631021176999,0.27593994140625,0.1380615234375,0.96624755859375
1631021176999,0.27703857421875,0.1473388671875,0.96429443359375
1631021176999,0.2725830078125,0.13653564453125,0.95697021484375
1631021177030,0.27264404296875,0.13677978515625,0.962646484375
1631021177046,0.26971435546875,0.12933349609375,0.9593505859375
1631021177046,0.27191162109375,0.1314697265625,0.95697021484375
1631021177108,0.27093505859375,0.119873046875,0.9613037109375
1631021177108,0.26995849609375,0.11737060546875,0.95758056640625
1631021177108,0.2657470703125,0.1158447265625,0.96649169921875
1631021177186,0.2740478515625,0.11419677734375,0.9617919921875
1631021177186,0.27001953125,0.111572265625,0.95660400390625
1631021177186,0.27099609375,0.1156005859375,0.95391845703125
1631021177249,0.2764892578125,0.11883544921875,0.96728515625
1631021177249,0.27374267578125,0.12115478515625,0.96832275390625
1631021177249,0.27264404296875,0.11810302734375,0.95831298828125
1631021177272,0.2802734375,0.12371826171875,0.9678955078125
1631021177273,0.2794189453125,0.1312255859375,0.96630859375
1631021177274,0.27642822265625,0.14227294921875,0.96246337890625
1631021177393,0.27642822265625,0.1390380859375,0.9598388671875
1631021177393,0.2779541015625,0.13739013671875,0.958740234375
1631021177393,0.28424072265625,0.1458740234375,0.95782470703125
1631021177440,0.28009033203125,0.12640380859375,0.96026611328125
1631021177440,0.2784423828125,0.10797119140625,0.9638671875
1631021177486,0.28399658203125,0.10498046875,0.96356201171875
1631021177486,0.28240966796875,0.10272216796875,0.96771240234375
1631021177486,0.27984619140625,0.1005859375,0.96685791015625
1631021177518,0.28216552734375,0.118408203125,0.96392822265625
1631021177518,0.28173828125,0.1114501953125,0.96539306640625
1631021177518,0.28094482421875,0.10418701171875,0.96905517578125
1631021177627,0.27764892578125,0.1197509765625,0.96624755859375
1631021177627,0.27410888671875,0.11920166015625,0.9674072265625
1631021177627,0.27716064453125,0.11572265625,0.9674072265625
1631021177643,0.274169921875,0.1224365234375,0.96075439453125
1631021177643,0.27813720703125,0.118408203125,0.95904541015625
1631021177643,0.27777099609375,0.11737060546875,0.959716796875
1631021177689,0.27752685546875,0.128173828125,0.960693359375
1631021177689,0.2742919921875,0.12939453125,0.9610595703125
1631021177689,0.2742919921875,0.13006591796875,0.96148681640625
1631021177752,0.27325439453125,0.11492919921875,0.95611572265625
1631021177752,0.274658203125,0.12646484375,0.964599609375
1631021177752,0.2738037109375,0.12493896484375,0.96441650390625
1631021177830,0.27178955078125,0.11444091796875,0.9620361328125
1631021177846,0.2703857421875,0.1060791015625,0.96722412109375
1631021177846,0.27459716796875,0.11187744140625,0.96038818359375
1631021177908,0.2738037109375,0.10699462890625,0.961669921875
1631021177908,0.2708740234375,0.11798095703125,0.960205078125
1631021177908,0.27020263671875,0.11236572265625,0.9581298828125
1631021177971,0.2735595703125,0.123046875,0.96148681640625
1631021177971,0.27764892578125,0.12738037109375,0.9691162109375
1631021177971,0.2738037109375,0.1265869140625,0.9613037109375
1631021177986,0.2796630859375,0.1297607421875,0.96258544921875
1631021177986,0.28070068359375,0.1253662109375,0.9635009765625
1631021177986,0.280517578125,0.12823486328125,0.96685791015625
1631021178085,0.2784423828125,0.12530517578125,0.9666748046875
1631021178085,0.27569580078125,0.12371826171875,0.968994140625
1631021178085,0.27520751953125,0.1260986328125,0.96783447265625
1631021178117,0.27740478515625,0.12420654296875,0.96331787109375
1631021178117,0.27313232421875,0.1219482421875,0.96063232421875
1631021178117,0.27410888671875,0.12469482421875,0.96612548828125
1631021178194,0.27252197265625,0.11932373046875,0.9571533203125
1631021178194,0.27178955078125,0.11077880859375,0.953857421875
1631021178194,0.27276611328125,0.11297607421875,0.95648193359375
1631021178242,0.27398681640625,0.11138916015625,0.96539306640625
1631021178242,0.27386474609375,0.10931396484375,0.9603271484375
1631021178242,0.27154541015625,0.110595703125,0.95733642578125
1631021178273,0.27972412109375,0.1171875,0.97607421875
1631021178273,0.279052734375,0.12078857421875,0.9683837890625
1631021178273,0.27880859375,0.11407470703125,0.97039794921875
1631021178366,0.27581787109375,0.12359619140625,0.96588134765625
1631021178366,0.27008056640625,0.124267578125,0.97454833984375
1631021178366,0.27484130859375,0.1275634765625,0.9693603515625
1631021178382,0.2742919921875,0.12646484375,0.9566650390625
1631021178382,0.272216796875,0.1263427734375,0.9603271484375
1631021178382,0.270751953125,0.12286376953125,0.9581298828125
1631021178491,0.2685546875,0.1226806640625,0.95648193359375
1631021178491,0.2703857421875,0.11676025390625,0.95819091796875
1631021178491,0.2669677734375,0.122802734375,0.96185302734375
1631021178585,0.27264404296875,0.12567138671875,0.96051025390625
1631021178585,0.271484375,0.12640380859375,0.962646484375
1631021178585,0.26751708984375,0.1278076171875,0.959716796875
1631021178601,0.27093505859375,0.12493896484375,0.96417236328125
1631021178616,0.27215576171875,0.12066650390625,0.963134765625
1631021178616,0.27508544921875,0.12353515625,0.96368408203125
1631021178679,0.27459716796875,0.11846923828125,0.95782470703125
1631021178679,0.273193359375,0.114990234375,0.96240234375
1631021178695,0.2744140625,0.12030029296875,0.957763671875
1631021178726,0.27764892578125,0.12042236328125,0.9666748046875
1631021178726,0.27752685546875,0.13037109375,0.9696044921875
1631021178726,0.2733154296875,0.12652587890625,0.97052001953125
1631021178773,0.277099609375,0.12811279296875,0.96661376953125
1631021178773,0.2789306640625,0.12982177734375,0.96429443359375
1631021178773,0.2803955078125,0.1300048828125,0.966064453125
1631021178819,0.27508544921875,0.12213134765625,0.9669189453125
1631021178819,0.2784423828125,0.12213134765625,0.9610595703125
1631021178819,0.27642822265625,0.1192626953125,0.96484375
1631021178882,0.27178955078125,0.11602783203125,0.96795654296875
1631021178882,0.27520751953125,0.1182861328125,0.96368408203125
1631021178882,0.274658203125,0.1170654296875,0.9564208984375
1631021178944,0.274169921875,0.117919921875,0.95745849609375
1631021178944,0.27362060546875,0.1146240234375,0.95751953125
1631021178944,0.2760009765625,0.1187744140625,0.96026611328125
1631021179023,0.27740478515625,0.11663818359375,0.964599609375
1631021179023,0.27728271484375,0.11981201171875,0.962890625
1631021179023,0.2755126953125,0.11468505859375,0.960693359375
1631021179069,0.2744140625,0.11419677734375,0.964599609375
1631021179069,0.27557373046875,0.11767578125,0.96063232421875
1631021179069,0.2811279296875,0.1181640625,0.97271728515625
1631021179116,0.27764892578125,0.1209716796875,0.97125244140625
1631021179116,0.27459716796875,0.12237548828125,0.9676513671875
1631021179116,0.27532958984375,0.12725830078125,0.961181640625
1631021179210,0.2764892578125,0.1290283203125,0.962646484375
1631021179210,0.2708740234375,0.12213134765625,0.96197509765625
1631021179226,0.27239990234375,0.1180419921875,0.96356201171875
1631021179291,0.272705078125,0.12054443359375,0.95806884765625
1631021179291,0.27313232421875,0.12176513671875,0.954833984375
1631021179291,0.2740478515625,0.116455078125,0.958984375
1631021179307,0.2757568359375,0.1270751953125,0.958740234375
1631021179307,0.27435302734375,0.12554931640625,0.966552734375
1631021179307,0.27410888671875,0.12176513671875,0.9627685546875
1631021179385,0.2735595703125,0.123779296875,0.9595947265625
1631021179385,0.2713623046875,0.11944580078125,0.9613037109375
1631021179385,0.2740478515625,0.11773681640625,0.95867919921875
1631021179448,0.27545166015625,0.1141357421875,0.96697998046875
1631021179448,0.276123046875,0.11236572265625,0.96630859375
1631021179448,0.27618408203125,0.11688232421875,0.95806884765625
1631021179479,0.282470703125,0.12213134765625,0.95916748046875
1631021179479,0.27728271484375,0.11773681640625,0.95941162109375
1631021179479,0.279541015625,0.11517333984375,0.964599609375
1631021179541,0.28204345703125,0.12176513671875,0.96527099609375
1631021179541,0.2830810546875,0.12139892578125,0.964111328125
1631021179541,0.28375244140625,0.119873046875,0.96710205078125
1631021179588,0.28094482421875,0.11651611328125,0.96368408203125
1631021179588,0.283203125,0.119140625,0.9678955078125
1631021179588,0.281005859375,0.1177978515625,0.96466064453125
1631021179760,0.27777099609375,0.11663818359375,0.963134765625
1631021179760,0.2781982421875,0.1241455078125,0.9613037109375
1631021179760,0.27557373046875,0.12005615234375,0.96014404296875
1631021179776,0.2767333984375,0.1224365234375,0.95758056640625
1631021179776,0.27581787109375,0.1234130859375,0.9627685546875
1631021179776,0.27569580078125,0.12127685546875,0.9571533203125
1631021179805,0.27642822265625,0.1158447265625,0.96246337890625
1631021179805,0.27410888671875,0.11407470703125,0.958740234375
1631021179805,0.2750244140625,0.116943359375,0.96282958984375
1631021179851,0.27801513671875,0.11968994140625,0.96221923828125
1631021179851,0.27679443359375,0.11798095703125,0.96282958984375
1631021179851,0.281494140625,0.122802734375,0.96649169921875
1631021179898,0.28192138671875,0.12249755859375,0.96600341796875
1631021179898,0.28179931640625,0.1229248046875,0.96649169921875
1631021179961,0.2774658203125,0.121826171875,0.9639892578125
1631021179961,0.27655029296875,0.1201171875,0.9642333984375
1631021179961,0.27423095703125,0.12091064453125,0.964111328125
1631021180023,0.27874755859375,0.12005615234375,0.95953369140625
1631021180023,0.2723388671875,0.12786865234375,0.9661865234375
1631021180023,0.27606201171875,0.12384033203125,0.95849609375
1631021180070,0.27581787109375,0.11865234375,0.96392822265625
1631021180070,0.2767333984375,0.11468505859375,0.9560546875
1631021180070,0.27606201171875,0.12127685546875,0.96240234375
1631021180133,0.275146484375,0.1175537109375,0.962646484375
1631021180133,0.27777099609375,0.11968994140625,0.9647216796875
1631021180133,0.2745361328125,0.11572265625,0.96185302734375
1631021180242,0.2755126953125,0.12835693359375,0.96441650390625
1631021180242,0.274658203125,0.125244140625,0.9622802734375
1631021180242,0.27410888671875,0.1248779296875,0.95721435546875
1631021180271,0.27569580078125,0.11785888671875,0.96112060546875
1631021180272,0.2742919921875,0.11712646484375,0.956298828125
1631021180272,0.2744140625,0.11181640625,0.958740234375
1631021180292,0.27490234375,0.1143798828125,0.96484375
1631021180292,0.27716064453125,0.11767578125,0.95928955078125
1631021180417,0.2781982421875,0.12139892578125,0.959228515625
1631021180433,0.27935791015625,0.12158203125,0.958251953125
1631021180433,0.27685546875,0.1219482421875,0.96209716796875
1631021180448,0.27960205078125,0.11944580078125,0.9635009765625
1631021180448,0.2803955078125,0.11865234375,0.96380615234375
1631021180448,0.280029296875,0.12249755859375,0.9635009765625
1631021180495,0.280029296875,0.117431640625,0.96392822265625
1631021180495,0.281494140625,0.1229248046875,0.963623046875
1631021180495,0.28326416015625,0.12139892578125,0.96490478515625
1631021180542,0.28369140625,0.12811279296875,0.961669921875
1631021180542,0.28155517578125,0.12432861328125,0.96441650390625
1631021180542,0.2791748046875,0.12628173828125,0.962158203125
1631021180589,0.27801513671875,0.12298583984375,0.95977783203125
1631021180589,0.281005859375,0.12408447265625,0.96295166015625
1631021180667,0.28192138671875,0.118896484375,0.95806884765625
1631021180667,0.280029296875,0.11865234375,0.96307373046875
1631021180667,0.28265380859375,0.1187744140625,0.961669921875
1631021180698,0.28466796875,0.118896484375,0.95989990234375
1631021180698,0.28271484375,0.12322998046875,0.9591064453125
1631021180761,0.28277587890625,0.11822509765625,0.966552734375
1631021180761,0.28289794921875,0.1190185546875,0.967041015625
1631021180761,0.2843017578125,0.1229248046875,0.96435546875
1631021180886,0.27984619140625,0.1224365234375,0.96148681640625
1631021180886,0.28204345703125,0.1239013671875,0.96209716796875
1631021180886,0.27838134765625,0.120849609375,0.964599609375
1631021180901,0.276611328125,0.1180419921875,0.96551513671875
1631021180901,0.2783203125,0.11578369140625,0.956787109375
1631021180901,0.27838134765625,0.11737060546875,0.95623779296875
1631021180964,0.27960205078125,0.11944580078125,0.9635009765625
1631021180964,0.28076171875,0.11639404296875,0.95867919921875
1631021180964,0.28070068359375,0.120849609375,0.96685791015625
1631021181011,0.280517578125,0.12542724609375,0.96038818359375
1631021181026,0.28057861328125,0.12109375,0.958251953125
1631021181026,0.27996826171875,0.12774658203125,0.9608154296875
1631021181042,0.2764892578125,0.11932373046875,0.95404052734375
1631021181042,0.27728271484375,0.1197509765625,0.95819091796875
1631021181042,0.279296875,0.11993408203125,0.9617919921875
1631021181136,0.2818603515625,0.11602783203125,0.96435546875
1631021181136,0.27984619140625,0.1165771484375,0.966064453125
1631021181136,0.28265380859375,0.12017822265625,0.96185302734375
1631021181261,0.280029296875,0.12298583984375,0.9573974609375
1631021181262,0.283447265625,0.12103271484375,0.96112060546875
1631021181262,0.28460693359375,0.12591552734375,0.9638671875
1631021181279,0.2828369140625,0.1241455078125,0.9642333984375
1631021181279,0.28448486328125,0.12353515625,0.96539306640625
1631021181279,0.2872314453125,0.12420654296875,0.9659423828125
1631021181341,0.28741455078125,0.1263427734375,0.97100830078125
1631021181341,0.28948974609375,0.1285400390625,0.967529296875
1631021181341,0.2864990234375,0.12445068359375,0.969482421875
1631021181388,0.28033447265625,0.1171875,0.95513916015625
1631021181388,0.285888671875,0.12030029296875,0.96612548828125
1631021181388,0.28009033203125,0.12408447265625,0.96417236328125
1631021181451,0.2799072265625,0.12213134765625,0.95794677734375
1631021181451,0.27886962890625,0.1207275390625,0.95831298828125
1631021181451,0.27850341796875,0.1209716796875,0.96044921875
1631021181576,0.2734375,0.1192626953125,0.96026611328125
1631021181576,0.2691650390625,0.11785888671875,0.9578857421875
1631021181576,0.269287109375,0.1165771484375,0.96075439453125
1631021181576,0.2784423828125,0.11773681640625,0.9576416015625
1631021181576,0.2734375,0.11798095703125,0.95684814453125
1631021181576,0.27252197265625,0.11749267578125,0.9561767578125
1631021181607,0.2701416015625,0.1156005859375,0.9564208984375
1631021181607,0.27178955078125,0.11712646484375,0.95947265625
1631021181607,0.26971435546875,0.117431640625,0.95941162109375
1631021181654,0.26971435546875,0.11773681640625,0.9595947265625
1631021181654,0.2711181640625,0.12103271484375,0.95849609375
1631021181654,0.267578125,0.1190185546875,0.95123291015625
1631021181732,0.2694091796875,0.11956787109375,0.97015380859375
1631021181732,0.2669677734375,0.12078857421875,0.951171875
1631021181732,0.26629638671875,0.12249755859375,0.95660400390625
1631021181779,0.27972412109375,0.12054443359375,0.9688720703125
1631021181779,0.28338623046875,0.12469482421875,0.9639892578125
1631021181779,0.2802734375,0.11865234375,0.97918701171875
1631021181919,0.283447265625,0.12237548828125,0.95977783203125
1631021181919,0.28289794921875,0.12261962890625,0.9639892578125
1631021181919,0.28131103515625,0.12554931640625,0.96636962890625
1631021181950,0.2867431640625,0.126220703125,0.96185302734375
1631021181950,0.2838134765625,0.1260986328125,0.95977783203125
1631021181950,0.28326416015625,0.1297607421875,0.9638671875
1631021181997,0.28790283203125,0.11907958984375,0.9630126953125
1631021181997,0.2862548828125,0.121826171875,0.9581298828125
1631021181997,0.285888671875,0.11669921875,0.9609375
1631021182013,0.284423828125,0.1160888671875,0.96258544921875
1631021182013,0.28564453125,0.119140625,0.9600830078125
1631021182013,0.28515625,0.119140625,0.95697021484375
1631021182076,0.28985595703125,0.12176513671875,0.95562744140625
1631021182076,0.287841796875,0.1236572265625,0.95684814453125
1631021182076,0.28961181640625,0.12237548828125,0.96038818359375
1631021182138,0.29168701171875,0.1253662109375,0.96533203125
1631021182138,0.29193115234375,0.12298583984375,0.96307373046875
1631021182138,0.29339599609375,0.12176513671875,0.96624755859375
1631021182247,0.28594970703125,0.12591552734375,0.96612548828125
1631021182247,0.287353515625,0.1241455078125,0.96533203125
1631021182247,0.29022216796875,0.12255859375,0.9659423828125
1631021182277,0.28369140625,0.12335205078125,0.962890625
1631021182277,0.2840576171875,0.12701416015625,0.9591064453125
1631021182279,0.2821044921875,0.1243896484375,0.95452880859375
1631021182282,0.2803955078125,0.12078857421875,0.9600830078125
1631021182282,0.2796630859375,0.123046875,0.958740234375
1631021182282,0.2825927734375,0.12457275390625,0.958251953125
1631021182376,0.28265380859375,0.1214599609375,0.9598388671875
1631021182376,0.27752685546875,0.12188720703125,0.9705810546875
1631021182376,0.28143310546875,0.1217041015625,0.9656982421875
1631021182438,0.27862548828125,0.12103271484375,0.955322265625
1631021182438,0.281005859375,0.1195068359375,0.95245361328125
1631021182438,0.27899169921875,0.115966796875,0.95928955078125
1631021182470,0.27728271484375,0.11212158203125,0.95880126953125
1631021182470,0.2779541015625,0.11279296875,0.95806884765625
1631021182470,0.27996826171875,0.115234375,0.9599609375
1631021182548,0.27978515625,0.12371826171875,0.9609375
1631021182548,0.28070068359375,0.111572265625,0.96209716796875
1631021182548,0.28179931640625,0.11553955078125,0.962890625
1631021182610,0.2784423828125,0.12109375,0.96258544921875
1631021182610,0.280517578125,0.113525390625,0.9544677734375
1631021182610,0.278076171875,0.12249755859375,0.9559326171875
1631021182657,0.2840576171875,0.11639404296875,0.96142578125
1631021182657,0.2862548828125,0.11541748046875,0.962890625
1631021182657,0.28521728515625,0.1134033203125,0.95758056640625
1631021182704,0.288330078125,0.11614990234375,0.96405029296875
1631021182704,0.2886962890625,0.11224365234375,0.96307373046875
1631021182704,0.286376953125,0.119140625,0.96728515625
1631021182766,0.28729248046875,0.12188720703125,0.96148681640625
1631021182766,0.2884521484375,0.1226806640625,0.96173095703125
1631021182766,0.28375244140625,0.11651611328125,0.9613037109375
1631021182829,0.2857666015625,0.1192626953125,0.96246337890625
1631021182829,0.28497314453125,0.12017822265625,0.96142578125
1631021182829,0.28900146484375,0.1168212890625,0.956787109375
1631021182907,0.2891845703125,0.1248779296875,0.96356201171875
1631021182907,0.28643798828125,0.12493896484375,0.95849609375
1631021182907,0.284912109375,0.11627197265625,0.9688720703125
1631021182969,0.28533935546875,0.129638671875,0.9600830078125
1631021182969,0.2840576171875,0.12713623046875,0.96295166015625
1631021182969,0.28546142578125,0.12799072265625,0.96099853515625
1631021183047,0.2864990234375,0.12579345703125,0.96160888671875
1631021183047,0.28326416015625,0.1217041015625,0.96368408203125
1631021183047,0.283935546875,0.12353515625,0.9619140625
1631021183079,0.2822265625,0.11981201171875,0.966064453125
1631021183079,0.28350830078125,0.1212158203125,0.9630126953125
1631021183079,0.28179931640625,0.119873046875,0.96099853515625
1631021183110,0.279052734375,0.12237548828125,0.96112060546875
1631021183110,0.27569580078125,0.1175537109375,0.95562744140625
1631021183110,0.27642822265625,0.12005615234375,0.95733642578125
1631021183188,0.27459716796875,0.1142578125,0.9583740234375
1631021183188,0.27734375,0.11712646484375,0.95404052734375
1631021183188,0.27569580078125,0.11785888671875,0.95489501953125
1631021183251,0.28143310546875,0.11322021484375,0.96026611328125
1631021183251,0.282470703125,0.1158447265625,0.9635009765625
1631021183251,0.27655029296875,0.114501953125,0.95648193359375
1631021183314,0.28131103515625,0.11749267578125,0.9658203125
1631021183314,0.27789306640625,0.11932373046875,0.96771240234375
1631021183314,0.27825927734375,0.11663818359375,0.963134765625
1631021183346,0.2823486328125,0.11724853515625,0.9656982421875
1631021183346,0.28118896484375,0.11895751953125,0.96453857421875
1631021183346,0.2786865234375,0.11773681640625,0.95703125
1631021183424,0.2772216796875,0.1187744140625,0.95849609375
1631021183424,0.27606201171875,0.116943359375,0.960205078125
1631021183424,0.27630615234375,0.11651611328125,0.9552001953125
1631021183471,0.2799072265625,0.11444091796875,0.962646484375
1631021183471,0.2791748046875,0.11993408203125,0.9534912109375
1631021183471,0.27984619140625,0.118408203125,0.95440673828125
1631021183549,0.28594970703125,0.126708984375,0.96624755859375
1631021183549,0.28289794921875,0.123046875,0.96087646484375
1631021183549,0.283447265625,0.1199951171875,0.95709228515625
1631021183627,0.2850341796875,0.12786865234375,0.96258544921875
1631021183627,0.28411865234375,0.12677001953125,0.961669921875
1631021183627,0.284423828125,0.12127685546875,0.961669921875
1631021183658,0.2850341796875,0.11920166015625,0.96435546875
1631021183658,0.285400390625,0.12115478515625,0.96209716796875
1631021183658,0.2828369140625,0.1165771484375,0.96856689453125
1631021183705,0.28021240234375,0.12506103515625,0.9591064453125
1631021183705,0.28179931640625,0.1209716796875,0.963623046875
1631021183705,0.28228759765625,0.12152099609375,0.96868896484375
1631021183814,0.27862548828125,0.1236572265625,0.955322265625
1631021183814,0.27789306640625,0.12408447265625,0.95379638671875
1631021183814,0.2806396484375,0.12530517578125,0.9586181640625
1631021183830,0.2802734375,0.1256103515625,0.9605712890625
1631021183830,0.28204345703125,0.12310791015625,0.95965576171875
1631021183830,0.27911376953125,0.12548828125,0.9603271484375
1631021183908,0.2791748046875,0.12225341796875,0.9619140625
1631021183908,0.27996826171875,0.12213134765625,0.96380615234375
1631021183908,0.2796630859375,0.1199951171875,0.96026611328125
1631021183955,0.2811279296875,0.123046875,0.9595947265625
1631021183955,0.2801513671875,0.123046875,0.9581298828125
1631021184049,0.28167724609375,0.12078857421875,0.95904541015625
1631021184049,0.28375244140625,0.12298583984375,0.96026611328125
1631021184049,0.28179931640625,0.11962890625,0.9600830078125
1631021184064,0.28802490234375,0.117431640625,0.9569091796875
1631021184064,0.28582763671875,0.116455078125,0.9625244140625
1631021184064,0.28594970703125,0.11773681640625,0.96240234375
1631021184158,0.2838134765625,0.11920166015625,0.96185302734375
1631021184158,0.2864990234375,0.11907958984375,0.95953369140625
1631021184158,0.28692626953125,0.11236572265625,0.96002197265625
1631021184174,0.28082275390625,0.12115478515625,0.96026611328125
1631021184174,0.28912353515625,0.12823486328125,0.9644775390625
1631021184174,0.28271484375,0.12396240234375,0.961181640625
1631021184301,0.28216552734375,0.125,0.96405029296875
1631021184301,0.2822265625,0.12969970703125,0.955322265625
1631021184316,0.2830810546875,0.11822509765625,0.9637451171875
1631021184332,0.28399658203125,0.114501953125,0.96002197265625
1631021184332,0.2852783203125,0.1168212890625,0.95745849609375
1631021184332,0.2818603515625,0.11669921875,0.95648193359375
1631021184363,0.28289794921875,0.12603759765625,0.9581298828125
1631021184363,0.28094482421875,0.11602783203125,0.95904541015625
1631021184363,0.28021240234375,0.1180419921875,0.9613037109375
1631021184426,0.2843017578125,0.11737060546875,0.96368408203125
1631021184426,0.2877197265625,0.12286376953125,0.97100830078125
1631021184426,0.2857666015625,0.12786865234375,0.967529296875
1631021184488,0.2857666015625,0.11175537109375,0.9547119140625
1631021184488,0.28271484375,0.11883544921875,0.96197509765625
1631021184582,0.28350830078125,0.12139892578125,0.96368408203125
1631021184582,0.28900146484375,0.1236572265625,0.9561767578125
1631021184582,0.2843017578125,0.11712646484375,0.9632568359375
1631021184629,0.2900390625,0.12164306640625,0.96209716796875
1631021184629,0.2904052734375,0.12371826171875,0.9560546875
1631021184629,0.2901611328125,0.12225341796875,0.95782470703125
1631021184676,0.2921142578125,0.11822509765625,0.9654541015625
1631021184676,0.289306640625,0.12109375,0.96392822265625
1631021184676,0.29095458984375,0.12274169921875,0.96307373046875
1631021184769,0.287353515625,0.12188720703125,0.95892333984375
1631021184769,0.291015625,0.1197509765625,0.965576171875
1631021184769,0.28765869140625,0.1253662109375,0.962646484375
1631021184801,0.2874755859375,0.12469482421875,0.95513916015625
1631021184801,0.28936767578125,0.12762451171875,0.9537353515625
1631021184801,0.28778076171875,0.1295166015625,0.9580078125
1631021184816,0.2891845703125,0.12689208984375,0.95733642578125
1631021184832,0.2921142578125,0.1212158203125,0.96063232421875
1631021184832,0.2901611328125,0.12286376953125,0.95751953125
1631021184894,0.288330078125,0.11822509765625,0.9609375
1631021184894,0.287841796875,0.12030029296875,0.9644775390625
1631021184894,0.2890625,0.119140625,0.9620361328125
1631021184988,0.28582763671875,0.12091064453125,0.95965576171875
1631021184988,0.28839111328125,0.12139892578125,0.96063232421875
1631021184988,0.28509521484375,0.1241455078125,0.9622802734375
1631021185004,0.283203125,0.12750244140625,0.9625244140625
1631021185004,0.28375244140625,0.1246337890625,0.9613037109375
1631021185004,0.28338623046875,0.120849609375,0.95916748046875
1631021185160,0.2757568359375,0.1143798828125,0.95794677734375
1631021185160,0.2806396484375,0.115966796875,0.95233154296875
1631021185160,0.27984619140625,0.1231689453125,0.96051025390625
1631021185191,0.28131103515625,0.11846923828125,0.95989990234375
1631021185191,0.28082275390625,0.1181640625,0.952392578125
1631021185191,0.28106689453125,0.12078857421875,0.95953369140625
1631021185222,0.28656005859375,0.12725830078125,0.962158203125
1631021185222,0.2886962890625,0.1279296875,0.9605712890625
1631021185288,0.2872314453125,0.1195068359375,0.95654296875
1631021185288,0.2886962890625,0.1256103515625,0.95672607421875
1631021185288,0.2874755859375,0.1231689453125,0.95611572265625
1631021185319,0.28607177734375,0.12042236328125,0.96270751953125
1631021185319,0.2869873046875,0.1163330078125,0.96099853515625
1631021185350,0.28662109375,0.12359619140625,0.9564208984375
1631021185350,0.28814697265625,0.12109375,0.9598388671875
1631021185350,0.2861328125,0.1258544921875,0.96075439453125
1631021185428,0.28790283203125,0.122802734375,0.963134765625
1631021185428,0.28936767578125,0.12615966796875,0.960693359375
1631021185428,0.2901611328125,0.12408447265625,0.9595947265625
1631021185491,0.2889404296875,0.122802734375,0.96075439453125
1631021185491,0.2899169921875,0.124755859375,0.96240234375
1631021185491,0.288330078125,0.12469482421875,0.96221923828125
1631021185522,0.281494140625,0.12896728515625,0.961669921875
1631021185522,0.28704833984375,0.127685546875,0.9613037109375
1631021185538,0.28314208984375,0.12713623046875,0.96044921875
1631021185616,0.28216552734375,0.1260986328125,0.958740234375
1631021185616,0.28387451171875,0.12847900390625,0.957275390625
1631021185616,0.2833251953125,0.1209716796875,0.95806884765625
1631021185694,0.28338623046875,0.118408203125,0.95977783203125
1631021185694,0.28753662109375,0.11614990234375,0.95635986328125
1631021185694,0.2840576171875,0.11968994140625,0.95587158203125
1631021185725,0.28570556640625,0.12225341796875,0.95758056640625
1631021185725,0.28863525390625,0.11944580078125,0.959228515625
1631021185725,0.28466796875,0.11712646484375,0.9599609375
1631021185850,0.28564453125,0.12274169921875,0.9642333984375
1631021185866,0.28778076171875,0.12481689453125,0.9588623046875
1631021185866,0.2879638671875,0.11920166015625,0.95635986328125
1631021185897,0.28460693359375,0.1207275390625,0.95672607421875
1631021185897,0.28680419921875,0.12506103515625,0.953857421875
1631021185897,0.2850341796875,0.12054443359375,0.958251953125
1631021185897,0.2845458984375,0.1246337890625,0.96490478515625
1631021185913,0.28753662109375,0.1248779296875,0.95721435546875
1631021185913,0.28570556640625,0.12445068359375,0.9583740234375
1631021185991,0.28662109375,0.13134765625,0.96124267578125
1631021185991,0.29095458984375,0.12664794921875,0.96502685546875
1631021185991,0.289794921875,0.13043212890625,0.96002197265625
1631021186038,0.28460693359375,0.1187744140625,0.95733642578125
1631021186038,0.2872314453125,0.1279296875,0.95947265625
1631021186038,0.2860107421875,0.12237548828125,0.95770263671875
1631021186100,0.28411865234375,0.12091064453125,0.9610595703125
1631021186100,0.2867431640625,0.12078857421875,0.95849609375
1631021186100,0.28814697265625,0.12060546875,0.96490478515625
1631021186147,0.28704833984375,0.1231689453125,0.96063232421875
1631021186147,0.283935546875,0.12249755859375,0.957275390625
1631021186147,0.28790283203125,0.12457275390625,0.9581298828125
1631021186194,0.2879638671875,0.12249755859375,0.96044921875
1631021186194,0.28662109375,0.1224365234375,0.96002197265625
1631021186194,0.28582763671875,0.123779296875,0.96038818359375
1631021186274,0.29254150390625,0.124267578125,0.9625244140625
1631021186274,0.28607177734375,0.12664794921875,0.96136474609375
1631021186274,0.28680419921875,0.11981201171875,0.9608154296875
1631021186321,0.28753662109375,0.121337890625,0.9593505859375
1631021186321,0.2867431640625,0.1236572265625,0.961669921875
1631021186321,0.28961181640625,0.12548828125,0.960693359375
1631021186352,0.284423828125,0.1270751953125,0.955322265625
1631021186352,0.2845458984375,0.1265869140625,0.9559326171875
1631021186352,0.28607177734375,0.124755859375,0.955810546875
1631021186430,0.2852783203125,0.1214599609375,0.9588623046875
1631021186430,0.2857666015625,0.12432861328125,0.95556640625
1631021186430,0.28857421875,0.12115478515625,0.961669921875
1631021186493,0.2923583984375,0.123291015625,0.96173095703125
1631021186493,0.2962646484375,0.125,0.96087646484375
1631021186493,0.2911376953125,0.1201171875,0.9613037109375
1631021186571,0.2894287109375,0.1256103515625,0.9559326171875
1631021186571,0.290771484375,0.12799072265625,0.9622802734375
1631021186571,0.292724609375,0.12744140625,0.9609375
1631021186602,0.28729248046875,0.12518310546875,0.96124267578125
1631021186602,0.2889404296875,0.12860107421875,0.9642333984375
1631021186602,0.2877197265625,0.1279296875,0.9576416015625
1631021186649,0.28363037109375,0.1209716796875,0.95953369140625
1631021186649,0.2825927734375,0.1234130859375,0.95489501953125
1631021186649,0.28515625,0.1234130859375,0.95416259765625
1631021186727,0.28472900390625,0.13018798828125,0.96026611328125
1631021186727,0.2857666015625,0.1290283203125,0.9613037109375
1631021186727,0.28460693359375,0.1224365234375,0.9564208984375
1631021186790,0.2847900390625,0.12750244140625,0.957275390625
1631021186790,0.28729248046875,0.13104248046875,0.961669921875
1631021186790,0.2840576171875,0.13201904296875,0.95849609375
1631021186852,0.284423828125,0.1221923828125,0.95770263671875
1631021186852,0.2821044921875,0.1224365234375,0.960205078125
1631021186852,0.283935546875,0.124267578125,0.95672607421875
1631021186899,0.28619384765625,0.129150390625,0.956787109375
1631021186899,0.28582763671875,0.1241455078125,0.96014404296875
1631021186899,0.2850341796875,0.13128662109375,0.9539794921875
1631021186961,0.2908935546875,0.12652587890625,0.9620361328125
1631021186961,0.2879638671875,0.13006591796875,0.95855712890625
1631021186961,0.28985595703125,0.12982177734375,0.96319580078125
1631021187008,0.29351806640625,0.1214599609375,0.96575927734375
1631021187008,0.2886962890625,0.12469482421875,0.96307373046875
1631021187008,0.287841796875,0.1226806640625,0.962890625
1631021187102,0.28582763671875,0.12225341796875,0.95947265625
1631021187102,0.2843017578125,0.12664794921875,0.957275390625
1631021187102,0.288330078125,0.12384033203125,0.95745849609375
1631021187133,0.28515625,0.1278076171875,0.95904541015625
1631021187133,0.28759765625,0.1259765625,0.9534912109375
1631021187149,0.2869873046875,0.1236572265625,0.9544677734375
1631021187180,0.28680419921875,0.12237548828125,0.95550537109375
1631021187180,0.289306640625,0.1214599609375,0.95697021484375
1631021187180,0.29119873046875,0.11822509765625,0.9547119140625
1631021187243,0.29266357421875,0.12200927734375,0.9608154296875
1631021187243,0.2880859375,0.1195068359375,0.9588623046875
1631021187243,0.2890625,0.121337890625,0.9588623046875
1631021187292,0.28973388671875,0.125,0.962158203125
1631021187292,0.28955078125,0.126220703125,0.9656982421875
1631021187292,0.29010009765625,0.1290283203125,0.9647216796875
1631021187370,0.28521728515625,0.12774658203125,0.962158203125
1631021187370,0.28692626953125,0.12677001953125,0.96240234375
1631021187370,0.28472900390625,0.12249755859375,0.9554443359375
1631021187433,0.29010009765625,0.12042236328125,0.9525146484375
1631021187433,0.2861328125,0.12677001953125,0.9593505859375
1631021187433,0.28692626953125,0.12188720703125,0.9552001953125
1631021187557,0.2874755859375,0.12432861328125,0.96417236328125
1631021187557,0.287841796875,0.126953125,0.96246337890625
1631021187573,0.285400390625,0.130859375,0.95806884765625
1631021187573,0.28155517578125,0.1278076171875,0.95770263671875
1631021187573,0.28302001953125,0.12884521484375,0.9569091796875
1631021187589,0.28326416015625,0.1260986328125,0.953857421875
1631021187604,0.28533935546875,0.1229248046875,0.95489501953125
1631021187604,0.282958984375,0.1181640625,0.958984375
1631021187698,0.2855224609375,0.122802734375,0.958740234375
1631021187698,0.2850341796875,0.11907958984375,0.96234130859375
1631021187698,0.28814697265625,0.126220703125,0.9591064453125
1631021187729,0.28900146484375,0.12603759765625,0.959716796875
1631021187729,0.28759765625,0.12713623046875,0.961181640625
1631021187729,0.28759765625,0.1280517578125,0.96160888671875
1631021187776,0.29052734375,0.12347412109375,0.96478271484375
1631021187776,0.28729248046875,0.123779296875,0.96368408203125
1631021187776,0.28826904296875,0.12713623046875,0.96112060546875
1631021187885,0.28924560546875,0.12701416015625,0.96185302734375
1631021187885,0.284912109375,0.128662109375,0.95697021484375
1631021187885,0.288330078125,0.1260986328125,0.96044921875
1631021187932,0.2857666015625,0.1273193359375,0.9583740234375
1631021187932,0.28564453125,0.12744140625,0.952880859375
1631021187932,0.28778076171875,0.1285400390625,0.9544677734375
1631021187964,0.2884521484375,0.12298583984375,0.958740234375
1631021187964,0.287353515625,0.12481689453125,0.9530029296875
1631021187964,0.28790283203125,0.12359619140625,0.9593505859375
1631021188026,0.29193115234375,0.12103271484375,0.95819091796875
1631021188026,0.29144287109375,0.12359619140625,0.960205078125
1631021188026,0.29071044921875,0.123291015625,0.96044921875
1631021188104,0.29071044921875,0.13226318359375,0.96728515625
1631021188104,0.29132080078125,0.12774658203125,0.96368408203125
1631021188104,0.29205322265625,0.12701416015625,0.9578857421875
1631021188167,0.28997802734375,0.13055419921875,0.9613037109375
1631021188167,0.28814697265625,0.1322021484375,0.95794677734375
1631021188167,0.28692626953125,0.12322998046875,0.96142578125
1631021188229,0.291015625,0.12469482421875,0.95782470703125
1631021188229,0.2889404296875,0.12542724609375,0.95806884765625
1631021188229,0.28839111328125,0.1253662109375,0.95416259765625
1631021188274,0.28802490234375,0.13165283203125,0.95721435546875
1631021188274,0.28839111328125,0.12945556640625,0.96075439453125
1631021188274,0.2921142578125,0.12811279296875,0.9639892578125
1631021188294,0.28778076171875,0.12774658203125,0.9588623046875
1631021188294,0.28375244140625,0.12451171875,0.95538330078125
1631021188419,0.28350830078125,0.12274169921875,0.95361328125
1631021188419,0.28350830078125,0.1221923828125,0.95709228515625
1631021188419,0.28802490234375,0.12158203125,0.958984375
1631021188450,0.28582763671875,0.12872314453125,0.95770263671875
1631021188450,0.283935546875,0.12286376953125,0.96075439453125
1631021188450,0.28680419921875,0.13140869140625,0.9559326171875
1631021188481,0.29010009765625,0.1290283203125,0.95867919921875
1631021188481,0.29046630859375,0.1263427734375,0.9593505859375
1631021188481,0.28887939453125,0.12664794921875,0.954345703125
1631021188575,0.29302978515625,0.12884521484375,0.9642333984375
1631021188575,0.29327392578125,0.1287841796875,0.95947265625
1631021188575,0.29241943359375,0.12469482421875,0.959228515625
1631021188622,0.29180908203125,0.12652587890625,0.95172119140625
1631021188622,0.29339599609375,0.1246337890625,0.95770263671875
1631021188622,0.29241943359375,0.1253662109375,0.9561767578125
1631021188669,0.2919921875,0.12371826171875,0.955078125
1631021188669,0.28814697265625,0.12353515625,0.955322265625
1631021188669,0.29266357421875,0.12884521484375,0.95648193359375
1631021188763,0.2947998046875,0.12615966796875,0.9539794921875
1631021188763,0.29364013671875,0.12384033203125,0.95367431640625
1631021188763,0.29864501953125,0.13104248046875,0.9560546875
1631021188810,0.298583984375,0.13189697265625,0.96087646484375
1631021188810,0.30303955078125,0.12939453125,0.961181640625
1631021188810,0.30157470703125,0.1287841796875,0.96124267578125
1631021188841,0.29998779296875,0.12945556640625,0.961181640625
1631021188841,0.3017578125,0.13055419921875,0.96026611328125
1631021188841,0.2999267578125,0.135986328125,0.9556884765625
1631021188888,0.30023193359375,0.1356201171875,0.96502685546875
1631021188903,0.296875,0.13427734375,0.959716796875
1631021188903,0.2947998046875,0.13470458984375,0.96099853515625
1631021188950,0.2906494140625,0.1239013671875,0.95513916015625
1631021188950,0.2930908203125,0.12353515625,0.948486328125
1631021188950,0.29754638671875,0.125244140625,0.951416015625
1631021188997,0.29376220703125,0.1363525390625,0.955078125
1631021188997,0.29425048828125,0.12799072265625,0.95166015625
1631021188997,0.29376220703125,0.13409423828125,0.95404052734375
1631021189106,0.29046630859375,0.13861083984375,0.95513916015625
1631021189106,0.291015625,0.13006591796875,0.95294189453125
1631021189106,0.29364013671875,0.13787841796875,0.95745849609375
1631021189122,0.2923583984375,0.12469482421875,0.95159912109375
1631021189122,0.29345703125,0.12164306640625,0.959228515625
1631021189122,0.2886962890625,0.12237548828125,0.95452880859375
1631021189185,0.2930908203125,0.12335205078125,0.96441650390625
1631021189185,0.291259765625,0.12420654296875,0.96124267578125
1631021189185,0.2916259765625,0.13311767578125,0.95526123046875
1631021189247,0.29193115234375,0.12640380859375,0.95928955078125
1631021189247,0.2908935546875,0.12841796875,0.9542236328125
1631021189247,0.29034423828125,0.132568359375,0.95672607421875
1631021189297,0.29095458984375,0.126708984375,0.95904541015625
1631021189297,0.28912353515625,0.12457275390625,0.955078125
1631021189297,0.2947998046875,0.126220703125,0.95831298828125
1631021189375,0.29547119140625,0.12896728515625,0.960205078125
1631021189375,0.294189453125,0.13165283203125,0.96209716796875
1631021189375,0.295654296875,0.13189697265625,0.96112060546875
1631021189438,0.294677734375,0.13397216796875,0.95501708984375
1631021189438,0.2998046875,0.1336669921875,0.95965576171875
1631021189438,0.2947998046875,0.1329345703125,0.95550537109375
1631021189501,0.2926025390625,0.1343994140625,0.95263671875
1631021189501,0.296142578125,0.133544921875,0.95526123046875
1631021189501,0.29205322265625,0.12860107421875,0.95599365234375
1631021189532,0.2921142578125,0.12689208984375,0.953369140625
1631021189532,0.2938232421875,0.12445068359375,0.95538330078125
1631021189532,0.29327392578125,0.12310791015625,0.9537353515625
1631021189594,0.29644775390625,0.1224365234375,0.96063232421875
1631021189594,0.2940673828125,0.12652587890625,0.95947265625
1631021189594,0.2943115234375,0.1240234375,0.95672607421875
1631021189688,0.2911376953125,0.12811279296875,0.96484375
1631021189688,0.29571533203125,0.125,0.95867919921875
1631021189688,0.294921875,0.12384033203125,0.962890625
1631021189735,0.29388427734375,0.12542724609375,0.95867919921875
1631021189735,0.288330078125,0.12420654296875,0.96124267578125
1631021189735,0.29083251953125,0.117919921875,0.9605712890625
1631021189782,0.29193115234375,0.123779296875,0.96038818359375
1631021189782,0.29156494140625,0.12353515625,0.95184326171875
1631021189782,0.291259765625,0.121826171875,0.95196533203125
1631021189844,0.29083251953125,0.12646484375,0.9598388671875
1631021189844,0.2894287109375,0.13104248046875,0.96240234375
1631021189844,0.2933349609375,0.136962890625,0.95867919921875
1631021189891,0.29058837890625,0.12823486328125,0.9521484375
1631021189891,0.29290771484375,0.131591796875,0.9554443359375
1631021189891,0.2899169921875,0.12603759765625,0.95172119140625
1631021189969,0.28961181640625,0.11737060546875,0.9541015625
1631021189969,0.29107666015625,0.123779296875,0.962158203125
1631021189969,0.2928466796875,0.12103271484375,0.96258544921875
1631021190016,0.29534912109375,0.12884521484375,0.955810546875
1631021190016,0.29473876953125,0.1275634765625,0.956298828125
1631021190016,0.29315185546875,0.126953125,0.9599609375
1631021190078,0.29705810546875,0.13067626953125,0.96026611328125
1631021190078,0.2984619140625,0.13336181640625,0.96087646484375
1631021190078,0.2967529296875,0.12738037109375,0.9564208984375
1631021190141,0.2926025390625,0.12750244140625,0.95880126953125
1631021190141,0.29779052734375,0.129150390625,0.95758056640625
1631021190141,0.29815673828125,0.12762451171875,0.96026611328125
1631021190203,0.29547119140625,0.1290283203125,0.952392578125
1631021190203,0.29876708984375,0.12774658203125,0.95928955078125
1631021190203,0.294677734375,0.13055419921875,0.95672607421875
1631021190273,0.29559326171875,0.130615234375,0.95806884765625
1631021190275,0.28900146484375,0.13104248046875,0.9586181640625
1631021190276,0.2911376953125,0.12933349609375,0.95361328125
1631021190316,0.291748046875,0.125,0.9586181640625
1631021190316,0.29205322265625,0.12554931640625,0.95318603515625
1631021190316,0.2939453125,0.1241455078125,0.9554443359375
1631021190363,0.29193115234375,0.126953125,0.958251953125
1631021190363,0.291748046875,0.12451171875,0.9578857421875
1631021190379,0.2930908203125,0.12591552734375,0.9569091796875
1631021190457,0.292236328125,0.12847900390625,0.9593505859375
1631021190457,0.29071044921875,0.1300048828125,0.9591064453125
1631021190519,0.28680419921875,0.12701416015625,0.95831298828125
1631021190519,0.28680419921875,0.134033203125,0.9578857421875
1631021190519,0.28717041015625,0.13226318359375,0.95068359375
1631021190566,0.29376220703125,0.1246337890625,0.9537353515625
1631021190566,0.29071044921875,0.127197265625,0.9530029296875
1631021190566,0.28631591796875,0.12274169921875,0.95294189453125
1631021190597,0.2939453125,0.12841796875,0.96038818359375
1631021190597,0.291259765625,0.13336181640625,0.9620361328125
1631021190597,0.29827880859375,0.1324462890625,0.96124267578125
1631021190660,0.29522705078125,0.135986328125,0.95892333984375
1631021190660,0.2952880859375,0.13323974609375,0.95562744140625
1631021190675,0.29632568359375,0.1322021484375,0.95794677734375
1631021190738,0.29449462890625,0.1278076171875,0.9544677734375
1631021190738,0.29888916015625,0.12518310546875,0.953125
1631021190738,0.2933349609375,0.1241455078125,0.95501708984375
1631021190785,0.29376220703125,0.12493896484375,0.95587158203125
1631021190785,0.29559326171875,0.1220703125,0.9578857421875
1631021190785,0.2938232421875,0.1270751953125,0.95770263671875
1631021190847,0.2972412109375,0.12872314453125,0.95159912109375
1631021190863,0.298095703125,0.12908935546875,0.95538330078125
1631021190863,0.292724609375,0.12579345703125,0.94879150390625
1631021190925,0.3017578125,0.12677001953125,0.9638671875
1631021190925,0.298583984375,0.127685546875,0.95977783203125
1631021190925,0.29827880859375,0.12615966796875,0.9598388671875
1631021190972,0.29693603515625,0.1234130859375,0.95489501953125
1631021190972,0.2965087890625,0.12359619140625,0.96063232421875
1631021190972,0.2979736328125,0.1263427734375,0.95953369140625
1631021191050,0.2955322265625,0.13037109375,0.95489501953125
1631021191050,0.29217529296875,0.1259765625,0.95477294921875
1631021191050,0.2979736328125,0.12799072265625,0.95391845703125
1631021191082,0.294921875,0.12884521484375,0.95379638671875
1631021191082,0.29327392578125,0.12933349609375,0.9527587890625
1631021191082,0.29473876953125,0.1248779296875,0.95306396484375
1631021191113,0.2969970703125,0.1224365234375,0.95947265625
1631021191113,0.29486083984375,0.124267578125,0.95648193359375
1631021191113,0.29937744140625,0.12249755859375,0.95782470703125
1631021191207,0.29998779296875,0.1229248046875,0.95703125
1631021191207,0.30279541015625,0.11907958984375,0.9527587890625
1631021191207,0.30157470703125,0.12811279296875,0.95562744140625
1631021191300,0.3017578125,0.13421630859375,0.9576416015625
1631021191300,0.30029296875,0.12884521484375,0.96014404296875
1631021191300,0.30389404296875,0.12664794921875,0.95458984375
1631021191300,0.2989501953125,0.1285400390625,0.9583740234375
1631021191300,0.30255126953125,0.13153076171875,0.954345703125
1631021191316,0.30340576171875,0.12298583984375,0.96331787109375
1631021191441,0.30810546875,0.1298828125,0.95758056640625
1631021191441,0.3037109375,0.12615966796875,0.95654296875
1631021191441,0.3050537109375,0.1241455078125,0.95361328125
1631021191472,0.3017578125,0.13397216796875,0.95709228515625
1631021191472,0.30401611328125,0.134033203125,0.96148681640625
1631021191472,0.3065185546875,0.130859375,0.9615478515625
1631021191503,0.29901123046875,0.1298828125,0.95654296875
1631021191503,0.297607421875,0.124755859375,0.95330810546875
1631021191503,0.3016357421875,0.13079833984375,0.95684814453125
1631021191597,0.291748046875,0.1256103515625,0.95697021484375
1631021191597,0.29449462890625,0.119873046875,0.9544677734375
1631021191597,0.292724609375,0.1224365234375,0.95513916015625
1631021191613,0.29449462890625,0.13116455078125,0.95391845703125
1631021191613,0.29364013671875,0.12841796875,0.957763671875
1631021191613,0.29156494140625,0.1236572265625,0.9599609375
1631021191660,0.29510498046875,0.1278076171875,0.95629882812
1631021191660,0.295166015625,0.12841796875,0.95751953125
1631021191753,0.29296875,0.12640380859375,0.95855712890625
1631021191753,0.29193115234375,0.124755859375,0.956787109375
1631021191753,0.2952880859375,0.12469482421875,0.95703125
1631021191816,0.2940673828125,0.12823486328125,0.95794677734375
1631021191816,0.295654296875,0.1282958984375,0.958984375
1631021191816,0.297119140625,0.12982177734375,0.95867919921875
1631021191847,0.29718017578125,0.12933349609375,0.95281982421875
1631021191847,0.2939453125,0.126708984375,0.9501953125
1631021191847,0.294677734375,0.1279296875,0.9534912109375
1631021191925,0.295166015625,0.12451171875,0.95513916015625
1631021191925,0.2962646484375,0.12652587890625,0.95343017578125
1631021191925,0.30133056640625,0.12554931640625,0.9561767578125
1631021191972,0.3021240234375,0.1282958984375,0.95904541015625
1631021191972,0.30047607421875,0.1275634765625,0.95904541015625
1631021191972,0.299072265625,0.12750244140625,0.95574951171875
1631021192050,0.30242919921875,0.12860107421875,0.958251953125
1631021192050,0.2998046875,0.130126953125,0.96124267578125
1631021192050,0.30133056640625,0.126953125,0.95745849609375
1631021192081,0.2974853515625,0.132568359375,0.9595947265625
1631021192128,0.2958984375,0.12469482421875,0.9537353515625
1631021192128,0.2947998046875,0.13299560546875,0.95257568359375
1631021192128,0.29248046875,0.1278076171875,0.95367431640625
1631021192175,0.29296875,0.126953125,0.95977783203125
1631021192175,0.2965087890625,0.12744140625,0.95556640625
1631021192302,0.29180908203125,0.13165283203125,0.95172119140625
1631021192302,0.2935791015625,0.133056640625,0.95550537109375
1631021192302,0.28924560546875,0.12298583984375,0.95098876953125
1631021192302,0.29766845703125,0.12835693359375,0.9599609375
1631021192302,0.29547119140625,0.1331787109375,0.9532470703125
1631021192302,0.2899169921875,0.1248779296875,0.9539794921875
1631021192412,0.29376220703125,0.12261962890625,0.95196533203125
1631021192412,0.29193115234375,0.12335205078125,0.9578857421875
1631021192412,0.2933349609375,0.12420654296875,0.9588623046875
1631021192443,0.29443359375,0.124267578125,0.9625244140625
1631021192443,0.29510498046875,0.1334228515625,0.9510498046875
1631021192443,0.29400634765625,0.13262939453125,0.954345703125
1631021192475,0.297607421875,0.12811279296875,0.95416259765625
1631021192475,0.293701171875,0.12725830078125,0.95245361328125
1631021192490,0.29473876953125,0.128173828125,0.96002197265625
1631021192568,0.29913330078125,0.13128662109375,0.95660400390625
1631021192568,0.29864501953125,0.13153076171875,0.95855712890625
1631021192568,0.2950439453125,0.12994384765625,0.96185302734375
1631021192615,0.3013916015625,0.129638671875,0.9554443359375
1631021192615,0.2987060546875,0.131103515625,0.957763671875
1631021192615,0.2977294921875,0.12994384765625,0.95428466796875
1631021192662,0.30035400390625,0.129638671875,0.95123291015625
1631021192662,0.30169677734375,0.13140869140625,0.9552001953125
1631021192662,0.30218505859375,0.1331787109375,0.95623779296875
1631021192740,0.30322265625,0.13037109375,0.9547119140625
1631021192740,0.3028564453125,0.1260986328125,0.95904541015625
1631021192740,0.3023681640625,0.12823486328125,0.9542236328125
1631021192802,0.30517578125,0.1253662109375,0.95806884765625
1631021192802,0.303955078125,0.12457275390625,0.955322265625
1631021192802,0.304931640625,0.12713623046875,0.95416259765625
1631021192849,0.3033447265625,0.129150390625,0.9537353515625
1631021192849,0.30120849609375,0.1312255859375,0.9576416015625
1631021192849,0.3043212890625,0.12506103515625,0.949462890625
1631021192912,0.30218505859375,0.13018798828125,0.95465087890625
1631021192912,0.301025390625,0.13311767578125,0.9566650390625
1631021192912,0.3033447265625,0.13232421875,0.95306396484375
1631021193037,0.30035400390625,0.13238525390625,0.95745849609375
1631021193037,0.302490234375,0.13421630859375,0.95245361328125
1631021193037,0.3018798828125,0.12445068359375,0.96099853515625
1631021193037,0.30340576171875,0.12615966796875,0.95556640625
1631021193037,0.30450439453125,0.125732421875,0.9510498046875
1631021193052,0.30670166015625,0.1273193359375,0.951904296875
1631021193099,0.30413818359375,0.13446044921875,0.95941162109375
1631021193099,0.30548095703125,0.1324462890625,0.9569091796875
1631021193099,0.30291748046875,0.13348388671875,0.95941162109375
1631021193162,0.3009033203125,0.13385009765625,0.955078125
1631021193162,0.2999267578125,0.12481689453125,0.95318603515625
1631021193162,0.3006591796875,0.1297607421875,0.95001220703125
1631021193193,0.30267333984375,0.12335205078125,0.9490966796875
1631021193193,0.29925537109375,0.1248779296875,0.9554443359375
1631021193193,0.30157470703125,0.12261962890625,0.95068359375
1631021193273,0.29931640625,0.13134765625,0.95318603515625
1631021193273,0.2994384765625,0.125244140625,0.95489501953125
1631021193273,0.29925537109375,0.13104248046875,0.9495849609375
1631021193305,0.3013916015625,0.13092041015625,0.95123291015625
1631021193305,0.302978515625,0.1322021484375,0.95379638671875
1631021193305,0.30450439453125,0.1331787109375,0.95880126953125
1631021193367,0.3074951171875,0.12823486328125,0.9600830078125
1631021193367,0.3052978515625,0.1292724609375,0.96173095703125
1631021193367,0.306884765625,0.1295166015625,0.95751953125
1631021193445,0.30328369140625,0.12896728515625,0.95831298828125
1631021193445,0.3045654296875,0.13165283203125,0.9571533203125
1631021193445,0.3033447265625,0.13037109375,0.952392578125
1631021193508,0.2994384765625,0.13323974609375,0.95166015625
1631021193508,0.29888916015625,0.13299560546875,0.95184326171875
1631021193508,0.302734375,0.13006591796875,0.953125
1631021193570,0.30426025390625,0.132568359375,0.94696044921875
1631021193586,0.30279541015625,0.12750244140625,0.9500732421875
1631021193586,0.30096435546875,0.12847900390625,0.95361328125
1631021193664,0.30487060546875,0.1282958984375,0.953125
1631021193664,0.3095703125,0.12969970703125,0.95526123046875
1631021193664,0.30889892578125,0.123779296875,0.9534912109375
1631021193695,0.3067626953125,0.132080078125,0.95928955078125
1631021193711,0.3101806640625,0.1331787109375,0.95892333984375
1631021193711,0.3104248046875,0.131591796875,0.95550537109375
1631021193726,0.3056640625,0.1287841796875,0.9591064453125
1631021193726,0.30584716796875,0.1290283203125,0.95428466796875
1631021193726,0.30767822265625,0.12939453125,0.958740234375
1631021193789,0.29779052734375,0.13623046875,0.95343017578125
1631021193789,0.2996826171875,0.13250732421875,0.955322265625
1631021193789,0.301513671875,0.13165283203125,0.95623779296875
1631021193867,0.29840087890625,0.125732421875,0.9544677734375
1631021193867,0.301025390625,0.125732421875,0.94744873046875
1631021193867,0.299072265625,0.1282958984375,0.948974609375
1631021193961,0.30352783203125,0.13031005859375,0.953369140625
1631021193961,0.30377197265625,0.13360595703125,0.956787109375
1631021193961,0.30096435546875,0.128662109375,0.95220947265625
1631021193976,0.30035400390625,0.13201904296875,0.95452880859375
1631021193976,0.30169677734375,0.13702392578125,0.95404052734375
1631021193976,0.303955078125,0.138427734375,0.9588623046875
1631021194054,0.30291748046875,0.12322998046875,0.95294189453125
1631021194054,0.30120849609375,0.12725830078125,0.9515380859375
1631021194054,0.3004150390625,0.12298583984375,0.95440673828125
1631021194164,0.30145263671875,0.123779296875,0.956787109375
1631021194164,0.30230712890625,0.123291015625,0.96087646484375
1631021194164,0.29949951171875,0.128173828125,0.95361328125
1631021194179,0.30120849609375,0.12841796875,0.95501708984375
1631021194179,0.301513671875,0.13031005859375,0.95452880859375
1631021194179,0.30035400390625,0.12982177734375,0.9508056640625
1631021194211,0.3033447265625,0.1268310546875,0.9549560546875
1631021194211,0.30352783203125,0.1298828125,0.955078125
1631021194211,0.30322265625,0.13275146484375,0.95294189453125
1631021194277,0.3050537109375,0.13037109375,0.9544677734375
1631021194277,0.30517578125,0.1314697265625,0.95672607421875
1631021194277,0.302490234375,0.135009765625,0.95709228515625
1631021194308,0.30389404296875,0.13446044921875,0.9522705078125
1631021194308,0.299560546875,0.130126953125,0.95013427734375
1631021194308,0.3037109375,0.134765625,0.950439453125
1631021194371,0.300537109375,0.129638671875,0.95184326171875
1631021194371,0.3016357421875,0.129150390625,0.95245361328125
1631021194386,0.30230712890625,0.12713623046875,0.95172119140625
1631021194433,0.30303955078125,0.12957763671875,0.957275390625
1631021194433,0.3050537109375,0.12640380859375,0.95452880859375
1631021194433,0.302490234375,0.1270751953125,0.9542236328125
1631021194527,0.3077392578125,0.132080078125,0.95849609375
1631021194527,0.30853271484375,0.1298828125,0.95416259765625
1631021194527,0.305419921875,0.13153076171875,0.95526123046875
1631021194605,0.30792236328125,0.13214111328125,0.9566650390625
1631021194605,0.3011474609375,0.1341552734375,0.9625244140625
1631021194605,0.3060302734375,0.1309814453125,0.9549560546875
1631021194683,0.30218505859375,0.13525390625,0.957763671875
1631021194683,0.30615234375,0.135498046875,0.95526123046875
1631021194699,0.299072265625,0.1337890625,0.954833984375
1631021194714,0.29754638671875,0.12567138671875,0.9482421875
1631021194714,0.298828125,0.1302490234375,0.95220947265625
1631021194714,0.30206298828125,0.12799072265625,0.94805908203125
1631021194746,0.29656982421875,0.12884521484375,0.949462890625
1631021194746,0.29986572265625,0.13311767578125,0.9581298828125
1631021194746,0.30291748046875,0.1312255859375,0.9534912109375
1631021194793,0.2989501953125,0.135986328125,0.95440673828125
1631021194793,0.2977294921875,0.131591796875,0.9541015625
1631021194793,0.30181884765625,0.13330078125,0.9498291015625
1631021194839,0.29931640625,0.12652587890625,0.9525146484375
1631021194839,0.30084228515625,0.12750244140625,0.95660400390625
1631021194839,0.296142578125,0.1258544921875,0.9508056640625
1631021194902,0.29864501953125,0.12799072265625,0.95928955078125
1631021194902,0.30224609375,0.13250732421875,0.9559326171875
1631021194902,0.3017578125,0.1282958984375,0.95770263671875
1631021194964,0.30133056640625,0.13031005859375,0.9495849609375
1631021194964,0.30316162109375,0.13055419921875,0.9522705078125
1631021194964,0.3001708984375,0.1319580078125,0.95294189453125
1631021195042,0.30206298828125,0.1331787109375,0.95330810546875
1631021195042,0.2991943359375,0.12872314453125,0.9541015625
1631021195042,0.30133056640625,0.13287353515625,0.95599365234375
1631021195089,0.30364990234375,0.1326904296875,0.9560546875
1631021195089,0.30535888671875,0.133544921875,0.95819091796875
1631021195089,0.303466796875,0.13385009765625,0.9559326171875
1631021195136,0.30633544921875,0.129150390625,0.95294189453125
1631021195152,0.30181884765625,0.130859375,0.95294189453125
1631021195152,0.3011474609375,0.1334228515625,0.9505615234375
1631021195214,0.30377197265625,0.13275146484375,0.95062255859375
1631021195230,0.30029296875,0.13348388671875,0.951171875
1631021195230,0.30548095703125,0.132080078125,0.95416259765625
1631021195295,0.30963134765625,0.13238525390625,0.9544677734375
1631021195295,0.30987548828125,0.12872314453125,0.952880859375
1631021195295,0.30859375,0.13067626953125,0.9556884765625
1631021195342,0.3060302734375,0.1357421875,0.9534912109375
1631021195342,0.3056640625,0.13189697265625,0.9556884765625
1631021195342,0.30712890625,0.13055419921875,0.95489501953125
1631021195373,0.30621337890625,0.1351318359375,0.951416015625
1631021195373,0.30718994140625,0.131591796875,0.96038818359375
1631021195467,0.30841064453125,0.13763427734375,0.955078125
1631021195467,0.30413818359375,0.13323974609375,0.95086669921875
1631021195467,0.30389404296875,0.13470458984375,0.95587158203125
1631021195519,0.30548095703125,0.13031005859375,0.94818115234375
1631021195519,0.3028564453125,0.13079833984375,0.95440673828125
1631021195519,0.3062744140625,0.13409423828125,0.95489501953125
1631021195565,0.30670166015625,0.13336181640625,0.95526123046875
1631021195565,0.307373046875,0.12725830078125,0.9517822265625
1631021195565,0.3072509765625,0.1287841796875,0.9505615234375
1631021195612,0.30377197265625,0.1339111328125,0.95538330078125
1631021195612,0.30816650390625,0.1376953125,0.9532470703125
1631021195612,0.30517578125,0.13568115234375,0.95220947265625
1631021195675,0.30560302734375,0.1331787109375,0.9532470703125
1631021195690,0.30462646484375,0.12744140625,0.95111083984375
1631021195690,0.30316162109375,0.125732421875,0.9488525390625
1631021195722,0.30413818359375,0.12884521484375,0.9517822265625
1631021195722,0.30303955078125,0.1279296875,0.95587158203125
1631021195722,0.30438232421875,0.130615234375,0.95611572265625
1631021195784,0.307861328125,0.13909912109375,0.950439453125
1631021195784,0.30731201171875,0.134033203125,0.95068359375
1631021195784,0.302490234375,0.1341552734375,0.9517822265625
1631021195847,0.307373046875,0.132080078125,0.954345703125
1631021195847,0.30987548828125,0.1304931640625,0.958740234375
1631021195847,0.30517578125,0.12982177734375,0.95574951171875
1631021195987,0.311279296875,0.13201904296875,0.953857421875
1631021195987,0.30670166015625,0.131591796875,0.95831298828125
1631021195987,0.31048583984375,0.133056640625,0.95684814453125
1631021196003,0.30816650390625,0.1370849609375,0.9520263671875
1631021196003,0.31134033203125,0.1361083984375,0.951904296875
1631021196003,0.30963134765625,0.1346435546875,0.9554443359375
1631021196018,0.30645751953125,0.1290283203125,0.9473876953125
1631021196018,0.3111572265625,0.134521484375,0.950439453125
1631021196018,0.30767822265625,0.13134765625,0.950439453125
1631021196112,0.30816650390625,0.1337890625,0.95269775390625
1631021196112,0.307373046875,0.12982177734375,0.9500732421875
1631021196112,0.30517578125,0.13275146484375,0.95135498046875
1631021196175,0.3115234375,0.1322021484375,0.95721435546875
1631021196175,0.30926513671875,0.12957763671875,0.95074462890625
1631021196175,0.30755615234375,0.131591796875,0.95391845703125
1631021196206,0.306884765625,0.13153076171875,0.955078125
1631021196206,0.31170654296875,0.13427734375,0.94903564453125
1631021196206,0.3040771484375,0.1326904296875,0.95263671875
1631021196353,0.30767822265625,0.1358642578125,0.9571533203125
1631021196353,0.30694580078125,0.13153076171875,0.95361328125
1631021196353,0.30615234375,0.13592529296875,0.95208740234375
1631021196368,0.30377197265625,0.13714599609375,0.958740234375
1631021196368,0.299560546875,0.13385009765625,0.95367431640625
1631021196368,0.30059814453125,0.1307373046875,0.95025634765625
1631021196429,0.3062744140625,0.1309814453125,0.9495849609375
1631021196430,0.30181884765625,0.13226318359375,0.95452880859375
1631021196430,0.302978515625,0.13018798828125,0.95123291015625
1631021196449,0.3095703125,0.1339111328125,0.95635986328125
1631021196450,0.30755615234375,0.1376953125,0.95330810546875
1631021196513,0.30072021484375,0.1322021484375,0.95318603515625
1631021196518,0.30023193359375,0.13104248046875,0.952392578125
1631021196522,0.30169677734375,0.12481689453125,0.950927734375
1631021196590,0.30401611328125,0.1263427734375,0.95391845703125
1631021196591,0.30035400390625,0.1253662109375,0.9554443359375
1631021196591,0.30438232421875,0.12738037109375,0.9595947265625
1631021196665,0.30316162109375,0.132080078125,0.9512939453125
1631021196666,0.3021240234375,0.135009765625,0.94891357421875
1631021196666,0.3057861328125,0.13330078125,0.9541015625
1631021196683,0.30242919921875,0.13165283203125,0.95654296875
1631021196685,0.3048095703125,0.1319580078125,0.95928955078125
1631021196687,0.304931640625,0.12786865234375,0.9580078125
1631021196747,0.307373046875,0.130859375,0.95245361328125
1631021196748,0.30462646484375,0.1309814453125,0.9530029296875
1631021196749,0.3043212890625,0.13140869140625,0.95458984375
1631021196803,0.2998046875,0.1341552734375,0.9571533203125
1631021196804,0.30242919921875,0.134521484375,0.953369140625
1631021196806,0.29962158203125,0.1337890625,0.95513916015625
1631021196940,0.29986572265625,0.13348388671875,0.9500732421875
1631021196944,0.29833984375,0.12945556640625,0.9525146484375
1631021196947,0.29736328125,0.13299560546875,0.951416015625
1631021196978,0.3023681640625,0.1314697265625,0.95147705078125
1631021196979,0.30224609375,0.12969970703125,0.95025634765625
1631021196980,0.300537109375,0.1298828125,0.95452880859375
1631021197008,0.30438232421875,0.13214111328125,0.9554443359375
1631021197008,0.302001953125,0.13055419921875,0.9532470703125
1631021197009,0.3035888671875,0.134033203125,0.9520263671875
1631021197026,0.30865478515625,0.13140869140625,0.9561767578125
1631021197026,0.30682373046875,0.13006591796875,0.9541015625
1631021197027,0.30438232421875,0.136474609375,0.9588623046875
1631021197100,0.30322265625,0.13623046875,0.95587158203125
1631021197100,0.3001708984375,0.1380615234375,0.957275390625
1631021197100,0.302490234375,0.137939453125,0.95404052734375
1631021197147,0.29962158203125,0.132568359375,0.95050048828125
1631021197147,0.302490234375,0.13006591796875,0.94805908203125
1631021197147,0.30218505859375,0.132568359375,0.94989013671875
1631021197194,0.303955078125,0.1341552734375,0.9560546875
1631021197194,0.30133056640625,0.13311767578125,0.95159912109375
1631021197194,0.3057861328125,0.12982177734375,0.9542236328125
1631021197256,0.3016357421875,0.137939453125,0.95465087890625
1631021197256,0.301513671875,0.135009765625,0.94842529296875
1631021197256,0.30413818359375,0.13641357421875,0.949462890625
1631021197346,0.305908203125,0.13031005859375,0.9483642578125
1631021197347,0.3052978515625,0.1298828125,0.9510498046875
1631021197457,0.30810546875,0.13482666015625,0.95440673828125
1631021197457,0.30963134765625,0.13018798828125,0.96209716796875
1631021197457,0.30474853515625,0.13128662109375,0.95758056640625
1631021197526,0.3074951171875,0.140380859375,0.953857421875
1631021197527,0.307861328125,0.1387939453125,0.94476318359375
1631021197528,0.30841064453125,0.137451171875,0.9482421875
1631021197547,0.30926513671875,0.133544921875,0.95654296875
1631021197548,0.3111572265625,0.1317138671875,0.9588623046875
1631021197604,0.3114013671875,0.13201904296875,0.95587158203125
1631021197605,0.31060791015625,0.13446044921875,0.9515380859375
1631021197606,0.31121826171875,0.1318359375,0.95196533203125
1631021197634,0.31134033203125,0.1309814453125,0.9521484375
1631021197634,0.3121337890625,0.1326904296875,0.9500732421875
