timestamp,ax,ay,az
1629709774191,-0.300242,0.054168,-1.241716
1629709774200,-0.257176,0.035685,-1.010465
1629709774210,-0.21429299999999998,0.007869,-0.797819
1629709774220,-0.17263,-0.026047,-0.612928
1629709774229,-0.137189,-0.057034999999999995,-0.445361
1629709774239,-0.117913,-0.075457,-0.314028
1629709774248,-0.07356599999999999,-0.100345,-0.190747
1629709774258,-0.048739,-0.14036099999999999,-0.03477
1629709774268,-0.069601,-0.163297,0.072956
1629709774277,-0.097051,-0.16530999999999998,0.071126
1629709774287,-0.135786,-0.123708,-0.036112
1629709774296,-0.114314,-0.1037,-0.172447
1629709774306,-0.058072,-0.124928,-0.21520799999999998
1629709774316,-0.035563,-0.131821,-0.182512
1629709774325,-0.04453,-0.148474,-0.173728
1629709774335,-0.105835,-0.15512299999999998,-0.26126299999999997
1629709774344,-0.280844,-0.049532,-0.6941189999999999
1629709774354,-0.291885,0.111813,-1.3702429999999999
1629709774364,-0.180621,0.029828999999999998,-1.556964
1629709774373,-0.268827,0.053436,-1.5272569999999999
1629709774383,-0.276574,0.029402,-1.385371
1629709774392,-0.280661,-0.029646,-1.1929159999999999
1629709774402,-0.341478,-0.014518,-1.1871209999999999
1629709774412,-0.38143299999999997,0.002745,-1.296128
1629709774421,-0.362279,-0.00366,-1.491999
1629709774431,-0.547109,0.0060999999999999995,-1.480775
1629709774440,-0.580598,0.032574,-1.998604
1629709774450,-0.533994,-0.094001,-1.953891
1629709774460,-0.529297,-0.129137,-1.826157
1629709774469,-0.467626,-0.163053,-1.632055
1629709774479,-0.448106,-0.145607,-1.489254
1629709735853,-0.414983,-0.130418,-1.4231909999999999
1629709735863,-0.405528,-0.095648,-1.370731
1629709735872,-0.392474,-0.056852,-1.339194
1629709735882,-0.349347,-0.045262,-1.2710569999999999
1629709735891,-0.295667,-0.037393,-1.131611
1629709735901,-0.233325,-0.023363,-0.967216
1629709735911,-0.175314,-0.002806,-0.817522
1629709735920,-0.114985,0.001952,-0.688568
1629709735930,-0.037149,-0.033854999999999996,-0.528992
1629709735939,0.056729999999999996,-0.086376,-0.364048
1629709735949,0.138165,-0.139019,-0.239059
1629709735959,0.159393,-0.17141,-0.155916
1629709735968,0.098881,-0.147193,-0.09455
1629709735978,0.092903,-0.152256,-0.130357
1629709735987,0.073932,-0.15975899999999998,-0.128405
1629709735997,0.061121999999999996,-0.15738,-0.118584
1629709736007,0.061488,-0.16561499999999998,-0.096014
1629709736016,0.046665,-0.142862,-0.095648
1629709736026,-0.014761999999999999,-0.086986,-0.188612
1629709736035,-0.174094,0.014945,-0.5398499999999999
1629709736045,-0.241133,0.140544,-1.089582
1629709736055,-0.184037,0.075884,-1.306254
1629709736064,-0.22045399999999998,0.079544,-1.246108
1629709736074,-0.269254,0.036905,-1.023519
1629709736083,-0.362096,0.03538,-0.930677
1629709736093,-0.41724,0.052277,-1.150826
1629709736103,-0.393206,0.023972999999999998,-1.423435
1629709736112,-0.426268,0.001464,-1.393118
1629709736122,-0.522709,0.023485,-1.467538
1629709736131,-0.6134769999999999,0.128161,-1.927661
1629709736141,-0.5462549999999999,0.08912099999999999,-1.998604
1629709736151,-0.49044,0.050873999999999996,-1.9853669999999999
1629709736160,-0.43999299999999997,0.009333,-1.874652
1629709736170,-0.438285,0.010797,-1.704462
1629709736179,-0.41626399999999997,0.013663999999999999,-1.602531
1629709736189,-0.421022,0.043493,-1.559709
1629709736199,-0.385032,0.052643,-1.534333
1629709736208,-0.331657,0.060207,-1.412028
1629709736218,-0.320311,0.07124799999999999,-1.17791
1629709736227,-0.288286,0.04514,-0.970571
1629709736237,-0.255468,0.003294,-0.789218
1629709736247,-0.23832699999999998,-0.013663999999999999,-0.6591049999999999
1629709736256,-0.205082,-0.046299,-0.493185
1629709736266,-0.169702,-0.064111,-0.326045
1629709736275,-0.113521,-0.105347,-0.154635
1629709736285,-0.098637,-0.127002,0.008845
1629709736295,-0.114253,-0.116205,0.066124
1629709736304,-0.125111,-0.101504,0.037515
1629709736314,-0.11901099999999999,-0.09174399999999999,-0.017385
1629709736323,-0.09881999999999999,-0.09943,-0.05917
1629709736333,-0.08326499999999999,-0.092415,-0.116266
1629709736343,-0.054960999999999996,-0.113582,-0.133041
1629709736352,-0.08558299999999999,-0.091012,-0.20105599999999998
1629709736362,-0.235826,0.031659,-0.5222209999999999
1629709736371,-0.353861,0.231983,-1.140639
1629709736381,-0.274866,0.172813,-1.436977
1629709736391,-0.276818,0.201178,-1.448994
1629709736400,-0.298046,0.200385,-1.481507
1629709736410,-0.216672,0.143533,-1.4088559999999999
1629709736419,-0.24204799999999999,0.133773,-1.224392
1629709736429,-0.267851,0.087352,-1.284355
1629709736439,-0.303597,0.019154,-1.29869
1629709736448,-0.421876,0.010797,-1.367681
1629709736458,-0.485194,0.105713,-1.842627
1629709736467,-0.449326,0.045323,-1.998604
1629709736477,-0.479216,-0.045628,-1.826767
1629709736487,-0.47634899999999997,-0.091622,-1.685186
1629709736496,-0.445849,-0.116022,-1.570628
1629709736506,-0.44042,-0.098393,-1.465342
1629709736515,-0.444446,-0.053375,-1.403976
1629709736525,-0.43432,-0.011224,-1.348039
1629709736535,-0.39772,0.018666,-1.246291
1629709736544,-0.351116,0.044896,-1.123742
1629709736554,-0.298351,0.050568999999999996,-0.978196
1629709736563,-0.228201,0.025376,-0.818925
1629709736573,-0.169031,-0.004148,-0.658068
1629709736583,-0.090341,-0.057767,-0.481778
1629709736592,-0.009516,-0.116571,-0.324215
1629709736602,0.04209,-0.124745,-0.202093
1629709736611,0.07015,-0.082472,-0.138348
1629709736621,0.07015,-0.025254,-0.063318
1629709736631,0.072712,0.016531,-0.037393
1629709736640,0.049776,0.037332,-0.02379
1629709736650,0.039101,0.014213,-0.032085999999999996
1629709736659,0.03904,-0.027145,-0.074603
1629709736669,0.015189,-0.055205,-0.166896
1629709736679,-0.037515,-0.033733,-0.352946
1629709736688,-0.164639,0.084546,-0.710467
1629709736698,-0.23668,0.152012,-1.092937
1629709736707,-0.275232,0.117608,-1.243302
1629709736717,-0.303597,0.071126,-1.216706
1629709736727,-0.335561,-0.007442,-1.049261
1629709736736,-0.333609,-0.083997,-1.058228
1629709736746,-0.336964,-0.096502,-1.3386449999999999
1629709736755,-0.332267,-0.062342,-1.606862
1629709736765,-0.372283,-0.028548,-1.67628
1629709736775,-0.52033,0.092476,-1.892403
1629709736784,-0.580232,0.238205,-1.998604
1629709736794,-0.556869,0.23155599999999998,-1.998604
1629709736803,-0.552111,0.222162,-1.933395
1629709736813,-0.488915,0.179889,-1.8177999999999999
1629709736823,-0.43005,0.15433,-1.700253
1629709736832,-0.426085,0.151097,-1.564589
1629709736842,-0.41626399999999997,0.174338,-1.484313
1629709736851,-0.385215,0.210938,-1.376404
1629709736861,-0.339648,0.23363,-1.1773
1629709736871,-0.296277,0.23058,-0.969961
1629709736880,-0.251503,0.163785,-0.780373
1629709736890,-0.216733,0.068564,-0.614209
1629709736899,-0.141459,-0.023851,-0.480131
1629709736909,-0.091256,-0.068137,-0.34038
1629709736919,-0.068625,-0.073139,-0.22942099999999999
1629709736928,-0.046787,-0.11163,-0.091073
1629709736938,-0.073017,-0.10065,0.020191
1629709736947,-0.128222,-0.059109,0.032208
1629709736957,-0.133956,-0.030805,-0.071614
1629709736967,-0.094123,-0.036722,-0.186172
1629709736976,-0.057034999999999995,-0.084119,-0.228933
1629709736986,-0.041724,-0.162016,-0.193858
1629709736995,-0.051972,-0.201544,-0.174582
1629709737005,-0.090402,-0.18470799999999998,-0.254248
1629709737015,-0.272548,0.0046359999999999995,-0.663558
1629709737024,-0.323178,0.295118,-1.318881
1629709737034,-0.216062,0.140849,-1.337608
1629709737043,-0.3233,0.188978,-1.308694
1629709737053,-0.328058,0.095038,-1.26453
1629709737063,-0.315736,0.017446,-1.295335
1629709737072,-0.31232,-0.0050019999999999995,-1.367376
1629709737082,-0.35868,0.006039,-1.550498
1629709737091,-0.35922899999999997,-0.13602999999999998,-1.563491
1629709737101,-0.551623,-0.07740899999999999,-1.699338
1629709737111,-0.6156119999999999,-0.010735999999999999,-1.998604
1629709737120,-0.5663239999999999,-0.093757,-1.998604
1629709737130,-0.607743,-0.095343,-1.766743
1629709737139,-0.545218,-0.14396,-1.605764
1629709737149,-0.462746,-0.144143,-1.465952
1629709737159,-0.417545,-0.057279,-1.3818329999999999
1629709737168,-0.378261,0.040382,-1.340109
1629709737178,-0.321714,0.10309,-1.281976
1629709737187,-0.262666,0.102602,-1.18096
1629709737197,-0.18903899999999998,0.045994,-1.039074
1629709737207,-0.121817,-0.022753,-0.860588
1629709737216,-0.07076,-0.085766,-0.665083
1629709737226,-0.029158,-0.121268,-0.49702799999999997
1629709737235,0.017995,-0.15494,-0.332328
1629709737245,0.050203,-0.155245,-0.21289
1629709737255,0.092598,-0.144875,-0.141947
1629709737264,0.094184,-0.103517,-0.083936
1629709737274,0.085766,-0.07381,-0.037515
1629709737283,0.092903,-0.081984,-0.043248999999999996
1629709737293,0.072468,-0.107238,-0.053619
1629709737303,0.048983,-0.161406,-0.078141
1629709737312,0.030073,-0.17946199999999998,-0.125416
1629709737322,0.002928,-0.177388,-0.239913
1629709737331,-0.095099,-0.126514,-0.528809
1629709737341,-0.27999,0.068503,-1.117398
1629709737351,-0.29578899999999997,0.09436699999999999,-1.4335
1629709737360,-0.341234,0.116144,-1.307901
1629709737370,-0.338672,0.101016,-1.056764
1629709737379,-0.348554,0.10992199999999999,-1.011014
1629709737389,-0.41992399999999996,0.180438,-1.332728
1629709737399,-0.425658,0.16836,-1.640229
1629709737408,-0.434808,0.114802,-1.71776
1629709737418,-0.5170359999999999,0.063074,-1.859402
1629709737427,-0.5870029999999999,0.108153,-1.998604
1629709737437,-0.582306,0.096136,-1.998604
1629709737447,-0.525576,0.076128,-1.95932
1629709737456,-0.441274,0.053436,-1.8031599999999999
1629709737466,-0.375272,0.068991,-1.655479
1629709737475,-0.349835,0.116632,-1.539274
1629709737485,-0.371978,0.17507,-1.458205
1629709737495,-0.363499,0.182024,-1.317173
1629709737504,-0.316041,0.149999,-1.141432
1629709737514,-0.253028,0.074542,-0.953552
1629709737523,-0.20813199999999998,-0.004026,-0.752923
1629709737533,-0.179401,-0.061549,-0.57767
1629709737543,-0.158295,-0.097661,-0.4331
1629709737552,-0.130418,-0.125111,-0.309697
1629709737562,-0.08326499999999999,-0.18379299999999998,-0.148474
1629709737571,-0.07564,-0.20374,-0.009333
1629709737581,-0.089182,-0.181719,0.043188
1629709737591,-0.091317,-0.15914899999999998,0.036966
1629709737600,-0.09436699999999999,-0.127124,-0.017934
1629709737610,-0.088877,-0.105103,-0.073993
1629709737619,-0.068564,-0.115534,-0.087291
1629709737629,-0.059414,-0.136091,-0.071431
1629709737639,-0.08418,-0.116571,-0.122122
1629709737648,-0.158783,-0.06893,-0.302133
1629709737658,-0.34294199999999997,0.203984,-0.913902
1629709737667,-0.275354,0.32939999999999997,-1.535614
1629709737677,-0.225883,0.274988,-1.542934
1629709737687,-0.304939,0.25638299999999997,-1.384456
1629709737696,-0.31707799999999997,0.118584,-1.220366
1629709737706,-0.325801,0.087535,-0.9684969999999999
1629709737715,-0.395158,0.214659,-1.383846
1629709737725,-0.35502,0.088328,-1.3273599999999999
1629709737735,-0.4819,0.100406,-1.393789
1629709737744,-0.55022,0.11284999999999999,-1.91418
1629709737754,-0.584929,0.103029,-1.998604
1629709737763,-0.605974,0.077592,-1.998604
1629709737773,-0.5474749999999999,-0.016653,-1.886242
1629709737783,-0.49202599999999996,-0.07198,-1.6203429999999999
1629709737792,-0.462624,-0.046482,-1.446676
1629709737802,-0.44042,0.038369,-1.379637
1629709737811,-0.429928,0.112972,-1.339926
1629709737821,-0.406748,0.143411,-1.252574
1629709737831,-0.35343399999999997,0.127185,-1.103551
1629709737840,-0.269254,0.089548,-0.936045
1629709737850,-0.181841,0.038308,-0.773114
1629709737859,-0.09991799999999999,0.002013,-0.652761
1629709737869,-0.009271999999999999,-0.045994,-0.492148
1629709737879,0.058072,-0.098881,-0.316834
1629709737888,0.099979,-0.137738,-0.198799
1629709737898,0.117181,-0.147559,-0.190442
1629709737907,0.116327,-0.134688,-0.18849
1629709737917,0.10022299999999999,-0.105835,-0.191662
1629709737927,0.07679899999999999,-0.081557,-0.19489499999999998
1629709737936,0.058072,-0.069052,-0.182817
1629709737946,0.031842,-0.061854,-0.143716
1629709737955,-0.013297999999999999,-0.059109,-0.149938
1629709737965,-0.085522,0.0042699999999999995,-0.342576
1629709737975,-0.132492,0.068442,-0.6893
1629709737984,-0.170617,0.08662,-1.00223
1629709737994,-0.212524,0.167628,-1.22793
1629709738003,-0.187331,0.205509,-1.210423
1629709738013,-0.167506,0.158173,-1.045845
1629709738023,-0.228262,0.134017,-1.007598
1629709738032,-0.274378,0.11315499999999999,-1.240923
1629709738042,-0.217648,0.067466,-1.571299
1629709738051,-0.270657,0.071919,-1.704096
1629709738061,-0.40748,0.110471,-1.819508
1629709738071,-0.458964,0.144936,-1.998604
1629709738080,-0.431758,0.139507,-1.998604
1629709738090,-0.363011,0.1159,-1.998604
1629709738099,-0.275781,0.070272,-1.9249159999999998
1629709738109,-0.264862,0.065758,-1.758874
1629709738119,-0.298717,0.0793,-1.605642
1629709738128,-0.3111,0.09174399999999999,-1.544581
1629709738138,-0.311039,0.09272,-1.4204459999999999
1629709738147,-0.268766,0.078507,-1.253245
1629709738157,-0.236436,0.055693,-1.037
1629709738167,-0.230458,0.047702,-0.8066639999999999
1629709738176,-0.215879,0.027572,-0.6125619999999999
1629709738186,-0.186294,-0.016226,-0.439749
1629709738195,-0.165188,-0.039772,-0.304085
1629709738205,-0.13176,-0.067344,-0.173179
1629709738215,-0.100467,-0.128283,0.000183
1629709738224,-0.10760399999999999,-0.16713999999999998,0.136701
1629709738234,-0.143167,-0.158661,0.13908
1629709738243,-0.147193,-0.111691,0.019459
1629709738253,-0.132065,-0.050081,-0.127856
1629709738263,-0.091195,-0.006588,-0.224236
1629709738272,-0.051362,-0.0034159999999999998,-0.241316
1629709738282,-0.03233,-0.013663999999999999,-0.24881899999999998
1629709738291,-0.047153,-0.03843,-0.292373
1629709738301,-0.125782,-0.038125,-0.492514
1629709738311,-0.271633,0.14823,-1.144116
1629709738320,-0.130662,0.229665,-1.712636
1629709738330,-0.09698999999999999,0.198006,-1.7030589999999999
1629709738339,-0.204777,0.182634,-1.526769
1629709738349,-0.234545,0.116754,-1.5080419999999999
1629709738359,-0.25498,0.002074,-1.200114
1629709738368,-0.318176,0.025071,-1.371646
1629709738378,-0.259006,-0.044407999999999996,-1.35359
1629709738387,-0.37759,-0.006039,-1.51951
1629709738397,-0.42578,0.075152,-1.911008
1629709738407,-0.345138,0.026474,-1.998604
1629709738416,-0.383934,0.024704999999999998,-1.998604
1629709738426,-0.35434899999999997,-0.024704999999999998,-1.821399
1629709738435,-0.289933,-0.094855,-1.612535
1629709738445,-0.269498,-0.109434,-1.450275
1629709738455,-0.239669,-0.098698,-1.339926
1629709738464,-0.236253,-0.056608,-1.231895
1629709738474,-0.24034,0.0071979999999999995,-1.1688209999999999
1629709738483,-0.214354,0.046604,-1.106662
1629709738493,-0.161894,0.05978,-0.988139
1629709738503,-0.098576,0.058438,-0.832284
1629709738512,-0.026962,0.043248999999999996,-0.660569
1629709738522,0.030195,0.0305,-0.506422
1629709738531,0.077653,-0.001769,-0.37149
1629709738541,0.11223999999999999,-0.033977,-0.247538
1629709738551,0.113643,-0.062159,-0.159698
1629709738560,0.10004,-0.059475,-0.15067
1629709738570,0.110654,-0.050263999999999996,-0.172325
1629709738579,0.101504,-0.048799999999999996,-0.12993
1629709738589,0.101809,-0.037087999999999996,-0.073383
1629709738599,0.091012,-0.024339,-0.027084
1629709738608,0.085766,-0.02867,0.0044529999999999995
1629709738618,0.054412,-0.038064,-0.007686
1629709738627,-0.075762,-0.00061,-0.215757
1629709738637,-0.222223,0.12627,-0.751703
1629709738647,-0.20996199999999998,0.205448,-1.1916959999999999
1629709738656,-0.168726,0.188978,-1.214632
1629709738666,-0.175619,0.163907,-1.061827
1629709738675,-0.198738,0.132614,-0.957822
1629709738685,-0.238083,0.10248,-1.077199
1629709738695,-0.27114499999999997,0.090341,-1.316502
1629709738704,-0.259494,0.064965,-1.485167
1629709738714,-0.295423,0.025559,-1.587708
1629709738723,-0.490074,0.091683,-1.916498
1629709738733,-0.541497,0.128222,-1.998604
1629709738743,-0.51728,0.072163,-1.998604
1629709738752,-0.451278,-0.000183,-1.998604
1629709738762,-0.363072,-0.104188,-1.970483
1629709738771,-0.352031,-0.094611,-1.906128
1629709738781,-0.355386,-0.020557,-1.867149
1629709738791,-0.348127,0.032695999999999996,-1.803892
1629709738800,-0.29951,0.052155,-1.681648
1629709738810,-0.266082,0.082289,-1.409283
1629709738819,-0.20721699999999998,0.088572,-1.160891
1629709738829,-0.172813,0.079971,-0.954345
1629709738839,-0.143045,0.054839,-0.769698
1629709738848,-0.10492,0.017873,-0.58621
1629709738858,-0.067039,-0.007442,-0.38173799999999997
1629709738867,-0.047153,-0.04209,-0.10699399999999999
1629709738877,-0.058316,-0.080215,0.116632
1629709738887,-0.105103,-0.11638799999999999,0.264862
1629709738896,-0.211304,-0.028791999999999998,0.256932
1629709738906,-0.194956,-0.091805,0.107726
1629709738915,-0.155367,-0.041846,-0.118218
1629709738925,-0.132004,-0.011529,-0.198128
1629709738935,-0.050447,-0.044407999999999996,-0.215696
1629709738944,-0.055632,-0.066002,-0.168421
1629709738954,-0.110349,-0.034709,-0.280783
1629709738963,-0.229604,0.015006,-0.5389349999999999
1629709738973,-0.42029,0.14865699999999998,-1.138504
1629709738983,-0.259921,0.19641999999999998,-1.615829
1629709738992,-0.252723,0.208986,-1.5318319999999999
1629709739002,-0.245159,0.163968,-1.429718
1629709739011,-0.24095,0.109068,-1.260565
1629709739021,-0.253028,0.050447,-1.155767
1629709739031,-0.375882,0.068381,-1.209569
1629709739040,-0.370514,0.0305,-1.339743
1629709739050,-0.46860199999999996,-0.018422,-1.403244
1629709739059,-0.558333,0.038125,-1.837076
1629709739069,-0.48531599999999997,-0.020007999999999998,-1.998604
1629709739079,-0.471225,-0.062952,-1.9650539999999999
1629709739088,-0.438651,-0.118157,-1.76839
1629709739098,-0.394426,-0.155001,-1.61101
1629709739107,-0.355325,-0.156587,-1.470527
1629709739117,-0.345138,-0.12254899999999999,-1.344928
1629709739127,-0.353861,-0.083082,-1.270081
1629709739136,-0.32513,-0.055998,-1.218353
1629709739146,-0.266021,-0.031659,-1.1250229999999999
1629709739155,-0.199409,-0.005795,-0.9806969999999999
1629709739165,-0.13078399999999998,0.017263,-0.82411
1629709739175,-0.077836,0.043676,-0.68137
1629709739184,0.00976,0.028364999999999998,-0.497089
1629709739194,0.065941,-0.012931999999999999,-0.285724
1629709739203,0.069906,-0.055388,-0.138104
1629709739213,0.056303,-0.086132,-0.096319
1629709739223,0.052399,-0.10638399999999999,-0.105408
1629709739232,0.043188,-0.098698,-0.138714
1629709739242,0.056547,-0.098271,-0.156038
1629709739251,0.047030999999999996,-0.116327,-0.11053199999999999
1629709739261,0.017873,-0.08052,-0.11608299999999999
1629709739271,-0.04575,-0.022814,-0.18239
1629709739280,-0.09729499999999999,0.060511999999999996,-0.408944
1629709739290,-0.15481799999999998,0.117608,-0.73627
1629709739299,-0.171715,0.15738,-1.102941
1629709739309,-0.140849,0.128893,-1.252391
1629709739319,-0.131821,0.1098,-1.258369
1629709739328,-0.157746,0.092476,-1.1387479999999999
1629709739338,-0.254248,0.100406,-1.148996
1629709739347,-0.31232,0.10467599999999999,-1.335168
1629709739357,-0.31890799999999997,0.083021,-1.5211569999999999
1629709739367,-0.356606,0.068381,-1.587098
1629709739376,-0.46219699999999997,0.112362,-1.746125
1629709739386,-0.447496,0.131821,-1.971276
1629709739395,-0.412543,0.122183,-1.998604
1629709739405,-0.38856999999999997,0.102541,-1.9494989999999999
1629709739415,-0.344284,0.058865,-1.8408579999999999
1629709739424,-0.315431,0.02013,-1.7645469999999999
1629709739434,-0.33092499999999997,0.017934,-1.670729
1629709739443,-0.34111199999999997,0.013908,-1.543605
1629709739453,-0.329644,0.015555,-1.3583479999999999
1629709739463,-0.297375,0.01342,-1.145092
1629709739472,-0.260531,-0.001952,-0.9435479999999999
1629709739482,-0.232837,-0.0183,-0.7625609999999999
1629709739491,-0.218075,-0.030744,-0.60268
1629709739501,-0.200995,-0.045018,-0.453962
1629709739511,-0.168726,-0.079483,-0.30622
1629709739520,-0.153049,-0.09497699999999999,-0.132858
1629709739530,-0.135359,-0.12505,0.023667999999999998
1629709739539,-0.145973,-0.129198,0.112484
1629709739549,-0.179401,-0.09790499999999999,0.101809
1629709739559,-0.185806,-0.050996,0.000732
1629709739568,-0.1708,-0.013725,-0.12627
1629709739578,-0.10858,-0.006344,-0.212646
1629709739587,-0.077165,-0.009028,-0.222711
1629709739597,-0.092964,-0.024399999999999998,-0.226127
1629709739607,-0.174887,-0.040199,-0.348859
1629709739616,-0.317017,0.016226,-0.790987
1629709739626,-0.258945,0.063806,-1.311988
1629709739635,-0.244732,0.071492,-1.545069
1629709739645,-0.283711,0.065148,-1.5518399999999999
1629709739655,-0.275781,0.034587,-1.346392
1629709739664,-0.285053,-0.0006709999999999999,-1.104161
1629709739674,-0.33061999999999997,0.038003,-1.223477
1629709739683,-0.383995,0.018178,-1.277218
1629709739693,-0.43255099999999996,-0.006161,-1.420873
1629709739703,-0.557784,-0.012931999999999999,-1.69153
1629709739712,-0.608048,-0.019275999999999998,-1.998604
1629709739722,-0.597312,-0.053985,-1.998604
1629709739731,-0.565226,-0.088328,-1.9069209999999999
1629709739741,-0.506727,-0.136518,-1.659322
1629709739751,-0.46665,-0.143228,-1.5052969999999999
1629709739760,-0.45383999999999997,-0.10638399999999999,-1.4569239999999999
1629709739770,-0.452742,-0.053436,-1.44204
1629709739779,-0.429867,-0.02379,-1.388665
1629709739789,-0.374845,-0.015067,-1.257637
1629709739799,-0.297741,-0.009516,-1.077077
1629709739808,-0.205204,-0.013237,-0.893284
1629709739818,-0.116571,-0.027632999999999998,-0.709979
1629709739827,-0.054655999999999996,-0.053558,-0.5401549999999999
1629709739837,0.001098,-0.063501,-0.422059
1629709739847,0.051789,-0.09436699999999999,-0.28792
1629709739856,0.073688,-0.12364699999999999,-0.189222
1629709739866,0.08326499999999999,-0.144631,-0.146339
1629709739875,0.094123,-0.150426,-0.136884
1629709739885,0.075823,-0.13017399999999998,-0.15616
1629709739895,0.06466,-0.105286,-0.197701
1629709739904,0.06954,-0.118157,-0.193126
1629709739914,0.068991,-0.116022,-0.151646
1629709739923,0.012871,-0.085705,-0.12224399999999999
1629709739933,-0.012749,-0.074908,-0.23216599999999998
1629709739943,-0.131638,-0.059292,-0.528321
1629709739952,-0.281698,0.052582,-1.095682
1629709739962,-0.252357,0.07033299999999999,-1.501393
1629709739971,-0.241682,0.043188,-1.455765
1629709739981,-0.250588,0.0025009999999999998,-1.137711
1629709739991,-0.277916,-0.034159999999999996,-1.018883
1629709740000,-0.34172199999999997,-0.007442,-1.1956
1629709740010,-0.374235,0.017141,-1.433439
1629709740019,-0.334707,-0.024156,-1.51463
1629709740029,-0.47451899999999997,-0.002196,-1.707451
1629709740039,-0.497211,0.034343,-1.998604
1629709740048,-0.486414,-0.004209,-1.998604
1629709740058,-0.469151,-0.035502,-1.947913
1629709740067,-0.383751,-0.139568,-1.790228
1629709740077,-0.381372,-0.141337,-1.614792
1629709740087,-0.384361,-0.115412,-1.5120069999999999
1629709740096,-0.381555,-0.074847,-1.500722
1629709740106,-0.38051799999999997,-0.026474,-1.451739
1629709740115,-0.349896,-0.003172,-1.293749
1629709740125,-0.28621199999999997,-0.013847,-1.103734
1629709740135,-0.233203,-0.036356,-0.900482
1629709740144,-0.17671699999999999,-0.07503,-0.715774
1629709740154,-0.155489,-0.09759999999999999,-0.543327
1629709740163,-0.140422,-0.109129,-0.415715
1629709740173,-0.094123,-0.142679,-0.255773
1629709740183,-0.080215,-0.168848,-0.07155299999999999
1629709740192,-0.086925,-0.175192,0.031293
1629709740202,-0.09516,-0.16439499999999999,0.01281
1629709740211,-0.104188,-0.147071,-0.038003
1629709740221,-0.088694,-0.135542,-0.103029
1629709740231,-0.058377,-0.119438,-0.139446
1629709740240,-0.055327,-0.114192,-0.134749
1629709740250,-0.036966,-0.11962099999999999,-0.14005599999999999
1629709740259,-0.081862,-0.091073,-0.16561499999999998
1629709740269,-0.223748,-0.037027,-0.389424
1629709740279,-0.368562,0.108092,-1.052128
1629709740288,-0.226127,0.107116,-1.552999
1629709740298,-0.187941,0.087596,-1.6270529999999999
1629709740307,-0.247782,0.102358,-1.493097
1629709740317,-0.271023,0.046848,-1.288015
1629709740327,-0.268034,0.018788,-1.112579
1629709740336,-0.38204299999999997,0.086986,-1.196149
1629709740346,-0.351482,0.010553,-1.24501
1629709740355,-0.46006199999999997,0.020496,-1.36335
1629709740365,-0.594567,0.015067,-1.717943
1629709740375,-0.585051,-0.02684,-1.998604
1629709740384,-0.523868,-0.051118,-1.998604
1629709740394,-0.464271,-0.170312,-1.711538
1629709740403,-0.488549,-0.13176,-1.454606
1629709740413,-0.415227,-0.173362,-1.381894
1629709740423,-0.369233,-0.15738,-1.334802
1629709740432,-0.37746799999999997,-0.106628,-1.2869169999999999
1629709740442,-0.372832,-0.046909,-1.250683
1629709740451,-0.335683,-0.040809,-1.1837659999999999
1629709740461,-0.285846,-0.010492,-1.0474919999999999
1629709740471,-0.220332,0.009211,-0.885232
1629709740480,-0.15311,0.019703,-0.745542
1629709740490,-0.073383,0.020618,-0.615734
1629709740499,-0.010492,0.00976,-0.438285
1629709740509,0.037393,-0.0305,-0.282979
1629709740519,0.038979,-0.06588,-0.165432
1629709740528,0.034159999999999996,-0.078385,-0.134383
1629709740538,0.041968,-0.091622,-0.139446
1629709740547,0.07124799999999999,-0.109739,-0.15555
1629709740557,0.050752,-0.112179,-0.144265
1629709740567,0.030622,-0.093513,-0.170434
1629709740576,0.0025009999999999998,-0.078568,-0.217282
1629709740586,-0.0793,-0.036112,-0.383934
1629709740595,-0.16043,0.006344,-0.716689
1629709740605,-0.17946199999999998,0.061426999999999995,-1.100562
1629709740615,-0.187453,0.040443,-1.232932
1629709740624,-0.206058,0.0183,-1.174555
1629709740634,-0.24339,-0.045933,-0.964776
1629709740643,-0.245647,-0.073749,-0.986248
1629709740653,-0.350384,-0.0034159999999999998,-1.221281
1629709740663,-0.32287299999999997,-0.004758,-1.392996
1629709740672,-0.398513,0.041114,-1.489071
1629709740682,-0.494466,0.080093,-1.677683
1629709740691,-0.543449,0.179828,-1.971032
1629709740701,-0.43511299999999997,0.118035,-1.998604
1629709740711,-0.37685799999999997,0.019215,-1.954257
1629709740720,-0.316712,-0.06709999999999999,-1.927844
1629709740730,-0.32787499999999997,-0.003843,-1.748748
1629709740739,-0.453718,0.145668,-1.627419
1629709740749,-0.403393,0.055570999999999995,-1.442406
1629709740759,-0.396683,0.084119,-1.3815279999999999
1629709740768,-0.194041,-0.040382,-1.342183
1629709740778,-0.24827,0.057034999999999995,-1.044564
1629709740787,-0.2135,0.026535,-0.899567
1629709740797,-0.133163,-0.039223,-0.713639
1629709740807,-0.149023,-0.032695999999999996,-0.528687
1629709740816,-0.119743,-0.072712,-0.365207
1629709740826,-0.047092,-0.12986899999999998,-0.25254
1629709740835,-0.009455,-0.170922,-0.100162
1629709740845,-0.034221,-0.148108,0.068625
1629709740855,-0.079483,-0.105347,0.119377
1629709740864,-0.115656,-0.061,0.030134
1629709740874,-0.130113,-0.031293,-0.111569
1629709740883,-0.095343,-0.025254,-0.200568
1629709740893,-0.058377,-0.072285,-0.196969
1629709740903,-0.08723,-0.12102399999999999,-0.183915
1629709740912,-0.15738,-0.137433,-0.316285
1629709740922,-0.280783,-0.056669,-0.763964
1629709740931,-0.35685,0.114924,-1.399218
1629709740941,-0.235094,0.064233,-1.697325
1629709740951,-0.253943,0.043981,-1.567212
1629709740960,-0.331474,0.05307,-1.288869
1629709740970,-0.39967199999999997,0.08723,-1.14131
1629709740979,-0.394731,0.068686,-1.15534
1629709740989,-0.37777299999999997,0.051606,-1.353895
1629709740999,-0.407114,0.020191,-1.436794
1629709741008,-0.464088,-0.032147,-1.634861
1629709741018,-0.47177399999999997,-0.008296,-1.974387
1629709741027,-0.450241,-0.03721,-1.916254
1629709741037,-0.430233,-0.071309,-1.720261
1629709741047,-0.338916,-0.110776,-1.572946
1629709741056,-0.332938,-0.120414,-1.397998
1629709741066,-0.352397,-0.133041,-1.263188
1629709741075,-0.44408,0.014335,-1.29442
1629709741085,-0.600545,-0.015982,-0.987895
1629709741095,-0.125782,-0.05795,-1.723677
1629709741104,-0.105957,-0.195932,-1.1256329999999999
1629709741114,-0.239669,0.034159999999999996,-0.889197
1629709741123,-0.22972599999999999,0.179828,-0.9356789999999999
1629709741133,-0.221857,-0.034038,-0.346419
1629709741143,0.081435,-0.237961,-0.39100999999999997
1629709741152,0.15128,-0.300425,-0.26474
1629709741162,0.146095,-0.24570799999999998,-0.162504
1629709741171,0.134566,-0.178303,-0.125965
1629709741181,0.146339,-0.195261,-0.121268
1629709741191,0.159088,-0.216062,-0.19086899999999998
1629709741200,0.15512299999999998,-0.218746,-0.248575
1629709741210,0.145485,-0.227164,-0.235216
1629709741219,0.12444,-0.236924,-0.204594
1629709741229,0.060451,-0.21228,-0.305488
1629709741239,-0.045384,-0.120597,-0.670268
1629709741248,-0.127124,-0.02501,-1.102514
1629709741258,-0.16652999999999998,0.069418,-1.389641
1629709741267,-0.129686,0.041846,-1.318454
1629709741277,-0.14188599999999998,-0.04636,-1.096048
1629709741287,-0.17995,-0.139812,-1.064267
1629709741296,-0.19178399999999998,-0.177388,-1.255563
1629709741306,-0.185745,-0.15792899999999999,-1.457717
1629709741315,-0.18409799999999998,-0.147803,-1.540921
1629709741325,-0.25132,-0.129442,-1.627602
1629709741335,-0.326716,-0.023851,-1.891244
1629709741344,-0.303231,-0.05124,-1.893135
1629709741354,-0.348005,-0.07869,-1.674572
1629709741363,-0.320006,-0.032574,-1.582157
1629709741373,-0.214171,-0.150853,-1.496269
1629709741383,-0.329217,-0.228872,-1.278865
1629709741392,-0.413336,-0.252906,-1.245986
1629709741402,-0.559248,-0.078751,-1.124047
1629709741411,-0.560285,0.11345999999999999,-1.211948
1629709741421,-0.40363699999999997,-0.18873399999999999,-1.359934
1629709741431,-0.45505999999999996,-0.158112,-1.024251
1629709741440,-0.37454,-0.175375,-0.815692
1629709741450,-0.338855,-0.150731,-0.52521
1629709741459,-0.24522,-0.185196,-0.388509
1629709741469,-0.148901,-0.207095,-0.295057
1629709741479,-0.097234,-0.176656,-0.185989
1629709741488,-0.048068,-0.18995399999999998,-0.020374
1629709741498,-0.074786,-0.18409799999999998,0.062952
1629709741507,-0.102785,-0.176229,0.00671
1629709741517,-0.096441,-0.182634,-0.12139
1629709741527,-0.069479,-0.227469,-0.20044599999999999
1629709741536,-0.041663,-0.225273,-0.254187
1629709741546,-0.055205,-0.20813199999999998,-0.27236499999999997
1629709741555,-0.202215,-0.154025,-0.418948
1629709741565,-0.413031,-0.060085,-0.866322
1629709741575,-0.484218,-0.032452,-1.4091609999999999
1629709741584,-0.427793,-0.163358,-1.5753249999999999
1629709741594,-0.460611,-0.16469999999999999,-1.511763
1629709741603,-0.411506,-0.18226799999999999,-1.3105849999999999
1629709741613,-0.402966,-0.211121,-1.1761409999999999
1629709741623,-0.449021,-0.17385,-1.237202
1629709741632,-0.525759,-0.139324,-1.37738
1629709741642,-0.497821,-0.232959,-1.472113
1629709741651,-0.7640859999999999,-0.314882,-1.715503
1629709741661,-0.828014,-0.448533,-1.7949249999999999
1629709741671,-0.7424919999999999,-0.5392399999999999,-1.6595659999999999
1629709741680,-0.676856,-0.500627,-1.428864
1629709741690,-0.568642,-0.475617,-1.243851
1629709741699,-0.512156,-0.392901,-1.176934
1629709741709,-0.503067,-0.30012,-1.177239
1629709741719,-0.482449,-0.232349,-1.210606
1629709741728,-0.43371,-0.186477,-1.209325
1629709741738,-0.371612,-0.164212,-1.13399
1629709741747,-0.297863,-0.174033,-0.9837469999999999
1629709741757,-0.20380099999999998,-0.182024,-0.817034
1629709741767,-0.10004,-0.187392,-0.62525
1629709741776,-0.041602,-0.186416,-0.46055
1629709741786,0.006039,-0.176595,-0.37393
1629709741795,0.054655999999999996,-0.198738,-0.289811
1629709741805,0.078629,-0.212036,-0.252784
1629709741815,0.110288,-0.250344,-0.210938
1629709741824,0.127551,-0.300486,-0.16652999999999998
1629709741834,0.11773,-0.347883,-0.152134
1629709741843,0.103395,-0.396988,-0.155245
1629709741853,0.096319,-0.421083,-0.15390299999999998
1629709741863,0.081801,-0.409493,-0.137189
1629709741872,0.030622,-0.383324,-0.167567
1629709741882,-0.07124799999999999,-0.355996,-0.3721
1629709741891,-0.263154,-0.28975,-0.847473
1629709741901,-0.368562,-0.25376,-1.3352899999999999
1629709741911,-0.391498,-0.241133,-1.51463
1629709741920,-0.32086,-0.230519,-1.329312
1629709741930,-0.236253,-0.28102699999999997,-0.9481229999999999
1629709741939,-0.32043299999999997,-0.311161,-0.9107299999999999
1629709741949,-0.422852,-0.39711,-1.200968
1629709741959,-0.39314499999999997,-0.384727,-1.430633
1629709741968,-0.504043,-0.420351,-1.457595
1629709741978,-0.658861,-0.508801,-1.685735
1629709741987,-0.686738,-0.555893,-1.9494989999999999
1629709741997,-0.704062,-0.536922,-1.943887
1629709742007,-0.681858,-0.49580799999999997,-1.731424
1629709742016,-0.660691,-0.481961,-1.483032
1629709742026,-0.6092069999999999,-0.468663,-1.342976
1629709742035,-0.623603,-0.429928,-1.294176
1629709742045,-0.664961,-0.390644,-1.278011
1629709742055,-0.647393,-0.358497,-1.261785
1629709742064,-0.578036,-0.336354,-1.1259379999999999
1629709742074,-0.490989,-0.30689099999999997,-0.9052399999999999
1629709742083,-0.406504,-0.284016,-0.724192
1629709742093,-0.311649,-0.289567,-0.581025
1629709742103,-0.228994,-0.285724,-0.459879
1629709742112,-0.169214,-0.266143,-0.335683
1629709742122,-0.133163,-0.25729799999999997,-0.226859
1629709742131,-0.07448099999999999,-0.266326,-0.099796
1629709742141,-0.045079,-0.266082,0.020923
1629709742151,-0.054473,-0.260897,0.07710399999999999
1629709742160,-0.072529,-0.270718,0.050263999999999996
1629709742170,-0.080947,-0.277306,-0.066856
1629709742179,-0.052521,-0.284016,-0.142618
1629709742189,-0.024278,-0.272548,-0.109861
1629709742199,-0.033245,-0.252174,-0.049532
1629709742208,-0.076067,-0.263459,-0.066185
1629709742218,-0.153354,-0.298107,-0.190015
1629709742227,-0.478118,-0.320006,-0.686982
1629709742237,-0.5970679999999999,-0.30536599999999997,-1.546716
1629709742247,-0.456829,-0.411201,-1.819874
1629709742256,-0.529358,-0.293593,-1.686406
1629709742266,-0.575047,-0.254187,-1.2631269999999999
1629709742275,-0.507215,-0.363987,-0.876814
1629709742285,-0.607438,-0.21984399999999998,-0.941657
1629709742295,-0.673257,-0.112301,-1.310768
1629709742304,-0.711016,-0.39009499999999997,-1.233237
1629709742314,-1.056154,-0.499224,-1.39812
1629709742323,-1.02907,-0.667401,-1.76839
1629709742333,-0.9472079999999999,-0.73322,-1.723555
1629709742343,-0.856074,-0.702171,-1.453325
1629709742352,-0.750788,-0.667706,-1.284111
1629709742362,-0.667096,-0.613904,-1.174982
1629709742371,-0.632082,-0.524234,-1.151253
1629709742381,-0.620675,-0.398452,-1.173152
1629709742391,-0.58804,-0.300364,-1.175714
1629709742400,-0.520757,-0.256444,-1.106235
1629709742410,-0.422425,-0.229848,-0.964898
1629709742419,-0.31781,-0.20136099999999998,-0.7893399999999999
1629709742429,-0.175436,-0.17360599999999998,-0.594689
1629709742439,-0.068381,-0.169214,-0.390949
1629709742448,0.017385,-0.18409799999999998,-0.248453
1629709742458,0.075457,-0.208925,-0.150304
1629709742467,0.095099,-0.218563,-0.086742
1629709742477,0.084607,-0.218868,-0.066978
1629709742487,0.079971,-0.213317,-0.093757
1629709742496,0.088389,-0.20679,-0.10004
1629709742506,0.082716,-0.180865,-0.074908
1629709742515,0.068564,-0.147986,-0.027694
1629709742525,0.014274,-0.12322,-0.033672
1629709742535,-0.110593,-0.131638,-0.22082
1629709742544,-0.361364,-0.126514,-0.7259
1629709742554,-0.422486,-0.184464,-1.2235989999999999
1629709742563,-0.327143,-0.29402,-1.237202
1629709742573,-0.324398,-0.223321,-1.0748199999999999
1629709742583,-0.327692,-0.172813,-0.899506
1629709742592,-0.424255,-0.200629,-0.9104249999999999
1629709742602,-0.553636,-0.229787,-1.146312
1629709742611,-0.588772,-0.386984,-1.150399
1629709742621,-0.587674,-0.369782,-1.218475
1629709742631,-0.908412,-0.367464,-1.662738
1629709742640,-1.020713,-0.5210009999999999,-1.866234
1629709742650,-1.0255319999999999,-0.568581,-1.728252
1629709742659,-0.962275,-0.557479,-1.59088
1629709742669,-0.86864,-0.601216,-1.496879
1629709742679,-0.8221579999999999,-0.582428,-1.338096
1629709742688,-0.807823,-0.5459499999999999,-1.288808
1629709742698,-0.795928,-0.525271,-1.294664
1629709742707,-0.770308,-0.490135,-1.220427
1629709742717,-0.702903,-0.41419,-1.048407
1629709742727,-0.624823,-0.325374,-0.87352
1629709742736,-0.52582,-0.284504,-0.728523
1629709742746,-0.43005,-0.258091,-0.579622
1629709742755,-0.332023,-0.222772,-0.432917
1629709742765,-0.222406,-0.17995,-0.285358
1629709742775,-0.127978,-0.13572499999999998,-0.13480999999999999
1629709742784,-0.087169,-0.113704,0.0075639999999999995
1629709742794,-0.10309,-0.097783,0.078019
1629709742803,-0.125172,-0.095465,0.058987
1629709742813,-0.124928,-0.101992,0.0064659999999999995
1629709742823,-0.11712,-0.098332,-0.043859
1629709742832,-0.089182,-0.108702,-0.068991
1629709742842,-0.082594,-0.126209,-0.076311
1629709742851,-0.132736,-0.157441,-0.123342
1629709742861,-0.318725,-0.192211,-0.368623
1629709742871,-0.569801,-0.209901,-0.95221
1629709742880,-0.545401,-0.338611,-1.390068
1629709742890,-0.449631,-0.395829,-1.385859
1629709742899,-0.530578,-0.307379,-1.166991
1629709742909,-0.553758,-0.285968,-1.004182
1629709742919,-0.5383249999999999,-0.333548,-0.898347
1629709742928,-0.646234,-0.270474,-1.010587
1629709742938,-0.681492,-0.301218,-1.1901709999999999
1629709742947,-0.8005639999999999,-0.40077,-1.339133
1629709742957,-1.061034,-0.517829,-1.493585
1629709742967,-1.103124,-0.651053,-1.721298
1629709742976,-1.017236,-0.674172,-1.6285779999999999
1629709742986,-0.949587,-0.6089019999999999,-1.4091
1629709742995,-0.845521,-0.595177,-1.238361
1629709743005,-0.780739,-0.563091,-1.123132
1629709743015,-0.74725,-0.525332,-1.093608
1629709743024,-0.714737,-0.48617,-1.129354
1629709743034,-0.65087,-0.431087,-1.1372229999999999
1629709743043,-0.559004,-0.35617899999999997,-1.0614
1629709743053,-0.440481,-0.27694,-0.9280539999999999
1629709743063,-0.329461,-0.213134,-0.775554
1629709743072,-0.235704,-0.168116,-0.659532
1629709743082,-0.108214,-0.167079,-0.5142909999999999
1629709743091,-0.023363,-0.187758,-0.346724
1629709743101,0.024522,-0.226066,-0.245891
1629709743111,0.063013,-0.258762,-0.20935199999999998
1629709743120,0.092903,-0.259067,-0.165554
1629709743130,0.087352,-0.248392,-0.135603
1629709743139,0.07942199999999999,-0.239791,-0.135908
1629709743149,0.072407,-0.226798,-0.132004
1629709743159,0.053131,-0.195932,-0.134261
1629709743168,0.028364999999999998,-0.179096,-0.166164
1629709743178,-0.045079,-0.200568,-0.27816
1629709743187,-0.197396,-0.238998,-0.542351
1629709743197,-0.396195,-0.24357299999999998,-0.955687
1629709743207,-0.398574,-0.2989,-1.1691259999999999
1629709743216,-0.42883,-0.300181,-1.145824
1629709743226,-0.434381,-0.300852,-1.047553
1629709743235,-0.48287599999999997,-0.36911099999999997,-0.9533079999999999
1629709743245,-0.631533,-0.420656,-1.129232
1629709743255,-0.660386,-0.566507,-1.200785
1629709743264,-0.674233,-0.50752,-1.345782
1629709743274,-0.8985299999999999,-0.541131,-1.44936
1629709743283,-1.016077,-0.624762,-1.667008
1629709743293,-0.985211,-0.682468,-1.668594
1629709743303,-0.946415,-0.6871039999999999,-1.563918
1629709743312,-0.860344,-0.706502,-1.422642
1629709743322,-0.831857,-0.671122,-1.294054
1629709743331,-0.849608,-0.629215,-1.257698
1629709743341,-0.828197,-0.594567,-1.186267
1629709743351,-0.780678,-0.532286,-1.061949
1629709743360,-0.6874089999999999,-0.442494,-0.8948699999999999
1629709743370,-0.572058,-0.39283999999999997,-0.738954
1629709743379,-0.45170499999999997,-0.367037,-0.5705939999999999
1629709743389,-0.35861899999999997,-0.351787,-0.422364
1629709743399,-0.27999,-0.339099,-0.325252
1629709743408,-0.193736,-0.317871,-0.223748
1629709743418,-0.127856,-0.28072199999999997,-0.132919
1629709743427,-0.043798,-0.250222,-0.008418
1629709743437,-0.021838,-0.206058,0.101626
1629709743447,-0.045262,-0.175558,0.160125
1629709743456,-0.075274,-0.180621,0.144204
1629709743466,-0.112362,-0.202825,0.055815
1629709743475,-0.094123,-0.251503,-0.033062
1629709743485,-0.051911,-0.285114,-0.078263
1629709743495,-0.045689,-0.291153,-0.07259
1629709743504,-0.091866,-0.297253,-0.094489
1629709743514,-0.276818,-0.337147,-0.282735
1629709743523,-0.708942,-0.339648,-0.99796
1629709743533,-0.692716,-0.467016,-1.657858
1629709743543,-0.626287,-0.528016,-1.638338
1629709743552,-0.7391369999999999,-0.376797,-1.409832
1629709743562,-0.668133,-0.420473,-1.071526
1629709743571,-0.5882229999999999,-0.388631,-0.915122
1629709743581,-0.692838,-0.23851,-0.982405
1629709743591,-0.8097139999999999,-0.365329,-1.228967
1629709743600,-0.93879,-0.531188,-1.036634
1629709743610,-1.161806,-0.759938,-1.469307
1629709743619,-1.111908,-0.965508,-1.601494
1629709743629,-1.045174,-0.938363,-1.396656
1629709743639,-0.939522,-0.852414,-1.240191
1629709743648,-0.830149,-0.762805,-1.15534
1629709743658,-0.762195,-0.642269,-1.097695
1629709743667,-0.77104,-0.515267,-1.107028
1629709743677,-0.756095,-0.445788,-1.151741
1629709743687,-0.691618,-0.410164,-1.146251
1629709743696,-0.5955429999999999,-0.370453,-1.0468819999999999
1629709743706,-0.47878899999999996,-0.332389,-0.9024949999999999
1629709743715,-0.336415,-0.310734,-0.726754
1629709743725,-0.231495,-0.28468699999999997,-0.56547
1629709743735,-0.105164,-0.255102,-0.418765
1629709743744,-0.011773,-0.247416,-0.254675
1629709743754,0.040565,-0.251747,-0.137372
1629709743763,0.081252,-0.261141,-0.081923
1629709743773,0.105713,-0.253394,-0.055022
1629709743783,0.088267,-0.235155,-0.049288
1629709743792,0.056119999999999996,-0.227469,-0.093879
1629709743802,0.042517,-0.226188,-0.122793
1629709743811,0.040931,-0.204777,-0.07911699999999999
1629709743821,0.023851,-0.170678,-0.011163
1629709743831,-0.049044,-0.146644,-0.049288
1629709743840,-0.226188,-0.184159,-0.302499
1629709743850,-0.5374099999999999,-0.240401,-0.9027999999999999
1629709743859,-0.6134769999999999,-0.33733,-1.400804
1629709743869,-0.524356,-0.402966,-1.372134
1629709743879,-0.48068,-0.299998,-1.055788
1629709743888,-0.460001,-0.255834,-0.694668
1629709743898,-0.606462,-0.279807,-0.803187
1629709743907,-0.682468,-0.41260399999999997,-1.0833599999999999
1629709743917,-0.590114,-0.433344,-1.217316
1629709743927,-0.83692,-0.450851,-1.350662
1629709743936,-1.054995,-0.612318,-1.653405
1629709743946,-1.00955,-0.76738,-1.780163
1629709743955,-1.018822,-0.702598,-1.686345
1629709743965,-0.888709,-0.703086,-1.488339
1629709743975,-0.7783599999999999,-0.711199,-1.29869
1629709743984,-0.7549359999999999,-0.685335,-1.17303
1629709743994,-0.772931,-0.67954,-1.134722
1629709744003,-0.780678,-0.6621549999999999,-1.128439
1629709744013,-0.750727,-0.5931029999999999,-1.073661
1629709744023,-0.6791739999999999,-0.491294,-0.947391
1629709744032,-0.593042,-0.409066,-0.801723
1629709744042,-0.481778,-0.356972,-0.631167
1629709744051,-0.37088,-0.324459,-0.461465
1629709744061,-0.292678,-0.287371,-0.342515
1629709744071,-0.187758,-0.266997,-0.237168
1629709744080,-0.118462,-0.23119,-0.125843
1629709744090,-0.077348,-0.197579,-0.037087999999999996
1629709744099,-0.05368,-0.184952,0.017324
1629709744109,-0.062708,-0.175863,0.033916
1629709744119,-0.06417199999999999,-0.168238,0.008967
1629709744128,-0.048556,-0.157319,-0.018178
1629709744138,-0.024522,-0.131272,-0.020557
1629709744147,-0.038369,-0.106262,-0.014274
1629709744157,-0.138836,-0.109434,-0.08680299999999999
1629709744167,-0.406931,-0.184647,-0.407785
1629709744176,-0.605425,-0.300852,-0.961604
1629709744186,-0.58316,-0.433771,-1.258186
1629709744195,-0.622566,-0.436211,-1.3620079999999999
1629709744205,-0.625616,-0.399611,-1.234335
1629709744215,-0.580903,-0.363011,-1.011197
1629709744224,-0.5909679999999999,-0.427244,-0.76555
1629709744234,-0.621468,-0.298473,-0.959896
1629709744243,-0.756644,-0.385764,-1.153876
1629709744253,-0.9688019999999999,-0.503372,-1.26209
1629709744263,-1.180594,-0.671793,-1.528416
1629709744272,-1.10593,-0.828685,-1.694702
1629709744282,-1.004121,-0.762012,-1.5354919999999999
1629709744291,-0.88999,-0.690032,-1.327726
1629709744301,-0.786107,-0.670695,-1.151802
1629709744311,-0.742553,-0.638243,-1.063108
1629709744320,-0.719861,-0.622322,-1.064999
1629709744330,-0.69479,-0.596092,-1.077992
1629709744339,-0.640744,-0.543266,-1.0462719999999999
1629709744349,-0.549061,-0.464576,-0.955931
1629709744359,-0.433771,-0.379847,-0.833199
1629709744368,-0.31781,-0.302133,-0.69357
1629709744378,-0.230458,-0.24479299999999998,-0.582184
1629709744387,-0.109556,-0.202337,-0.46128199999999997
1629709744397,-0.0055509999999999995,-0.176839,-0.29243399999999997
1629709744407,0.042883,-0.160247,-0.174399
1629709744416,0.061854,-0.160247,-0.14213
1629709744426,0.077958,-0.169824,-0.145546
1629709744435,0.074725,-0.17360599999999998,-0.14396
1629709744445,0.056547,-0.180072,-0.149206
1629709744455,0.040931,-0.192516,-0.145546
1629709744464,0.043188,-0.199653,-0.105103
1629709744474,0.0059169999999999995,-0.197518,-0.08942599999999999
1629709744483,-0.083997,-0.232898,-0.195261
1629709744493,-0.280478,-0.301584,-0.479887
1629709744503,-0.524661,-0.366122,-0.9493429999999999
1629709744512,-0.539911,-0.499834,-1.214998
1629709744522,-0.473482,-0.505141,-1.068903
1629709744531,-0.489708,-0.376736,-0.874069
1629709744541,-0.516365,-0.382531,-0.8296
1629709744551,-0.618906,-0.43511299999999997,-1.051884
1629709744560,-0.649223,-0.497516,-1.246352
1629709744570,-0.6353759999999999,-0.559919,-1.27246
1629709744579,-0.8544269999999999,-0.560895,-1.420324
1629709744589,-0.984418,-0.682773,-1.6969589999999999
1629709744599,-0.928542,-0.7543259999999999,-1.694885
1629709744608,-0.928542,-0.710406,-1.525183
1629709744618,-0.8550369999999999,-0.726815,-1.396168
1629709744627,-0.7777499999999999,-0.699243,-1.253916
1629709744637,-0.8139839999999999,-0.6332409999999999,-1.181082
1629709744647,-0.854061,-0.623908,-1.194014
1629709744656,-0.814045,-0.607194,-1.148752
1629709744666,-0.748409,-0.516365,-1.007537
1629709744675,-0.672952,-0.433161,-0.869738
1629709744685,-0.558272,-0.396744,-0.7281569999999999
1629709744695,-0.44121299999999997,-0.347334,-0.561993
1629709744704,-0.336415,-0.30780599999999997,-0.398574
1629709744714,-0.274927,-0.274988,-0.297497
1629709744723,-0.19367499999999999,-0.270108,-0.233142
1629709744733,-0.086315,-0.27816,-0.090219
1629709744743,-0.051179,-0.2562,0.024461
1629709744752,-0.063562,-0.229177,0.059536
1629709744762,-0.081557,-0.215086,0.026779
1629709744771,-0.10729899999999999,-0.205936,-0.042943999999999996
1629709744781,-0.091012,-0.21838,-0.087108
1629709744791,-0.069845,-0.225883,-0.047458
1629709744800,-0.097051,-0.219966,-0.02013
1629709744810,-0.163297,-0.244671,-0.09028
1629709744819,-0.368867,-0.30378,-0.343918
1629709744829,-0.695766,-0.356972,-0.981856
1629709744839,-0.623542,-0.540887,-1.268983
1629709744848,-0.68686,-0.491538,-1.28039
1629709744858,-0.6893,-0.438834,-1.167174
1629709744867,-0.64111,-0.467504,-0.952942
1629709744877,-0.6587999999999999,-0.43493,-0.880169
1629709744887,-0.746091,-0.348615,-1.113372
1629709744896,-0.772138,-0.500627,-1.279536
1629709744906,-0.868701,-0.57828,-1.161196
1629709744915,-1.078968,-0.699609,-1.372134
1629709744925,-1.05469,-0.837591,-1.536712
1629709744935,-0.992043,-0.820023,-1.416542
1629709744944,-0.9119499999999999,-0.755973,-1.231346
1629709744954,-0.841251,-0.710406,-1.0854949999999999
1629709744963,-0.803126,-0.667157,-1.02541
1629709744973,-0.784521,-0.623054,-1.0401719999999999
1629709744983,-0.746091,-0.580415,-1.065975
1629709744992,-0.676124,-0.512644,-1.036024
1629709745002,-0.585051,-0.435906,-0.929762
1629709745011,-0.482998,-0.36423099999999997,-0.813435
1629709745021,-0.37063599999999997,-0.315919,-0.690032
1629709745031,-0.26187299999999997,-0.272548,-0.576938
1629709745040,-0.116815,-0.254736,-0.405711
1629709745050,-0.039345,-0.233508,-0.25559
1629709745059,0.008662,-0.236375,-0.163053
1629709745069,0.052521,-0.250649,-0.10797
1629709745079,0.08003199999999999,-0.25498,-0.072895
1629709745088,0.092232,-0.256871,-0.051545
1629709745098,0.075396,-0.239913,-0.07259
1629709745107,0.07137,-0.21472,-0.106933
1629709745117,0.069052,-0.189283,-0.098637
1629709745127,0.021411,-0.16348,-0.11773
1629709745136,-0.126453,-0.175375,-0.301584
1629709745146,-0.310124,-0.24570799999999998,-0.658312
1629709745155,-0.452742,-0.313723,-0.9730719999999999
1629709745165,-0.509655,-0.334951,-1.16632
1629709745175,-0.469395,-0.325557,-1.099708
1629709745184,-0.521184,-0.260409,-0.910913
1629709745194,-0.626165,-0.29524,-0.881328
1629709745203,-0.698267,-0.41839899999999997,-1.0389519999999999
1629709745213,-0.730109,-0.511729,-1.122522
1629709745223,-0.805627,-0.567971,-1.18828
1629709745232,-0.955565,-0.636962,-1.514935
1629709745242,-1.087874,-0.721691,-1.725507
1629709745251,-1.04493,-0.717177,-1.734413
1629709745261,-1.001925,-0.664656,-1.563979
1629709745271,-0.916281,-0.707356,-1.512251
1629709745280,-0.854976,-0.708271,-1.345294
1629709745290,-0.865163,-0.705282,-1.245254
1629709745299,-0.88572,-0.6883239999999999,-1.21451
1629709745309,-0.885598,-0.630008,-1.112335
1629709745319,-0.8227679999999999,-0.513742,-0.932812
1629709745328,-0.681797,-0.43041599999999997,-0.7431019999999999
1629709745338,-0.545401,-0.371429,-0.581208
1629709745347,-0.419192,-0.315736,-0.404064
1629709745357,-0.335134,-0.263642,-0.266692
1629709745367,-0.242841,-0.227408,-0.175436
1629709745376,-0.121695,-0.193187,-0.043005
1629709745386,-0.031537,-0.15298799999999999,0.124013
1629709745395,-0.048312,-0.126819,0.238571
1629709745405,-0.105347,-0.14310599999999998,0.216428
1629709745415,-0.158722,-0.164212,0.090768
1629709745424,-0.15555,-0.170678,-0.04575
1629709745434,-0.120414,-0.153415,-0.113826
1629709745443,-0.107421,-0.110471,-0.098637
1629709745453,-0.141703,-0.081435,-0.112423
1629709745463,-0.274073,-0.126697,-0.236985
1629709745472,-0.579439,-0.242414,-0.7038179999999999
1629709745482,-0.6359859999999999,-0.463173,-1.230492
1629709745491,-0.5924929999999999,-0.557296,-1.365912
1629709745501,-0.6387309999999999,-0.458476,-1.27368
1629709745511,-0.654957,-0.42736599999999997,-1.048468
1629709745520,-0.6448309999999999,-0.530456,-0.7859849999999999
1629709745530,-0.468724,-0.449082,-0.753838
1629709745539,-0.8233779999999999,-0.56669,-1.240618
1629709745549,-0.79544,-0.593774,-0.8255129999999999
1629709745559,-1.206458,-0.74542,-1.189195
1629709745568,-1.173213,-1.111725,-1.326384
1629709745578,-1.16449,-1.040904,-1.250927
1629709745587,-1.125145,-0.948184,-1.094462
1629709745597,-1.00467,-0.947086,-0.983625
1629709745607,-0.898408,-0.836615,-0.846253
1629709745616,-0.804712,-0.753594,-0.788791
1629709745626,-0.7537159999999999,-0.711504,-0.800381
1629709745635,-0.749934,-0.636047,-0.841861
1629709745645,-0.686372,-0.5632739999999999,-0.844667
1629709745655,-0.582306,-0.47946,-0.796538
1629709745664,-0.470981,-0.407846,-0.6855789999999999
1629709745674,-0.351482,-0.341905,-0.578219
1629709745683,-0.224602,-0.301645,-0.429013
1629709745693,-0.112606,-0.25760299999999997,-0.29273899999999997
1629709745703,-0.032695999999999996,-0.222955,-0.181292
1629709745712,-0.00061,-0.191357,-0.099003
1629709745722,0.026352,-0.157807,-0.06801499999999999
1629709745731,0.049288,-0.141337,-0.072041
1629709745741,0.058377,-0.11870599999999999,-0.07015
1629709745751,0.028059999999999998,-0.10858,-0.097722
1629709745760,-0.014701,-0.120902,-0.136762
1629709745770,-0.084668,-0.147864,-0.20691199999999998
1629709745779,-0.191845,-0.205204,-0.349225
1629709745789,-0.401441,-0.312808,-0.5866979999999999
1629709745799,-0.547231,-0.462624,-0.909388
1629709745808,-0.547536,-0.590846,-1.05652
1629709745818,-0.527345,-0.562481,-0.999119
1629709745827,-0.51301,-0.464088,-0.815082
1629709745837,-0.600301,-0.448472,-0.791048
1629709745847,-0.719617,-0.5124,-1.036634
1629709745856,-0.758535,-0.562481,-1.180777
1629709745866,-0.870775,-0.558882,-1.253794
1629709745875,-1.009489,-0.642757,-1.445456
1629709745885,-1.020408,-0.731573,-1.663592
1629709745895,-1.029558,-0.75091,-1.60857
1629709745904,-1.00833,-0.745725,-1.45485
1629709745914,-0.930067,-0.771955,-1.379942
1629709745923,-0.927383,-0.7345619999999999,-1.2860019999999999
1629709745933,-0.905606,-0.736453,-1.192245
1629709745943,-0.839665,-0.7126629999999999,-1.084458
1629709745952,-0.791109,-0.635742,-0.946354
1629709745962,-0.697352,-0.555954,-0.789523
1629709745971,-0.579378,-0.472201,-0.623847
1629709745981,-0.46128199999999997,-0.399245,-0.461709
1629709745991,-0.357582,-0.350994,-0.32269
1629709746000,-0.26156799999999997,-0.32147,-0.201483
1629709746010,-0.188307,-0.286334,-0.113094
1629709746019,-0.10919,-0.247477,-0.004026
1629709746029,-0.060573,-0.19947,0.082899
1629709746039,-0.05185,-0.170617,0.118279
1629709746048,-0.083204,-0.145424,0.094123
1629709746058,-0.127551,-0.163053,-0.00488
1629709746067,-0.14219099999999998,-0.200507,-0.127002
1629709746077,-0.107238,-0.221186,-0.15616
1629709746087,-0.102419,-0.211304,-0.090402
1629709746096,-0.191418,-0.22386999999999999,-0.092903
1629709746106,-0.456951,-0.335317,-0.395951
1629709746115,-0.691496,-0.511607,-0.959896
1629709746125,-0.727669,-0.689117,-1.242448
1629709746135,-0.794891,-0.688202,-1.290455
1629709746144,-0.805261,-0.684115,-0.996679
1629709746154,-0.44895999999999997,-0.711016,-0.501176
1629709746163,-0.731451,-0.530761,-0.780312
1629709746173,-0.987712,-0.493185,-0.971425
1629709746183,-1.059143,-0.672647,-0.9724619999999999
1629709746192,-0.952271,-0.958615,-0.885049
1629709746202,-1.118679,-0.849059,-0.897676
1629709746211,-1.000888,-1.331203,-1.024739
1629709746221,-1.597712,-0.848693,-1.251537
1629709746231,-1.477542,-0.722301,-0.71858
1629709746240,-1.080981,-0.791109,-0.486597
1629709746250,-1.016321,-0.770308,-0.489098
1629709746259,-0.9749019999999999,-0.697169,-0.518927
1629709746269,-0.936167,-0.654164,-0.552416
1629709746279,-0.904569,-0.610549,-0.588284
1629709746288,-0.864431,-0.541558,-0.625189
1629709746298,-0.706807,-0.48861,-0.576877
1629709746307,-0.490684,-0.417301,-0.464759
1629709746317,-0.359717,-0.405406,-0.342698
1629709746327,-0.273402,-0.385886,-0.27175499999999997
1629709746336,-0.147071,-0.36667099999999997,-0.174216
1629709746346,-0.065453,-0.293227,-0.081252
1629709746355,-0.020618,-0.263215,-0.028853
1629709746365,0.018483,-0.287066,-0.015677
1629709746375,0.022326,-0.299022,-0.015738
1629709746384,-0.005246,-0.316407,-0.013725
1629709746394,-0.042638999999999996,-0.33672,-0.012017
1629709746403,-0.075152,-0.344223,-0.014213
1629709746413,-0.102968,-0.346114,-0.0055509999999999995
1629709746423,-0.20014099999999999,-0.365817,-0.035502
1629709746432,-0.47817899999999997,-0.442006,-0.301645
1629709746442,-0.7674409999999999,-0.589382,-0.746945
1629709746451,-0.890539,-0.716994,-0.9681919999999999
1629709746461,-0.82716,-0.670878,-0.907924
1629709746471,-0.717726,-0.548207,-0.65392
1629709746480,-0.710589,-0.522587,-0.582489
1629709746490,-0.827465,-0.599996,-0.760243
1629709746499,-0.917196,-0.686921,-0.918477
1629709746509,-0.944585,-0.73261,-0.919941
1629709746519,-1.159488,-0.748531,-1.007659
1629709746528,-1.343647,-0.876997,-1.312171
1629709746538,-1.311622,-0.945134,-1.310829
1629709746547,-1.2382389999999999,-0.865041,-1.105198
1629709746557,-1.152168,-0.821975,-0.987468
1629709746567,-1.066463,-0.811971,-0.9211
1629709746576,-1.0346819999999999,-0.733708,-0.891942
1629709746586,-1.0435269999999999,-0.71126,-0.921527
1629709746595,-0.992348,-0.70089,-0.907802
1629709746605,-0.8876109999999999,-0.634339,-0.798124
1629709746615,-0.77043,-0.553575,-0.650138
1629709746624,-0.641964,-0.490135,-0.490379
1629709746634,-0.518378,-0.43602799999999997,-0.336903
1629709746643,-0.410896,-0.359168,-0.22082
1629709746653,-0.332633,-0.302438,-0.126636
1629709746663,-0.24881899999999998,-0.263642,-0.05856
1629709746672,-0.144509,-0.238083,0.062647
1629709746682,-0.102541,-0.199958,0.119804
1629709746691,-0.110044,-0.205326,0.117608
1629709746701,-0.133468,-0.239791,0.08662
1629709746711,-0.13847,-0.260104,0.059902
1629709746720,-0.114192,-0.26839999999999997,0.041907
1629709746730,-0.092476,-0.255773,0.046116
1629709746739,-0.117669,-0.229909,0.041479999999999996
1629709746749,-0.163602,-0.229543,0.000305
1629709746759,-0.366488,-0.274378,-0.145729
1629709746768,-0.819901,-0.428769,-0.721081
1629709746778,-0.8799859999999999,-0.789523,-1.077992
1629709746787,-0.901763,-0.817644,-1.0294969999999999
1629709746797,-0.914146,-0.765367,-0.811727
1629709746807,-0.39253499999999997,-0.737856,-0.413763
1629709746816,-1.158268,-0.572302,-0.911157
1629709746826,-0.841495,-0.903288,-0.975878
1629709746835,-1.750944,-0.029463,-0.47397
1629709746845,-1.151985,-0.682956,-0.3416
1629709746855,-1.5814249999999999,-0.509228,-0.606584
1629709746864,-1.832806,-0.999668,-0.8224629999999999
1629709746874,-1.64517,-1.038708,-0.6691699999999999
1629709746883,-1.452105,-0.729499,-0.555771
1629709746893,-1.279353,-0.744688,-0.453596
1629709746903,-1.220183,-0.700829,-0.455121
1629709746912,-1.109468,-0.555222,-0.399916
1629709746922,-1.0395619999999999,-0.493612,-0.41443399999999997
1629709746931,-0.9907009999999999,-0.465308,-0.435052
1629709746941,-0.9362889999999999,-0.447252,-0.46128199999999997
1629709746951,-0.820389,-0.42212,-0.4453
1629709746960,-0.684176,-0.39936699999999997,-0.403881
1629709746970,-0.497211,-0.367952,-0.302438
1629709746979,-0.302194,-0.33275499999999997,-0.17263
1629709746989,-0.141947,-0.311222,-0.047640999999999996
1629709746999,-0.053863,-0.272121,0.030195
1629709747008,-0.012017,-0.255041,0.081313
1629709747018,-0.008418,-0.251381,0.106628
1629709747027,-0.0070149999999999995,-0.276574,0.105896
1629709747037,-0.032208,-0.282003,0.11083699999999999
1629709747047,-0.075884,-0.289018,0.11041
1629709747056,-0.128222,-0.30445099999999997,0.096136
1629709747066,-0.254431,-0.312442,0.027999
1629709747075,-0.490318,-0.374845,-0.157868
1629709747085,-0.774334,-0.472933,-0.426085
1629709747095,-0.951722,-0.5657139999999999,-0.651236
1629709747104,-0.954406,-0.540094,-0.667279
1629709747114,-0.8532069999999999,-0.443226,-0.528809
1629709747123,-0.7991,-0.419192,-0.380457
1629709747133,-0.977281,-0.470432,-0.493734
1629709747143,-1.136491,-0.658007,-0.65453
1629709747152,-1.202127,-0.721142,-0.700707
1629709747162,-1.3380349999999999,-0.731451,-0.7370019999999999
1629709747171,-1.563979,-0.794586,-0.951295
1629709747181,-1.628639,-0.856318,-1.06079
1629709747191,-1.473882,-0.764757,-0.821182
1629709747200,-1.296738,-0.73627,-0.728706
1629709747210,-1.238117,-0.6892389999999999,-0.60024
1629709747219,-1.3723779999999999,-0.650565,-0.553697
1629709747229,-1.542446,-0.64111,-0.748043
1629709747239,-1.431609,-0.50691,-0.606218
1629709747248,-1.27124,-0.461038,-0.47787399999999997
1629709747258,-1.039135,-0.40626,-0.340685
1629709747267,-0.842654,-0.358131,-0.274866
1629709747277,-0.699426,-0.322019,-0.203679
1629709747287,-0.543998,-0.286761,-0.101077
1629709747296,-0.388814,-0.230153,0.020618
1629709747306,-0.23241,-0.171227,0.125721
1629709747315,-0.129503,-0.076067,0.219905
1629709747325,-0.051911,-0.054778,0.288042
1629709747335,-0.022935999999999998,0.033611,0.344528
1629709747344,-0.09333,0.038186,0.274378
1629709747354,-0.220088,-0.092232,0.142008
1629709747363,-0.281881,-0.193126,0.100894
1629709747373,-0.274866,-0.227591,0.114192
1629709747383,-0.291397,-0.249612,0.128222
1629709747392,-0.46006199999999997,-0.229299,0.09759999999999999
1629709747402,-0.73749,-0.309148,-0.061
1629709747411,-1.126304,-0.519232,-0.471957
1629709747421,-1.277584,-0.685823,-0.533628
1629709747431,-1.259284,-0.541497,-0.412543
1629709747440,-0.904813,-0.385337,-0.019703
1629709747450,-1.069452,-0.486353,0.066734
1629709747459,-1.497062,-0.511302,-0.27877
1629709747469,-1.576606,-0.552416,-0.587186
1629709747479,-1.905152,-0.636352,-0.391376
1629709747488,-1.658224,-0.5641889999999999,-0.183976
1629709747498,-1.813408,-0.551135,-0.28316199999999997
1629709747507,-1.884534,-0.702537,-0.210938
1629709747517,-1.749541,-0.542717,-0.264008
1629709747527,-1.519571,-0.415105,-0.22167399999999998
1629709747536,-1.368169,-0.397049,-0.16439499999999999
1629709747546,-1.278804,-0.371307,-0.187026
1629709747555,-1.242326,-0.406138,-0.223931
1629709747565,-1.177422,-0.426207,-0.22691999999999998
1629709747575,-1.104405,-0.40180699999999997,-0.25132
1629709747584,-1.006683,-0.398696,-0.237046
1629709747594,-0.829905,-0.410957,-0.15433
1629709747603,-0.685091,-0.371002,-0.068198
1629709747613,-0.5197809999999999,-0.40199,-0.029828999999999998
1629709747623,-0.363133,-0.3599,0.088999
1629709747632,-0.21838,-0.351116,0.14396
1629709747642,-0.137738,-0.346114,0.17141
1629709747651,-0.072407,-0.36667099999999997,0.160308
1629709747661,-0.05246,-0.304085,0.22326
1629709747671,-0.044469,-0.292251,0.253394
1629709747680,-0.099735,-0.264557,0.227042
1629709747690,-0.12456199999999999,-0.269742,0.233447
1629709747699,-0.118462,-0.255102,0.241926
1629709747709,-0.14823,-0.24339,0.203984
1629709747719,-0.391986,-0.235216,0.105713
1629709747728,-0.8723,-0.37576,-0.253455
1629709747738,-1.014674,-0.633668,-0.38387299999999996
1629709747747,-0.789096,-0.575657,-0.071919
1629709747757,-0.48739,-0.354105,0.401014
1629709747767,-1.7761369999999999,-0.633363,-0.603961
1629709747776,-1.07055,-0.276757,-0.303109
1629709747786,-1.93919,-0.447374,-0.512827
1629709747795,-1.761131,-0.642513,-0.163602
1629709747805,-1.30479,-0.561688,0.244244
1629709747815,-1.7712569999999999,-0.455792,-0.18117
1629709747824,-1.84281,-0.654713,-0.081923
1629709747834,-1.998604,-0.778482,-0.438224
1629709747843,-1.72874,-0.627202,-0.185867
1629709747853,-1.605459,-0.436394,-0.286944
1629709747863,-1.465586,-0.348066,-0.039955
1629709747872,-1.508713,-0.428952,-0.027938
1629709747882,-1.288198,-0.332816,0.028182
1629709747891,-1.225063,-0.300181,-0.087596
1629709747901,-1.159,-0.288835,-0.091683
1629709747911,-1.043344,-0.287615,-0.108458
1629709747920,-0.821304,-0.195139,-0.069235
1629709747930,-0.619821,-0.134993,-0.038918
1629709747939,-0.47970399999999996,-0.07124799999999999,0.031964
1629709747949,-0.41290899999999997,-0.064904,0.057706
1629709747959,-0.279868,-0.06466,0.088389
1629709747968,-0.07991,-0.050325,0.117486
1629709747978,0.040138,0.029036,0.16226
1629709747987,0.046482,0.145058,0.257786
1629709747997,-0.055327,0.104005,0.241926
1629709748007,-0.16591999999999998,-0.065575,0.14188599999999998
1629709748016,-0.170922,-0.124806,0.131821
1629709748026,-0.214842,-0.076006,0.11870599999999999
1629709748035,-0.351177,0.078812,0.164334
1629709748045,-0.449814,0.008723,0.072163
1629709748055,-0.977708,-0.245037,-0.26779
1629709748064,-1.318027,-0.42736599999999997,-0.188917
1629709748074,-1.508591,-0.251991,-0.094184
1629709748083,-1.341756,-0.304817,-0.064416
1629709748093,-1.748504,-0.22143,-0.570045
1629709748103,-1.283135,-0.071919,-0.106201
1629709748112,-0.8744959999999999,0.01342,0.281576
1629709748122,-1.344074,-0.142252,0.03782
1629709748131,-1.7888249999999999,-0.092171,-0.12254899999999999
1629709748141,-1.21207,-0.049166,0.31055099999999997
1629709748151,-1.84281,-0.526003,-0.295728
1629709748160,-1.936628,-0.310795,-0.996008
1629709748170,-1.598261,1.402939,-1.998604
1629709748179,1.998604,-1.998604,-1.677012
1629709748189,-1.679879,-0.9450729999999999,0.9974109999999999
1629709748199,1.576911,1.321992,-0.323544
1629709748208,1.998604,0.446337,-0.987163
1629709748218,-0.96685,1.3870179999999999,-0.14701
1629709748227,0.8790709999999999,0.379176,-0.065148
1629709748237,0.762622,-0.069357,-0.043859
1629709748247,-0.472933,1.080127,-0.630374
1629709748256,-0.024399999999999998,1.2658719999999999,-0.657458
1629709748266,1.998604,1.998604,-0.06222
1629709748275,1.998604,1.998604,-0.789706
1629709748285,1.998604,1.998604,1.998604
1629709748295,-1.998604,-0.9578829999999999,-1.699948
1629709748304,1.998604,0.91561,0.19983599999999999
1629709748314,1.998604,1.289235,1.000156
1629709748323,1.189805,-0.595909,0.21154799999999999
1629709748333,-0.528748,-0.897493,0.375821
1629709748343,1.998604,-0.534238,0.845826
1629709748352,1.998604,0.314211,0.793305
1629709748362,1.4140409999999999,-0.764452,0.415288
1629709748371,0.333609,-1.998604,-1.701351
1629709748381,1.8999059999999999,-1.952915,0.053131
1629709748391,1.998604,-1.998604,0.036539
1629709748400,1.189439,-0.928481,-1.998604
1629709748410,0.222833,0.822585,-1.998604
1629709748419,1.998604,1.998604,-1.221586
1629709748429,1.998604,1.998604,-0.198006
1629709748439,0.273097,1.371585,-0.507947
1629709748448,1.275815,0.527528,-0.167811
1629709748458,1.998604,-1.125084,-1.998604
1629709748467,1.998604,-1.998604,-1.998604
1629709748477,1.998604,1.998604,-0.312442
1629709748487,-1.564589,1.172115,-1.998604
1629709748496,1.998604,0.215635,-1.998604
1629709748506,1.998604,1.998604,-1.998604
1629709748515,1.998604,-0.503494,-1.998604
1629709748525,1.998604,0.021655,-1.998604
1629709748535,1.998604,-1.998604,-0.356911
1629709748544,1.998604,-1.998604,0.208681
1629709748554,1.998604,-0.85705,-1.998604
1629709748563,-0.191601,1.194319,-1.998604
1629709748573,-0.062098,1.998604,-0.42492599999999997
1629709748583,1.998604,1.998604,-0.495869
1629709748592,0.937326,-0.786412,-1.998604
1629709748602,1.998604,-1.7241039999999999,-0.713151
1629709748611,1.199382,-1.998604,-0.7376119999999999
1629709748621,1.998604,-1.171078,-1.998604
1629709748631,0.815936,0.483242,-1.998604
1629709748640,-0.268644,1.5049919999999999,-1.256966
1629709748650,0.30597599999999997,1.059082,-0.997838
1629709748659,1.095377,-0.548634,-1.468087
1629709748669,0.623725,-1.998604,-1.118374
1629709748679,0.39161999999999997,-1.998604,-1.3273599999999999
1629709748688,1.456863,-1.096658,-1.998604
1629709748698,1.353834,0.8793759999999999,-1.3793929999999999
1629709748707,-0.013359,1.590758,-0.267851
1629709748717,-0.473787,0.243207,-0.581818
1629709748727,1.2689219999999999,-1.391593,-0.200812
1629709748736,1.998604,-1.923757,0.609451
1629709748746,1.998604,-0.962824,-0.425414
1629709748755,1.690188,0.914634,-1.595211
1629709748765,0.00061,1.998604,-0.690947
1629709748775,0.625372,1.998604,0.162809
1629709748784,1.577887,1.737951,0.180499
1629709748794,-0.18117,0.18903899999999998,-0.612196
1629709748803,-0.149755,-0.648186,-0.28426
1629709748813,-0.045871999999999996,-1.111847,-0.041602
1629709748823,-0.9064599999999999,-1.039135,-0.5915779999999999
1629709748832,-0.307684,0.410164,-0.674782
1629709748842,-0.383446,0.8568669999999999,-0.299998
1629709748851,1.510848,1.72264,0.10614
1629709748861,1.998604,1.998604,0.597983
1629709748871,1.998604,0.850035,0.283589
1629709748880,1.998604,-0.14310599999999998,0.425048
1629709748890,1.998604,-0.80825,-0.176534
1629709748899,0.286822,-1.688236,0.115229
1629709748909,1.10471,-1.469612,0.38552
1629709748919,1.429047,0.076921,0.451888
1629709748928,0.165798,0.786473,-0.05124
1629709748938,1.998604,1.998604,-1.998604
1629709748947,1.998604,-1.998604,-1.998604
1629709748957,1.998604,-1.952488,-0.384056
1629709748967,1.998604,-1.998604,-1.998604
1629709748976,-1.998604,1.998604,-1.998604
1629709748986,1.998604,-1.998604,-1.429108
1629709748995,1.998604,1.998604,-1.735511
1629709749005,-0.396256,1.998604,-1.998604
1629709749015,1.998604,-0.669963,-1.998604
1629709749024,1.998604,0.15390299999999998,1.998604
1629709749034,1.374269,-1.998604,-0.673379
1629709749043,0.7190679999999999,-1.998604,-1.998604
1629709749053,1.998604,1.998604,-1.998604
1629709749063,-0.708637,1.998604,-1.998604
1629709749072,-0.871507,1.998604,-1.560929
1629709749082,1.998604,1.998604,-1.190842
1629709749091,1.998604,-0.055449,-1.910459
1629709749101,1.998604,-1.998604,-0.07747
1629709749111,1.998604,-1.998604,-1.653039
1629709749120,0.054107,-0.9825269999999999,-1.998604
1629709749130,1.998604,1.998604,-0.7363919999999999
1629709749139,1.998604,1.998604,-0.099552
1629709749149,1.998604,1.998604,-1.998604
1629709749159,1.998604,1.998604,-1.998604
1629709749168,1.998604,0.577914,-1.998604
1629709749178,1.998604,-1.998604,-1.998604
1629709749187,1.998604,-1.998604,0.18422
1629709749197,1.998604,0.395463,-1.802794
1629709749207,-1.998604,-1.998604,-1.998604
1629709749216,0.771711,-1.998604,-1.998604
1629709749226,1.998604,0.9073749999999999,-1.998604
1629709749235,1.998604,1.998604,0.624579
1629709749245,0.48007,-1.998604,0.195444
1629709749255,1.998604,0.664961,1.276608
1629709749264,1.814323,1.44936,0.105469
1629709749274,1.998604,1.998604,1.308633
1629709749283,0.668804,-1.282586,0.224114
1629709749293,1.365607,1.998604,-1.998604
1629709749303,1.06811,0.318176,-1.998604
1629709749312,1.998604,1.635837,-1.998604
1629709749322,-1.835002,0.623298,-1.998604
1629709749331,-1.998604,1.998604,-1.998604
1629709749341,1.998604,1.998604,-1.998604
1629709749351,1.998604,-0.203252,-1.998604
1629709749360,-0.674721,-0.934215,-1.998604
1629709749370,1.998604,-0.860588,0.130418
1629709749379,1.998604,-1.998604,-1.5497049999999999
1629709749389,1.998604,1.998604,-1.998604
1629709749399,1.998604,1.998604,-0.683566
1629709749408,1.998604,1.998604,-1.998604
1629709749418,-1.457656,-1.998604,-1.998604
1629709749427,1.998604,-1.998604,0.8319179999999999
1629709749437,1.998604,1.632604,-1.998604
1629709749447,-1.74094,-1.998604,1.896673
1629709749456,0.28609,0.550159,-1.998604
1629709749466,-1.998604,-0.120536,-1.5046869999999999
1629709749475,-1.280146,0.670756,-1.819081
1629709749485,1.198772,-1.616805,-0.5891379999999999
1629709749495,1.904908,-1.998604,-0.484645
1629709749504,0.746274,-0.7296819999999999,-1.998604
1629709749514,0.946476,1.998604,-1.998604
1629709749523,0.5182559999999999,-1.554829,-1.998604
1629709749533,-0.160491,-1.097268,-0.702903
1629709749543,0.769393,-1.998604,0.43798
1629709749552,0.361242,0.277123,0.453352
1629709749562,0.752679,1.998604,-0.518439
1629709749571,-1.669448,1.998604,-1.998604
1629709749581,1.858182,-1.998604,-0.231434
1629709749591,0.39039999999999997,-1.998604,-0.45627999999999996
1629709749600,-0.554002,1.998604,-1.9357739999999999
1629709749610,0.175192,1.998604,-0.226127
1629709749619,-0.375699,0.007869,-0.424133
1629709749629,-0.098332,1.998604,-1.998604
1629709749639,0.265411,-0.39100999999999997,-1.260931
1629709749648,0.08820599999999999,-0.953064,-0.32939999999999997
1629709749658,-0.178486,1.998604,-0.981673
1629709749667,-0.244549,0.359839,-0.038064
1629709749677,0.152744,-0.217953,-0.988383
1629709749687,-0.141459,0.968985,-1.673962
1629709749696,-0.250649,0.420595,-1.02785
1629709749706,0.055754,0.684603,-0.052399
1629709749715,0.27083999999999997,-0.951539,-1.258186
1629709749725,-0.255834,-0.7169329999999999,-1.5643449999999999
1629709749735,0.167323,0.015311,-1.165344
1629709749744,0.03904,0.281759,-0.786412
1629709749754,0.002257,-0.384544,-1.279414
1629709749763,-0.062098,-0.32696,-1.484496
1629709749773,0.013847,0.345321,-0.738771
1629709749783,-0.071309,0.50691,-0.342088
1629709749792,-0.119743,0.397903,-1.089643
1629709749802,-0.140605,-0.032635,-1.213412
1629709749811,-0.08820599999999999,0.474763,-0.772382
1629709749821,-0.068991,0.5194759999999999,-0.484584
1629709749831,-0.021106,0.071065,-0.983991
1629709749840,-0.07679899999999999,-0.27083999999999997,-1.372744
1629709749850,-0.00549,0.049898,-1.028765
1629709749859,0.037942,0.047945999999999996,-0.718946
1629709749869,-6.1e-05,-0.386801,-1.346209
1629709749879,-0.00549,-0.194468,-1.275205
1629709749888,0.021411,-0.08790099999999999,-0.76921
1629709749898,-0.049227,0.185867,-0.989542
1629709749907,-0.077043,-0.014761999999999999,-1.072502
1629709749917,-0.074969,0.150182,-0.933727
1629709749927,-0.09235399999999999,0.417728,-0.760975
1629709749936,-0.08967,0.286883,-0.784033
1629709749946,-0.1037,0.158478,-1.025044
1629709749955,-0.08680299999999999,0.165249,-1.00101
1629709749965,-0.041236,0.13602999999999998,-0.794952
1629709749975,-0.021289,0.074603,-0.9624579999999999
1629709749984,-0.020862,-0.213561,-1.158268
1629709749994,-0.0044529999999999995,-0.171349,-1.179252
1629709750003,0.015799,-0.092476,-0.933361
1629709750013,0.002928,-0.046665,-1.044869
1629709750023,-0.026168999999999998,-0.20044599999999999,-1.11386
1629709750032,-0.037515,0.010126,-1.063596
1629709750042,-0.037454,0.128405,-0.8118489999999999
1629709750051,-0.072651,0.224358,-0.913353
1629709750061,-0.091012,0.10577399999999999,-1.001864
1629709750071,-0.08601,0.18934399999999998,-0.947574
1629709750080,-0.079239,0.276086,-0.823744
1629709750090,-0.061854,0.154147,-0.870958
1629709750099,-0.058743,0.019093,-1.059936
1629709750109,-0.039528,-0.021228,-1.051701
1629709750119,-0.012078,-0.011163,-0.949587
1629709750128,-0.0030499999999999998,-0.072773,-1.023946
1629709750138,-0.010858,-0.19580999999999998,-1.138199
1629709750147,-0.00976,-0.117669,-1.096841
1629709750157,-0.010187,-0.018056,-0.944036
1629709750167,-0.033672,0.038125,-0.9770369999999999
1629709750176,-0.056913,0.00976,-1.02968
1629709750186,-0.065758,0.114131,-0.974231
1629709750195,-0.06954,0.204289,-0.852353
1629709750205,-0.075457,0.205204,-0.895419
1629709750215,-0.07869,0.107055,-0.975939
1629709750224,-0.069052,0.117669,-0.981063
1629709750234,-0.047702,0.102602,-0.911523
1629709750243,-0.033489,0.029158,-0.980148
1629709750253,-0.024827,-0.09991799999999999,-1.066463
1629709750263,-0.017385,-0.090585,-1.0757349999999999
1629709750272,-0.0071979999999999995,-0.062586,-0.99857
1629709750282,-0.013786,-0.06893,-1.020408
1629709750291,-0.028243,-0.078812,-1.074393
1629709750301,-0.036539,-0.004148,-1.026264
1629709750311,-0.044591,0.079788,-0.9113399999999999
1629709750320,-0.061,0.145424,-0.935252
1629709750330,-0.072956,0.112057,-0.9821
1629709750339,-0.07381,0.110288,-0.942572
1629709750349,-0.06539199999999999,0.185562,-0.9122549999999999
1629709750359,-0.0549,0.105286,-0.9228689999999999
1629709750368,-0.05307,0.031964,-1.024007
1629709750378,-0.040626,-0.002562,-1.024434
1629709750387,-0.023363,-0.016714,-0.979233
1629709750397,-0.018605,-0.049837,-1.023031
1629709750407,-0.01769,-0.109495,-1.073661
1629709750416,-0.020984,-0.068747,-1.058228
1629709750426,-0.024583,-0.003843,-0.985333
1629709750435,-0.036722,0.01586,-0.974231
1629709750445,-0.053253,0.045384,-1.011258
1629709750455,-0.058011,0.07942199999999999,-0.964349
1629709750464,-0.063074,0.145119,-0.921588
1629709750474,-0.063989,0.134017,-0.930311
1629709750483,-0.064599,0.093025,-0.977525
1629709750493,-0.058682,0.076006,-0.97539
1629709750503,-0.044469,0.06649,-0.9539179999999999
1629709750512,-0.035868,0.012565999999999999,-0.989359
1629709750522,-0.029523999999999998,-0.050996,-1.04188
1629709750531,-0.024156,-0.055754,-1.0432219999999999
1629709750541,-0.020069,-0.043188,-1.010526
1629709750551,-0.023729,-0.038369,-1.018395
1629709750560,-0.033123,-0.034587,-1.03029
1629709750570,-0.03965,0.016958,-1.000522
1629709750579,-0.046604,0.068808,-0.952637
1629709750589,-0.056852,0.093757,-0.960567
1629709750599,-0.060511999999999996,0.081374,-0.964349
1629709750608,-0.061366,0.105835,-0.946049
1629709750618,-0.059597,0.125904,-0.957212
1629709750627,-0.050386,0.052399,-0.96502
1629709750637,-0.048434,0.031842,-1.016138
1629709750647,-0.033428,-0.0050019999999999995,-0.992043
1629709750656,-0.026657,6.1e-05,-1.009611
1629709750666,-0.028609,-0.06740499999999999,-1.018395
1629709750675,-0.028304,-0.044896,-1.044198
1629709750685,-0.02379,-0.018849,-1.011441
1629709750695,-0.032818,-6.1e-05,-0.998204
1629709750704,-0.041724,0.020739999999999998,-0.997228
1629709750714,-0.049349,0.054595,-0.986004
1629709750723,-0.056547,0.08113,-0.955382
1629709750733,-0.055754,0.09790499999999999,-0.949831
1629709750743,-0.058498999999999995,0.08881599999999999,-0.97295
1629709750752,-0.054168,0.063989,-0.97478
1629709750762,-0.048068,0.062952,-0.972645
1629709750771,-0.043005,0.034648,-0.984113
1629709750781,-0.036234,-0.008845,-1.008208
1629709750791,-0.030683,-0.028121,-1.022482
1629709750800,-0.027206,-0.025498,-1.017846
1629709750810,-0.025986,-0.027938,-1.009794
1629709750819,-0.033367,-0.017568,-1.02175
1629709750829,-0.037515,-0.002196,-1.003511
1629709750839,-0.041846,0.03599,-0.980148
1629709750848,-0.048617,0.059292,-0.971181
1629709750858,-0.053436,0.063684,-0.968558
1629709750867,-0.055632,0.08588799999999999,-0.975268
1629709750877,-0.053801999999999996,0.071675,-0.95709
1629709750887,-0.050447,0.074542,-0.9730719999999999
1629709750896,-0.04575,0.032085999999999996,-0.9822219999999999
1629709750906,-0.040199,0.019886,-1.000888
1629709750915,-0.035318999999999996,-0.004697,-0.99918
1629709750925,-0.030439,-0.0075639999999999995,-1.013637
1629709750935,-0.029158,-0.040199,-1.002413
1629709750944,-0.032513,-0.00549,-1.03029
1629709750954,-0.034221,-0.007076,-1.011502
1629709750963,-0.036539,0.004148,-0.980209
1629709750973,-0.044652,0.057096,-0.992104
1629709750983,-0.048007,0.045994,-0.981368
1629709750992,-0.052582,0.046909,-0.96685
1629709751002,-0.053924,0.092232,-0.978379
1629709751011,-0.047640999999999996,0.047030999999999996,-0.9572729999999999
1629709751021,-0.05002,0.053741,-0.9961909999999999
1629709751031,-0.043066,0.029585,-0.9900909999999999
1629709751040,-0.037942,0.012565999999999999,-0.985821
1629709751050,-0.03782,0.006954,-1.009611
1629709751059,-0.030744,-0.02867,-1.009916
1629709751069,-0.032085999999999996,-0.011529,-1.023275
1629709751079,-0.032452,-0.010553,-1.002535
1629709751088,-0.036417,0.00061,-0.995459
1629709751098,-0.043066,0.02867,-1.004426
1629709751107,-0.04392,0.031598,-0.982039
1629709751117,-0.046848,0.058316,-0.974414
1629709751127,-0.049898,0.060756,-0.9703269999999999
1629709751136,-0.051118,0.05978,-0.98088
1629709751146,-0.050203,0.049227,-0.9773419999999999
1629709751155,-0.045811,0.046543,-0.982649
1629709751165,-0.040443,0.014884,-0.981856
1629709751175,-0.039589,0.017324,-1.015955
1629709751184,-0.033062,-0.019093,-0.995825
1629709751194,-0.034159999999999996,0.0034159999999999998,-1.011502
1629709751203,-0.032574,-0.010735999999999999,-1.003084
1629709751213,-0.03538,-0.007625,-1.005036
1629709751223,-0.038674,0.021167,-1.00528
1629709751232,-0.041174999999999996,0.012139,-0.975146
1629709751242,-0.04636,0.052094,-0.9788669999999999
1629709751251,-0.050325,0.050386,-0.975146
1629709751261,-0.049044,0.060207,-0.998692
1629709751271,-0.048312,0.027327999999999998,-0.963556
1629709751280,-0.051362,0.079544,-1.004975
1629709751290,-0.035623999999999996,-0.006344,-0.947635
1629709751299,-0.04575,0.058133,-1.038525
1629709751309,-0.034953,-0.0427,-0.969534
1629709751319,-0.034343,0.032452,-1.015284
1629709751328,-0.035258,-0.010126,-1.001254
1629709751338,-0.036478,-0.019275999999999998,-1.01077
1629709751347,-0.038186,0.025436999999999998,-1.014369
1629709751357,-0.037149,0.0013419999999999999,-0.9700219999999999
1629709751367,-0.043676,0.039223,-0.992653
1629709751376,-0.04575,0.034038,-0.993202
1629709751386,-0.047945999999999996,0.039833,-0.978318
1629709751395,-0.049288,0.066917,-0.98088
1629709751405,-0.04514,0.032025,-0.9700219999999999
1629709751415,-0.046238,0.039162,-1.000583
1629709751424,-0.042334,0.017079999999999998,-0.988688
1629709751434,-0.038308,0.021228,-0.993568
1629709751443,-0.035013999999999997,-0.001769,-0.99735
1629709751453,-0.03721,-0.001037,-1.017419
1629709751463,-0.035441,-0.01098,-0.995703
1629709751472,-0.037698,0.019337,-1.001132
1629709751482,-0.03965,0.0017079999999999999,-0.989298
1629709751491,-0.042822,0.026474,-1.006439
1629709751501,-0.042943999999999996,0.023363,-0.97783
1629709751511,-0.046787,0.053314,-0.985455
1629709751520,-0.046299,0.035013999999999997,-0.975695
1629709751530,-0.048007,0.042883,-0.992958
1629709751539,-0.044591,0.03477,-0.976793
1629709751549,-0.043554,0.037332,-0.992409
1629709751559,-0.038003,0.008723,-0.9846619999999999
1629709751568,-0.040015999999999996,0.008723,-0.9980209999999999
1629709751578,-0.036782999999999996,0.011833999999999999,-1.001986
1629709751587,-0.038551999999999996,0.010187,-1.01443
1629709751597,-0.036782999999999996,-0.018178,-0.98271
1629709751607,-0.038246999999999996,0.036417,-1.00711
1629709751616,-0.039223,0.018239,-0.998692
1629709751626,-0.04331,-0.007686,-0.98088
1629709751635,-0.045628,0.05368,-1.003755
1629709751645,-0.040382,0.020313,-0.968131
1629709751655,-0.046726,0.046787,-0.998875
1629709751664,-0.04392,0.033062,-0.98515
1629709751674,-0.043432,0.025254,-0.983503
1629709751683,-0.044164,0.027267,-0.993324
1629709751693,-0.037942,0.0048189999999999995,-0.9928359999999999
1629709751703,-0.037576,0.012444,-1.006683
1629709751712,-0.036782999999999996,0.004514,-0.996374
1629709751722,-0.037637,0.0055509999999999995,-0.999729
1629709751731,-0.039772,0.003477,-1.00223
1629709751741,-0.039101,0.009211,-0.997289
1629709751751,-0.04026,0.022082,-0.993324
1629709751760,-0.041479999999999996,0.024644,-0.98698
1629709751770,-0.044347,0.031354,-0.9910059999999999
1629709751779,-0.046055,0.030927,-0.98576
1629709751789,-0.044164,0.038064,-0.984784
1629709751799,-0.042273,0.024888,-0.98088
1629709751808,-0.042943999999999996,0.029402,-0.996313
1629709751818,-0.041236,0.011773,-0.989298
1629709751827,-0.040809,0.02196,-1.001193
1629709751837,-0.037087999999999996,0.001586,-0.9925309999999999
1629709751847,-0.03782,0.007076,-1.005585
1629709751856,-0.036844,0.002989,-0.996435
1629709751866,-0.039284,0.015372,-0.996984
1629709751875,-0.039894,0.018788,-1.000217
1629709751885,-0.036722,-0.008662,-0.9612379999999999
1629709751895,-0.046176999999999996,0.064965,-1.016687
1629709751904,-0.044407999999999996,0.014029999999999999,-0.987468
1629709751914,-0.043981,0.029341,-0.983503
1629709751923,-0.044896,0.043127,-0.985943
1629709751933,-0.040077,0.019825,-0.9834419999999999
1629709751943,-0.045323,0.011407,-1.003328
1629709751952,-0.039955,0.018666,-0.991738
1629709751962,-0.035197,0.013786,-0.987163
1629709751971,-0.041907,-0.000976,-1.011868
1629709751981,-0.0366,6.1e-05,-1.008269
1629709751991,-0.037881,0.01159,-0.989237
1629709752000,-0.041479999999999996,0.025742,-0.99064
1629709752010,-0.03843,0.000244,-0.986431
1629709752019,-0.044286,0.035258,-1.018883
1629709752029,-0.04026,0.007869,-0.9681919999999999
1629709752039,-0.043371,0.051484,-0.991555
1629709752048,-0.044957,0.019154,-0.988444
1629709752058,-0.043432,0.019093,-0.997838
1629709752067,-0.042395,0.028791999999999998,-0.989054
1629709752077,-0.03843,0.017079999999999998,-0.982588
1629709752087,-0.04026,0.012565999999999999,-1.006683
1629709752096,-0.038979,-0.0018909999999999999,-1.000888
1629709752106,-0.038491,0.015127999999999999,-0.9943
1629709752115,-0.037393,0.012931999999999999,-0.9894809999999999
1629709752125,-0.040626,0.0037819999999999998,-1.002596
1629709752135,-0.040931,0.013237,-1.002352
1629709752144,-0.040992,0.021411,-0.98393
1629709752154,-0.042029,0.033062,-0.987773
1629709752163,-0.042638999999999996,0.015189,-0.9900909999999999
1629709752173,-0.043859,0.028364999999999998,-0.997777
1629709752183,-0.041907,0.024461,-0.9776469999999999
1629709752192,-0.042578,0.036417,-0.995093
1629709752202,-0.040626,-0.002013,-0.983869
1629709752211,-0.041174999999999996,0.020923,-0.999973
1629709752221,-0.038246999999999996,0.012078,-0.9907009999999999
1629709752231,-0.04087,0.026595999999999998,-1.020103
1629709752240,-0.036722,-0.028914,-0.9745969999999999
1629709752250,-0.039345,0.052032999999999996,-1.018883
1629709752259,-0.036295,-0.009271999999999999,-0.971425
1629709752269,-0.044469,0.020313,-1.01077
1629709752279,-0.041297,0.012444,-0.986553
1629709752288,-0.038918,0.025681,-0.984601
1629709752298,-0.045384,0.036722,-1.002108
1629709752307,-0.041724,0.007442,-0.9858819999999999
1629709752317,-0.04331,0.03477,-0.996069
1629709752327,-0.040931,0.014518,-0.978684
1629709752336,-0.040382,0.020435,-0.999424
1629709752346,-0.040992,0.00549,-1.001498
1629709752355,-0.038308,0.014823,-0.9995459999999999
1629709752365,-0.03843,0.006954,-0.990335
1629709752375,-0.03965,0.009516,-1.000339
1629709752384,-0.039284,0.007869,-1.000827
1629709752394,-0.038674,0.013176,-0.992348
1629709752403,-0.039710999999999996,0.018483,-0.989664
1629709752413,-0.041358,0.019337,-0.995215
1629709752423,-0.043676,0.020557,-0.994849
1629709752432,-0.041479999999999996,0.024217,-0.98393
1629709752442,-0.041724,0.026291,-0.988383
1629709752451,-0.040626,0.013237,-0.9897859999999999
1629709752461,-0.041236,0.019398,-1.000522
1629709752471,-0.039528,0.014945,-0.988322
1629709752480,-0.040199,0.014518,-0.995642
1629709752490,-0.037942,0.005978,-0.995703
1629709752499,-0.038796,0.006954,-0.999302
1629709752509,-0.03904,0.014274,-0.994178
1629709752519,-0.040015999999999996,0.012078,-0.987773
1629709752528,-0.040931,0.027267,-1.008513
1629709752538,-0.037942,-0.012139,-0.9621529999999999
1629709752547,-0.043859,0.058193999999999996,-1.005463
1629709752557,-0.045506,0.0060999999999999995,-0.994422
1629709752567,-0.03965,0.015372,-0.994788
1629709752576,-0.044347,0.028548,-0.989725
1629709752586,-0.037149,0.035197,-1.001376
1629709752595,-0.036173,-0.041479999999999996,-0.9615429999999999
1629709752605,-0.050386,0.075091,-1.047431
1629709752615,-0.030866,-0.039589,-0.944829
1629709752624,-0.04209,0.037942,-1.028399
1629709752634,-0.035868,-0.019581,-0.99308
1629709752643,-0.036661,0.009455,-1.001132
1629709752653,-0.042517,0.036051,-0.990213
1629709752663,-0.039589,0.003294,-0.9758169999999999
1629709752672,-0.041053,0.028548,-1.015101
1629709752682,-0.040382,0.000366,-0.983869
1629709752691,-0.04209,0.037515,-0.988749
1629709752701,-0.042456,0.024399999999999998,-0.989908
1629709752711,-0.041297,0.003111,-0.998875
1629709752720,-0.040931,0.014518,-0.997838
1629709752730,-0.038308,0.018117,-0.982649
1629709752739,-0.039710999999999996,0.015921,-0.99918
1629709752749,-0.040382,-0.0034159999999999998,-1.002291
1629709752759,-0.040138,0.014945,-1.001315
1629709752768,-0.037881,0.009943,-0.978196
1629709752778,-0.04026,0.020374,-1.00223
1629709752787,-0.040015999999999996,-0.003843,-0.99125
1629709752797,-0.042456,0.035013999999999997,-1.004731
1629709752807,-0.03904,0.010431,-0.971791
1629709752816,-0.041784999999999996,0.027267,-1.000644
1629709752826,-0.041479999999999996,0.009089,-0.99125
1629709752835,-0.043248999999999996,0.022509,-1.000278
1629709752845,-0.039284,0.011833999999999999,-0.97783
1629709752855,-0.039223,0.015982,-0.992958
1629709752864,-0.039833,0.0040869999999999995,-0.996313
1629709752874,-0.043248999999999996,0.026352,-1.024861
1629709752883,-0.035685,-0.025315,-0.960506
1629709752893,-0.039467,0.05246,-1.0187
1629709752903,-0.036234,-0.017506999999999998,-0.9806969999999999
1629709752912,-0.044407999999999996,0.012688,-1.00772
1629709752922,-0.04087,0.023241,-0.99186
1629709752931,-0.035075,-0.00366,-0.97112
1629709752941,-0.04514,0.038979,-1.023519
1629709752951,-0.038308,-0.006954,-0.979355
1629709752960,-0.041784999999999996,0.037698,-0.9943
1629709752970,-0.041784999999999996,0.015006,-0.985943
1629709752979,-0.038735,-0.00042699999999999997,-0.997167
1629709752989,-0.039406,0.020435,-1.007903
1629709752999,-0.037149,0.007076,-0.981429
1629709753008,-0.03965,0.020679,-0.999973
1629709753018,-0.039467,-0.004575,-0.996618
1629709753027,-0.039406,0.01342,-1.001071
1629709753037,-0.038857,0.016347999999999998,-0.987163
1629709753047,-0.038979,0.01525,-0.993019
1629709753056,-0.040504,0.0066489999999999995,-1.001986
1629709753066,-0.040565,0.012444,-0.9934459999999999
1629709753075,-0.040992,0.027511,-0.986004
1629709753085,-0.04026,0.015372,-0.98881
1629709753095,-0.040565,0.008113,-0.998509
1629709753104,-0.041236,0.016104,-0.997289
1629709753114,-0.039223,0.015433,-0.985028
1629709753123,-0.040138,0.013359,-0.995337
1629709753133,-0.039589,0.0030499999999999998,-1.0004
1629709753143,-0.038979,0.006588,-0.9946659999999999
1629709753152,-0.038674,0.018178,-0.9916159999999999
1629709753162,-0.039101,0.005795,-0.98942
1629709753171,-0.041114,0.015555,-1.007354
1629709753181,-0.040138,0.005246,-0.991372
1629709753191,-0.037332,0.006405,-0.962519
1629709753200,-0.044835,0.048799999999999996,-1.021506
1629709753210,-0.039467,-0.021228,-0.989298
1629709753219,-0.042822,0.026474,-1.001254
1629709753229,-0.039223,0.033549999999999996,-0.987712
1629709753239,-0.034709,-0.018543999999999998,-0.9694119999999999
1629709753248,-0.048494999999999996,0.033977,-1.0355969999999999
1629709753258,-0.035136,-0.011407,-0.9699
1629709753267,-0.03721,0.033794,-0.993568
1629709753277,-0.041784999999999996,-0.005124,-1.003694
1629709753287,-0.0366,-0.010431,-1.005707
1629709753296,-0.040443,0.026108,-0.994788
1629709753306,-0.04026,0.019581,-0.976854
1629709753315,-0.040199,0.000793,-0.99369
1629709753325,-0.041784999999999996,0.015127999999999999,-1.02053
1629709753335,-0.036478,-0.002928,-0.9718519999999999
1629709753344,-0.041114,0.046116,-0.994727
1629709753354,-0.041663,0.0013419999999999999,-0.993019
1629709753363,-0.040077,-0.000793,-1.006622
1629709753373,-0.039528,0.016958,-0.99125
1629709753383,-0.036844,0.01464,-0.982588
1629709753392,-0.039772,0.002013,-1.002657
1629709753402,-0.040931,0.003904,-1.010099
1629709753411,-0.037698,0.009089,-0.981551
1629709753421,-0.039589,0.025681,-0.989725
1629709753431,-0.040687,-0.002745,-0.995642
1629709753440,-0.040565,0.007137,-1.007415
1629709753450,-0.038369,0.014761999999999999,-0.982466
1629709753459,-0.040320999999999996,0.021655,-0.989237
1629709753469,-0.039955,0.0013419999999999999,-0.994483
1629709753479,-0.041663,0.014335,-1.005097
1629709753488,-0.039162,0.01098,-0.986065
1629709753498,-0.037942,0.011224,-0.981734
1629709753507,-0.039162,0.011895,-0.994483
1629709753517,-0.040809,0.00793,-1.006683
1629709753527,-0.040199,0.019093,-1.006195
1629709753536,-0.037271,-0.007076,-0.968375
1629709753546,-0.040138,0.041724,-1.016687
1629709753555,-0.037149,-0.025986,-0.981185
1629709753565,-0.04514,0.020374,-1.01077
1629709753575,-0.03782,0.0040869999999999995,-0.979416
1629709753584,-0.03721,0.010065,-0.99491
1629709753594,-0.041053,0.010431,-1.010038
1629709753603,-0.038979,0.005063,-0.987712
1629709753613,-0.041846,0.02562,-0.987163
1629709753623,-0.040626,0.009516,-0.99247
1629709753632,-0.03965,-0.0037819999999999998,-0.999302
1629709753642,-0.039101,0.019703,-1.005768
1629709753651,-0.038613,-0.0018909999999999999,-0.98088
1629709753661,-0.039162,0.01647,-1.002779
1629709753671,-0.039772,-0.006039,-0.996557
1629709753680,-0.039406,0.015677,-1.0004
1629709753690,-0.037393,0.004697,-0.979904
1629709753699,-0.040931,0.017019,-1.004548
1629709753709,-0.040992,-0.004575,-0.997167
1629709753719,-0.039345,0.01281,-0.994178
1629709753728,-0.039528,0.01464,-0.983381
1629709753738,-0.039162,0.009516,-0.9943
1629709753747,-0.040320999999999996,0.000244,-0.998509
1629709753757,-0.039467,0.017995,-0.999668
1629709753767,-0.039101,0.001281,-0.979904
1629709753776,-0.040138,0.017263,-1.006317
1629709753786,-0.037881,-0.008784,-0.991372
1629709753795,-0.038491,0.014884,-0.998692
1629709753805,-0.038979,0.007869,-0.985211
1629709753815,-0.039833,0.009333,-1.002901
1629709753824,-0.038186,-0.006161,-0.9925309999999999
1629709753834,-0.038003,0.015982,-0.9819169999999999
1629709753843,-0.041602,0.026718,-1.006073
1629709753853,-0.036234,-0.021289,-0.986858
1629709753863,-0.04514,0.027327999999999998,-1.019798
1629709753872,-0.034648,-0.002623,-0.976183
1629709753882,-0.033977,0.005795,-0.982405
1629709753891,-0.047153,0.019642,-1.019676
1629709753901,-0.037454,-0.011833999999999999,-0.980331
1629709753911,-0.037087999999999996,0.02501,-0.996313
1629709753920,-0.038796,-0.005978,-0.994544
1629709753930,-0.037637,-0.002562,-1.007415
1629709753939,-0.039101,0.01525,-0.995398
1629709753949,-0.040748,0.010187,-0.980453
1629709753959,-0.038064,0.00732,-0.995032
1629709753968,-0.040015999999999996,0.000488,-1.007598
1629709753978,-0.03843,0.004941,-0.991799
1629709753987,-0.038796,0.019947,-0.985638
1629709753997,-0.041236,0.011467999999999999,-0.997533
1629709754007,-0.03965,-0.0044529999999999995,-1.000888
1629709754016,-0.038064,0.011163,-0.996069
1629709754026,-0.03782,0.008113,-0.984601
1629709754035,-0.038308,0.007137,-1.001559
1629709754045,-0.039223,-0.004941,-1.002657
1629709754055,-0.038308,0.008845,-0.9937509999999999
1629709754064,-0.037698,0.00915,-0.9828319999999999
1629709754074,-0.040077,0.0040869999999999995,-0.998753
1629709754083,-0.040687,0.001586,-1.002535
1629709754093,-0.039406,0.010553,-0.991372
1629709754103,-0.038918,0.014579,-0.988688
1629709754112,-0.039894,-0.001403,-0.993019
1629709754122,-0.039345,0.0068319999999999995,-1.001498
1629709754131,-0.039406,0.006039,-0.9897859999999999
1629709754141,-0.036844,0.013359,-0.987956
1629709754151,-0.038491,-0.001647,-0.989542
1629709754160,-0.04087,0.004331,-1.002413
1629709754170,-0.039894,0.025315,-1.0187
1629709754179,-0.032208,-0.035502,-0.9545279999999999
1629709754189,-0.041602,0.046176999999999996,-1.016138
1629709754199,-0.040565,0.0,-0.999668
1629709754208,-0.038918,-0.022875,-0.980941
1629709754218,-0.039101,0.040382,-1.009062
1629709754227,-0.033854999999999996,-0.020007999999999998,-0.9791719999999999
1629709754237,-0.040809,0.007503,-1.014064
1629709754247,-0.038308,0.011833999999999999,-0.996679
1629709754256,-0.037698,-0.002928,-0.979416
1629709754266,-0.039710999999999996,0.016531,-1.007232
1629709754275,-0.036844,-0.018117,-0.989298
1629709754285,-0.039101,0.0183,-1.008696
1629709754295,-0.037881,-0.001098,-0.982039
1629709754304,-0.039284,0.008784,-1.002962
1629709754314,-0.038613,-0.002623,-0.9995459999999999
1629709754323,-0.038186,0.0013419999999999999,-0.991799
1629709754333,-0.038674,0.015189,-0.994483
1629709754343,-0.038064,-0.003965,-0.9907009999999999
1629709754352,-0.040138,0.0075639999999999995,-1.00711
1629709754362,-0.038979,0.0017079999999999999,-0.990579
1629709754371,-0.037515,0.011346,-0.990152
1629709754381,-0.037881,0.001037,-0.9943
1629709754391,-0.040015999999999996,-0.002379,-0.9995459999999999
1629709754400,-0.038613,0.007625,-0.995337
1629709754410,-0.037759,0.0042699999999999995,-0.989603
1629709754419,-0.038491,0.006344,-0.998692
1629709754429,-0.039162,-0.004941,-0.997472
1629709754439,-0.03782,0.010431,-0.996435
1629709754448,-0.03721,-0.001403,-0.985943
1629709754458,-0.039101,0.009271999999999999,-1.003694
1629709754467,-0.037332,-0.009271999999999999,-0.987346
1629709754477,-0.040015999999999996,0.028304,-1.012234
1629709754487,-0.034159999999999996,-0.033306,-0.940986
1629709754496,-0.045018,0.060024,-1.0407819999999999
1629709754506,-0.040626,-0.038369,-0.980819
1629709754515,-0.039284,0.033184,-1.027728
1629709754525,-0.029402,-0.036539,-0.938607
1629709754535,-0.043859,0.068259,-1.054568
1629709754544,-0.037027,-0.08662,-0.956236
1629709754554,-0.041602,0.043798,-1.017419
1629709754563,-0.033977,0.012261,-0.974353
1629709754573,-0.037637,-0.020984,-0.9998509999999999
1629709754583,-0.040199,0.014152,-1.02968
1629709754592,-0.034709,-0.017202,-0.9699
1629709754602,-0.04026,0.027877,-0.9931409999999999
1629709754611,-0.037271,-0.011041,-0.992043
1629709754621,-0.039284,0.002745,-1.015772
1629709754631,-0.038918,0.0023179999999999997,-0.9858819999999999
1629709754640,-0.036722,0.009028,-0.9822219999999999
1629709754650,-0.040199,0.005246,-1.006378
1629709754659,-0.039894,-0.009516,-1.003206
1629709754669,-0.037454,0.011041,-0.989237
1629709754679,-0.036234,0.003965,-0.980575
1629709754688,-0.038125,-0.000366,-1.010953
1629709754698,-0.038857,-0.015493999999999999,-1.001742
1629709754707,-0.037515,0.01647,-0.993812
1629709754717,-0.036234,-0.0013419999999999999,-0.9749019999999999
1629709754727,-0.040077,0.0030499999999999998,-1.01443
1629709754736,-0.03782,-0.015921,-0.995398
1629709754746,-0.038064,0.014823,-0.9910059999999999
1629709754755,-0.037759,0.009455,-0.985638
1629709754765,-0.038674,-0.010248,-0.998814
1629709754775,-0.038491,0.00915,-1.010282
1629709754784,-0.035746,-0.009089,-0.974475
1629709754794,-0.038125,0.016165,-0.985394
1629709754803,-0.040626,-0.005307,-1.003755
1629709754813,-0.039894,0.000122,-1.022543
1629709754823,-0.033733,-0.021777,-0.968558
1629709754832,-0.03721,0.029341,-1.003389
1629709754842,-0.036356,-0.027816,-0.98393
1629709754851,-0.04331,0.014091,-1.025044
1629709754861,-0.036112,-0.018117,-0.96746
1629709754871,-0.037454,0.030927,-0.998387
1629709754880,-0.039772,-0.013297999999999999,-1.001986
1629709754890,-0.038003,-0.00915,-1.005585
1629709754899,-0.038551999999999996,0.018117,-0.989054
1629709754909,-0.038613,-0.000122,-0.981063
1629709754919,-0.039162,-0.0051849999999999995,-1.005158
1629709754928,-0.036722,-0.0062829999999999995,-1.004792
1629709754938,-0.037881,0.0050019999999999995,-0.988383
1629709754947,-0.038003,0.005795,-0.990884
1629709754957,-0.038551999999999996,-0.01281,-1.001925
1629709754967,-0.039467,0.000915,-1.009855
1629709754976,-0.036722,-0.004026,-0.979599
1629709754986,-0.038186,0.010126,-0.997594
1629709754995,-0.037393,-0.015555,-1.000461
1629709755005,-0.039528,-0.00122,-1.004182
1629709755015,-0.037087999999999996,0.006344,-0.982283
1629709755024,-0.036234,0.008967,-0.989664
1629709755034,-0.039284,-0.01159,-0.99979
1629709755043,-0.038551999999999996,0.001098,-1.004792
1629709755053,-0.035623999999999996,0.000549,-0.980026
1629709755063,-0.037393,0.010369999999999999,-0.999302
1629709755072,-0.037576,-0.019764,-0.993995
1629709755082,-0.039589,0.00549,-1.008208
1629709755091,-0.035929,-0.005246,-0.979416
1629709755101,-0.037271,0.004148,-0.9971059999999999
1629709755111,-0.037087999999999996,-0.011224,-0.9974109999999999
1629709755120,-0.039284,0.000976,-1.006134
1629709755130,-0.035563,-0.004148,-0.973133
1629709755139,-0.036782999999999996,0.0011589999999999999,-0.971974
1629709755149,-0.045323,0.02013,-1.0371219999999999
1629709755159,-0.034221,-0.040077,-0.980209
1629709755168,-0.039833,0.03599,-1.008391
1629709755178,-0.032695999999999996,-0.016165,-0.964288
1629709755187,-0.038064,-0.001098,-1.017297
1629709755197,-0.041479999999999996,-0.012993,-1.013027
1629709755207,-0.030683,-0.018117,-0.96746
1629709755216,-0.035013999999999997,0.026168999999999998,-1.003938
1629709755226,-0.037271,-0.037393,-0.996862
1629709755235,-0.039101,0.0028669999999999998,-1.019432
1629709755245,-0.036782999999999996,-0.000793,-0.9764269999999999
1629709755255,-0.038918,0.003477,-0.987041
1629709755264,-0.036844,-0.009089,-1.007903
1629709755274,-0.038064,-0.010675,-1.003694
1629709755283,-0.036478,0.012505,-0.984479
1629709755293,-0.037942,0.005124,-0.9867969999999999
1629709755303,-0.039223,-0.00976,-1.011197
1629709755312,-0.037942,-0.016287,-0.999668
1629709755322,-0.036417,0.009516,-0.988993
1629709755331,-0.035075,-0.00549,-0.988261
1629709755341,-0.037637,-0.014579,-1.012905
1629709755351,-0.037332,-0.015738,-0.9995459999999999
1629709755360,-0.034648,0.004697,-0.985028
1629709755370,-0.035685,-0.001037,-0.989664
1629709755379,-0.038186,-0.015616,-1.0065
1629709755389,-0.037454,-0.0042699999999999995,-1.0004
1629709755399,-0.035746,0.003111,-0.9791719999999999
1629709755408,-0.037942,0.005673,-0.992287
1629709755418,-0.038491,-0.01342,-1.001559
1629709755427,-0.037454,-0.000793,-1.001437
1629709755437,-0.036722,-0.002989,-0.98515
1629709755447,-0.034343,-0.0048189999999999995,-0.98881
1629709755456,-0.036782999999999996,-0.013176,-0.999729
1629709755466,-0.036722,-0.0060999999999999995,-1.006988
1629709755475,-0.035502,-0.0066489999999999995,-0.9934459999999999
1629709755485,-0.037027,-0.008357,-0.990274
1629709755495,-0.035807,0.00366,-1.006134
1629709755504,-0.035197,-0.017751,-0.992104
1629709755514,-0.040504,-0.002074,-0.9974109999999999
1629709755523,-0.036661,-0.003843,-0.988566
1629709755533,-0.035563,-0.003538,-0.999363
1629709755543,-0.03721,-0.011346,-0.993568
1629709755552,-0.037332,0.014579,-0.9974109999999999
1629709755562,-0.040565,-0.000366,-0.990335
1629709755571,-0.037332,-0.010309,-0.997472
1629709755581,-0.035013999999999997,-0.017934,-0.993629
1629709755591,-0.03477,0.0026839999999999998,-1.004548
1629709755600,-0.034526,-0.022265,-0.98881
1629709755610,-0.036173,-0.002013,-1.008147
1629709755619,-0.036905,-0.020191,-0.995642
1629709755629,-0.035563,-0.008113,-0.995947
1629709755639,-0.035197,-0.008601,-0.995093
1629709755648,-0.035929,-0.014761999999999999,-0.998265
1629709755658,-0.036782999999999996,-0.008235,-1.000278
1629709755667,-0.036173,-0.0050019999999999995,-0.991555
1629709755677,-0.036844,-0.003111,-0.991738
1629709755687,-0.035929,-0.008173999999999999,-0.995764
1629709755696,-0.036722,-0.008784,-0.998082
1629709755706,-0.036051,-0.002928,-0.9940559999999999
1629709755715,-0.036844,-0.010858,-0.990213
1629709755725,-0.036539,-0.0050019999999999995,-1.003206
1629709755735,-0.035258,-0.020739999999999998,-0.99308
1629709755744,-0.035502,-0.001403,-1.001437
1629709755754,-0.034892,-0.018239,-0.987895
1629709755763,-0.036782999999999996,-0.003294,-1.008208
1629709755773,-0.036112,-0.024644,-0.989664
1629709755783,-0.035868,0.0066489999999999995,-0.9989359999999999
1629709755792,-0.035502,-0.016042999999999998,-0.976549
1629709755802,-0.039589,0.000305,-1.013942
1629709755811,-0.036051,-0.015982,-1.000034
1629709755821,-0.036782999999999996,-0.004758,-0.988444
1629709755831,-0.035563,0.005246,-0.99247
1629709755840,-0.035685,-0.01769,-0.998692
1629709755850,-0.039528,-0.019642,-1.001193
1629709755859,-0.033854999999999996,-0.002623,-0.9888709999999999
1629709755869,-0.033733,-0.0068319999999999995,-0.995032
1629709755879,-0.037637,-0.031537,-1.005646
1629709755888,-0.034587,-0.005673,-1.009794
1629709755898,-0.03599,-0.015921,-0.977769
1629709755907,-0.037942,0.0053679999999999995,-0.996435
1629709755917,-0.035441,-0.021716,-1.00101
1629709755927,-0.035258,-0.010553,-1.003389
1629709755936,-0.034892,0.0,-0.984784
1629709755946,-0.033306,-0.005307,-0.988444
1629709755955,0.044469,0.450729,-1.388299
1629709755965,-0.124135,-0.49105,-1.203408
1629709755975,0.032818,0.302621,-0.244305
1629709755984,0.066917,-0.744871,-1.165039
1629709755994,-0.024461,-1.3617029999999999,-0.561383
1629709756003,-0.05856,0.919087,0.306525
1629709756013,0.058926,-0.8480219999999999,-1.998604
1629709756023,-0.006405,-0.758474,-0.789279
1629709756032,-0.109678,0.237229,-1.084824
1629709756042,-0.004209,-1.203469,-1.034621
1629709756051,-0.024766,0.035868,-0.483059
1629709756061,-0.06283,-0.33611,-0.967704
1629709756071,-0.027694,-0.568703,-1.044625
1629709756080,-0.028487,-0.180804,-0.851865
1629709756090,-0.00183,-0.669719,-0.975329
1629709756099,-0.044102999999999996,-0.115534,-0.761219
1629709756109,0.001098,-0.220088,-0.9977159999999999
1629709756119,-0.08601,-0.387838,-1.619489
1629709756128,-0.017324,-0.006405,-1.16632
1629709756138,0.004026,0.043066,-0.29212899999999997
1629709756147,-0.108153,0.64294,-0.292495
1629709756157,0.059047999999999996,-1.808711,-1.6729859999999999
1629709756167,-0.061671,0.124318,-0.497516
1629709756176,-0.028426,-0.154635,-1.061583
1629709756186,-0.063806,-0.366915,-1.349015
1629709756195,-0.032208,0.0068319999999999995,-0.964044
1629709756205,-0.022082,-0.306647,-0.773907
1629709756215,0.002928,-0.549183,-1.044869
1629709756224,-0.022143,-0.450424,-0.804651
1629709756234,-0.009821,-0.507398,-0.820389
1629709756243,-0.008052,-0.463905,-0.824415
1629709756253,-0.014701,-0.42212,-0.884012
1629709756263,-0.019825,-0.300425,-0.967338
1629709756272,-0.003965,-0.43224599999999996,-0.9831369999999999
1629709756282,-0.013725,-0.292861,-0.954589
1629709756291,-0.015189,-0.27572,-0.9572729999999999
1629709756301,-0.009089,-0.384605,-0.9758169999999999
1629709756311,-0.006954,-0.353922,-0.882304
1629709756320,-0.017629,-0.376431,-0.894016
1629709756330,0.011224,-0.307013,-0.883707
1629709756339,0.002013,-0.291092,-1.0857999999999999
1629709756349,0.020557,-0.217892,-1.2425089999999999
1629709756359,-0.024278,-0.299327,-1.241411
1629709756368,0.015555,-0.211914,-1.138992
1629709756378,-0.263032,0.530456,-1.333948
1629709756387,0.066124,0.488,-0.338245
1629709756397,-0.146888,0.939339,-0.437431
1629709756407,0.030378,0.423218,0.213134
1629709756416,-0.35868,0.806542,0.35251899999999997
1629709756426,0.116754,0.853451,-0.212402
1629709756435,0.270108,0.390339,-0.649284
1629709756445,0.39436499999999997,0.050996,-1.998604
1629709756455,0.10498099999999999,1.116178,-0.14713199999999999
1629709756464,0.21167,-1.789862,-1.730082
1629709756474,-0.16036899999999998,0.0055509999999999995,-0.982771
1629709756483,0.38387299999999996,-0.156526,-0.922442
1629709756493,0.578768,0.118645,-0.9867969999999999
1629709756503,1.14558,0.171715,-0.948794
1629709756512,1.70861,0.222528,-0.380152
1629709756522,0.394914,-0.07155299999999999,-0.34099
1629709756531,1.998604,0.254309,0.306037
1629709756541,1.998604,0.495564,-0.034953
1629709756551,1.998604,0.804102,0.09497699999999999
1629709756560,1.811151,0.36112,-0.174948
1629709756570,1.998604,0.883158,0.170922
1629709756579,1.998604,1.195844,0.064416
1629709756589,1.998604,0.936106,-0.215269
1629709756599,1.998604,0.532652,-0.086376
1629709756608,1.998604,0.142008,-0.016226
1629709756618,1.998604,-0.205204,-0.087596
1629709756627,1.694153,-0.098454,-0.170434
1629709756637,1.7688169999999999,0.5483899999999999,-0.090829
1629709756647,1.568127,0.768783,-0.184952
1629709756656,0.651236,0.39955,-0.501603
1629709756666,0.747189,-0.027206,-0.544242
1629709756675,1.748321,-0.340258,-0.09698999999999999
1629709756685,0.707722,-0.676124,-0.27053499999999997
1629709756695,0.6198819999999999,-0.624701,-0.251137
1629709756704,1.485533,-0.02562,-0.098881
1629709756714,1.341268,0.34953,0.009821
1629709756723,1.46888,0.469822,0.09235399999999999
1629709756733,1.872456,0.303475,0.198006
1629709756743,1.986953,-0.024888,0.265106
1629709756752,1.998604,-0.12956399999999998,0.307562
1629709756762,1.998604,0.226066,0.288042
1629709756771,1.998604,0.661606,0.263032
1629709756781,1.744478,0.824964,0.195566
1629709756791,1.815238,0.5361899999999999,0.261934
1629709756800,1.746979,0.311893,0.33989199999999997
1629709756810,1.401963,0.210572,0.397476
1629709756819,1.347551,0.483364,0.407175
1629709756829,1.2336639999999999,0.745908,0.40424699999999997
1629709756839,1.317112,0.604205,0.44029799999999997
1629709756848,1.490474,0.248392,0.459208
1629709756858,1.731485,-0.07710399999999999,0.477081
1629709756867,1.68177,-0.284138,0.44652
1629709756877,1.7146489999999999,-0.108946,0.435601
1629709756887,1.493402,0.058133,0.50569
1629709756896,1.451922,0.042029,0.6886289999999999
1629709756906,1.546716,-0.161589,0.85949
1629709756915,1.611254,-0.340136,0.937448
1629709756925,1.799683,-0.153964,0.80215
1629709756935,1.8615979999999999,0.001403,0.41138399999999997
1629709756944,1.523963,-0.145363,0.08912099999999999
1629709756954,1.65981,-0.414495,0.061732
1629709756963,1.590758,-0.495869,0.095404
1629709756973,1.486326,-0.347822,0.081984
1629709756983,1.394094,0.143411,-0.025559
1629709756992,1.358043,0.739015,-0.068625
1629709757002,0.895602,0.885903,-0.121268
1629709757011,0.794037,0.701622,-0.08601
1629709757021,0.737795,0.424438,-0.019032
1629709757031,0.633424,0.233813,0.05124
1629709757040,0.7783599999999999,0.129686,0.059475
1629709757050,0.326655,0.354166,-0.131699
1629709757059,0.61671,0.86193,-0.080703
1629709757069,0.70577,0.765123,0.073322
1629709757079,0.776286,0.445849,0.09516
1629709757088,0.548695,0.245647,0.052032999999999996
1629709757098,0.8258179999999999,0.207278,0.211426
1629709757107,0.645624,0.392413,0.22228399999999998
1629709757117,0.6159169999999999,0.505202,0.167994
1629709757127,1.110871,0.561505,0.22691999999999998
1629709757136,1.060729,0.21045,0.297741
1629709757146,1.162904,0.26291,0.309209
1629709757155,1.14802,0.186233,0.30317
1629709757165,1.041514,0.028609,0.29219
1629709757175,1.053531,-0.519537,0.433283
1629709757184,0.904142,-0.466223,0.360144
1629709757194,0.927566,-0.34477199999999997,0.358741
1629709757203,0.932873,-0.044102999999999996,0.42639
1629709757213,0.84668,0.231495,0.53131
1629709757223,0.83875,0.209474,0.556869
1629709757232,0.806115,-0.113399,0.529419
1629709757242,0.967338,-0.174155,0.517768
1629709757251,0.901031,-0.115229,0.463478
1629709757261,0.947269,0.062647,0.43066
1629709757271,0.974719,0.25912799999999997,0.402905
1629709757280,0.983808,0.28163699999999997,0.382714
1629709757290,1.02785,0.27419499999999997,0.36941599999999997
1629709757299,1.007781,0.335744,0.332572
1629709757309,1.003145,0.43968799999999997,0.277428
1629709757319,0.934642,0.41907,0.220088
1629709757328,1.058899,0.274378,0.229116
1629709757338,0.909388,0.384239,0.140849
1629709757347,0.768356,0.14005599999999999,0.119682
1629709757357,0.897859,0.254858,0.080276
1629709757367,0.836249,0.318359,0.035868
1629709757376,0.736636,0.415532,0.0068319999999999995
1629709757386,0.68198,-0.022326,0.134261
1629709757395,0.706075,-0.157197,0.186172
1629709757405,0.639219,-0.235643,0.162016
1629709757415,0.5879179999999999,-0.22600499999999998,0.122915
1629709757424,0.603473,-0.30744,0.147315
1629709757434,0.502701,-0.348554,0.141764
1629709757443,0.431514,-0.38003,0.131089
1629709757453,0.450302,-0.313784,0.131089
1629709757463,0.572851,-0.216306,0.176961
1629709757472,0.68381,0.000366,0.199104
1629709757482,0.71248,0.260714,0.192516
1629709757491,0.723399,0.331901,0.258457
1629709757501,0.599386,0.23338599999999998,0.34111199999999997
1629709757511,0.844911,0.306647,0.339953
1629709757520,0.760914,0.126514,0.290299
1629709757530,1.262151,0.151036,0.390583
1629709757539,1.289113,0.36478,0.451278
1629709757549,1.21512,0.55693,0.40626
1629709757559,1.40849,0.708942,0.438285
1629709757568,1.253977,0.555161,0.46189199999999997
1629709757578,1.214937,0.38552,0.52643
1629709757587,1.188524,0.352763,0.55754
1629709757597,1.162538,0.494954,0.535214
1629709757607,1.106418,0.633668,0.502457
1629709757616,1.141737,0.668194,0.502152
1629709757626,1.131794,0.362645,0.538142
1629709757635,1.120082,0.228018,0.505751
1629709757645,1.299605,0.355386,0.447496
1629709757655,1.245254,0.458964,0.367708
1629709757664,1.210423,0.29097,0.372344
1629709757674,1.1241079999999999,0.089365,0.384788
1629709757683,1.053775,-0.043554,0.368257
1629709757693,0.8963949999999999,-0.119865,0.339526
1629709757703,0.818376,-0.04087,0.340319
1629709757712,0.806481,0.07063799999999999,0.34355199999999997
1629709757722,0.723155,0.004941,0.286029
1629709757731,0.549976,-0.262971,0.266448
1629709757741,0.778726,-0.243451,0.292861
1629709757751,0.6621549999999999,-0.215696,0.212097
1629709757760,0.7573759999999999,-0.064416,0.18544
1629709757770,0.901824,0.097234,0.236436
1629709757779,0.923723,0.230153,0.239486
1629709757789,0.924272,0.420046,0.178974
1629709757799,0.989969,0.313296,0.215574
1629709757808,1.005768,0.312503,0.24888
1629709757818,1.0255319999999999,0.283345,0.286395
1629709757827,0.862174,0.292495,0.284565
1629709757837,0.998753,0.615185,0.294996
1629709757847,0.864736,0.633485,0.30134
1629709757856,0.907009,0.557967,0.340258
1629709757866,1.082323,0.441945,0.366
1629709757875,1.156804,0.341478,0.35807
1629709757885,1.137894,0.423889,0.317139
1629709757895,1.123071,0.618174,0.310917
1629709757904,1.037366,0.697108,0.329766
1629709757914,0.8532069999999999,0.527833,0.34050199999999997
1629709757923,0.870897,0.47092,0.350323
1629709757933,0.714737,0.467138,0.30744
1629709757943,0.946171,0.127795,0.406504
1629709757952,0.835944,-0.073444,0.36667099999999997
1629709757962,0.894626,0.263581,0.262605
1629709757971,0.881084,0.489525,0.261995
1629709757981,0.890051,0.431758,0.339343
1629709757991,0.890661,0.111447,0.41175
1629709758000,0.8970049999999999,-0.031049,0.398635
1629709758010,0.8735809999999999,-0.037149,0.357765
1629709758019,0.8303929999999999,-0.053253,0.36819599999999997
1629709758029,0.75091,0.010919,0.389729
1629709758039,0.736758,0.152195,0.373442
1629709758048,0.771711,0.211731,0.312991
1629709758058,0.723826,0.129076,0.25668799999999997
1629709758067,0.81618,0.056242,0.270718
1629709758077,0.953552,0.131699,0.251259
1629709758087,0.958859,0.162748,0.193126
1629709758096,1.025654,0.093879,0.218746
1629709758106,1.010953,0.183122,0.250527
1629709758115,0.956724,0.44347,0.232654
1629709758125,0.905301,0.588345,0.20618
1629709758135,0.994788,0.600789,0.186477
1629709758144,1.048712,0.390461,0.21459799999999998
1629709758154,0.988444,0.230824,0.25729799999999997
1629709758163,0.921466,0.267546,0.25681
1629709758173,0.904874,0.458537,0.212585
1629709758183,0.908717,0.630435,0.18788
1629709758192,0.889014,0.63745,0.201605
1629709758202,0.869738,0.47519,0.235277
1629709758211,0.869067,0.239669,0.251625
1629709758221,1.107394,0.300852,0.256871
1629709758231,0.981124,0.413946,0.221857
1629709758240,0.9009699999999999,0.549488,0.22539499999999998
1629709758250,1.00406,0.675819,0.246196
1629709758259,1.096902,0.480375,0.278526
1629709758269,1.02541,0.092171,0.304634
1629709758279,1.064206,-0.23430099999999998,0.3538
1629709758288,1.013698,-0.177754,0.31903
1629709758298,0.95038,0.272487,0.287798
1629709758307,0.879193,0.605547,0.34385699999999997
1629709758317,0.827831,0.417362,0.392962
1629709758327,0.88328,-0.043981,0.424133
1629709758336,1.043161,-0.202703,0.43572299999999997
1629709758346,1.156804,0.055022,0.382104
1629709758355,1.17364,0.311588,0.349896
1629709758365,1.1430179999999999,0.452681,0.327509
1629709758375,1.200907,0.427183,0.304512
1629709758384,1.273985,0.30719599999999997,0.283589
1629709758394,1.327482,0.21429299999999998,0.29463
1629709758403,1.2394589999999999,0.212646,0.305183
1629709758413,1.190232,0.462929,0.284748
1629709758423,1.146861,0.649894,0.241926
1629709758432,1.052006,0.596092,0.242231
1629709758442,1.004182,0.598044,0.239608
1629709758451,1.060363,0.475007,0.268217
1629709758461,0.8994449999999999,0.301645,0.25864
1629709758471,0.973926,0.349286,0.229055
1629709758480,0.812276,0.46665,0.181109
1629709758490,0.794281,0.6627649999999999,0.188185
1629709758499,1.612535,0.714676,0.131028
1629709758509,0.913658,-0.117486,-0.005795
1629709758519,1.192245,-0.30994099999999997,0.041236
1629709758528,0.507764,-0.527162,-0.086315
1629709758538,0.831735,-0.508862,0.05978
1629709758547,0.908046,-0.067588,-0.031842
1629709758557,0.754997,0.08003199999999999,-0.13541999999999998
1629709758567,1.159,-0.036051,-0.02013
1629709758576,1.091168,-0.298961,0.07326099999999999
1629709758586,1.3653629999999999,-0.28468699999999997,0.177571
1629709758595,1.309914,0.232349,0.12986899999999998
1629709758605,1.12728,0.312991,0.157502
1629709758615,1.346209,0.367952,0.253028
1629709758624,1.541714,0.28133199999999997,0.355386
1629709758634,1.003206,-0.01891,0.369904
1629709758643,0.9481229999999999,-0.053009,0.475556
1629709758653,0.933361,-0.0064659999999999995,0.51057
1629709758663,0.848876,0.243085,0.479887
1629709758672,0.8885259999999999,0.529236,0.450363
1629709758682,0.917196,0.29792399999999997,0.403759
1629709758691,0.98088,-0.024766,0.375394
1629709758701,1.014186,-0.14835199999999998,0.312564
1629709758711,1.063352,-0.167994,0.246257
1629709758720,1.569896,0.051301,0.290177
1629709758730,0.451461,-0.10248,0.078934
1629709758739,1.491877,0.939888,0.151646
1629709758749,0.92293,0.435235,0.149572
1629709758759,1.322541,-0.180316,0.35190899999999997
1629709758768,1.142042,-0.36911099999999997,0.387411
1629709758778,1.237507,0.367342,0.283528
1629709758787,1.1222779999999999,-0.217953,-1.8515329999999999
1629709758797,1.660298,0.691618,0.171288
1629709758807,0.17702199999999998,0.21289,0.44956999999999997
1629709758816,1.4852889999999999,-0.327448,0.841983
1629709758826,0.7515809999999999,0.578402,-0.662338
1629709758835,1.212131,0.03843,0.67771
1629709758845,1.13338,0.303475,0.052643
1629709758855,1.1308179999999999,-0.405589,-0.0055509999999999995
1629709758864,1.3598729999999999,-1.998604,0.084546
1629709758874,1.322907,0.719922,0.048434
1629709758883,0.832284,1.998604,0.046116
1629709758893,1.3891529999999999,1.63419,0.12627
1629709758903,1.142286,-1.34749,-0.17324
1629709758912,1.187548,-1.585634,-0.154025
1629709758922,1.37372,-0.09265899999999999,0.31055099999999997
1629709758931,0.538874,1.998604,0.024399999999999998
1629709758941,0.947025,1.688846,0.085522
1629709758951,1.187792,-1.438746,0.032147
1629709758960,0.748592,-0.782264,0.069113
1629709758970,0.63867,0.168665,0.17751
1629709758979,0.693631,1.0922049999999999,0.181719
1629709758989,0.678137,0.839665,0.301645
1629709758999,0.812886,-0.13480999999999999,0.505446
1629709759008,0.723155,-0.434381,0.570838
1629709759018,0.6101219999999999,0.5158159999999999,0.46768699999999996
1629709759027,0.5213059999999999,0.839055,0.53436
1629709759037,0.621468,0.121146,0.69845
1629709759047,0.752618,-0.265777,0.782813
1629709759056,0.810568,0.34477199999999997,0.699304
1629709759066,0.8608319999999999,0.900177,0.667584
1629709759075,0.868152,0.665632,0.685396
1629709759085,0.98454,0.252479,0.739625
1629709759095,1.006195,0.343918,0.714432
1629709759104,0.9307989999999999,0.729499,0.606035
1629709759114,0.9092049999999999,0.859978,0.540643
1629709759123,0.8997499999999999,0.546133,0.567483
1629709759133,0.880047,0.222772,0.630862
1629709759143,0.835517,0.198189,0.631594
1629709759152,0.842959,0.244549,0.63379
1629709759162,0.80947,0.096441,0.690581
1629709759171,0.811666,0.108397,0.735904
1629709759181,0.755302,0.196847,0.769088
1629709759191,0.786717,0.328851,0.799466
1629709759200,0.706624,0.215391,0.836554
1629709759210,0.6904589999999999,0.136396,0.866688
1629709759219,0.677466,0.254675,0.851255
1629709759229,0.657214,0.467565,0.8033089999999999
1629709759239,0.6402559999999999,0.435296,0.792329
1629709759248,0.655079,0.29761899999999997,0.793488
1629709759258,0.691252,0.48531599999999997,0.735111
1629709759267,0.467565,0.556381,0.665998
1629709759277,0.765794,0.447862,0.68564
1629709759287,0.5617489999999999,0.182512,0.6344609999999999
1629709759296,0.533445,0.077287,0.604083
1629709759306,0.364048,0.426817,0.439444
1629709759315,0.25376,0.505812,0.333304
1629709759325,0.337391,0.475312,0.256749
1629709759335,0.379847,0.262788,0.244061
1629709759344,0.557723,0.10931199999999999,0.334402
1629709759354,0.60085,-0.6892389999999999,0.629032
1629709759363,0.442494,0.373442,0.489708
1629709759373,0.550525,0.923296,0.6527
1629709759383,0.687226,0.103029,0.979904
1629709759392,0.737185,0.058316,1.050786
1629709759402,0.665022,0.798002,0.965081
1629709759411,0.946476,0.7284619999999999,1.012722
1629709759421,1.167784,0.429867,1.054568
1629709759431,0.7099179999999999,0.312137,1.018883
1629709759440,0.538569,0.740601,0.915732
1629709759450,0.18842899999999999,0.5246,0.838384
1629709759459,0.298046,0.19086899999999998,0.8480219999999999
1629709759469,0.352885,0.046176999999999996,0.851316
1629709759479,0.488732,0.379115,0.812947
1629709759488,0.5377149999999999,0.575901,0.8084939999999999
1629709759498,0.582855,0.320616,0.8620519999999999
1629709759507,0.559004,0.0793,0.891881
1629709759517,0.49855299999999997,0.234911,0.860039
1629709759527,0.448838,0.36941599999999997,0.8343579999999999
1629709759536,0.533018,0.255651,0.851194
1629709759546,0.690642,0.193553,0.875045
1629709759555,0.702598,0.444873,0.836859
1629709759565,0.719556,0.576816,0.820694
1629709759575,0.7302919999999999,0.34141699999999997,0.870348
1629709759584,0.463051,0.46829699999999996,0.825574
1629709759594,0.151829,0.748104,0.758962
1629709759603,0.051667,0.523624,0.801906
1629709759613,0.050873999999999996,0.27938,0.799893
1629709759623,0.12627,0.462746,0.722423
1629709759632,0.155611,0.262178,0.73566
1629709759642,0.436577,0.341844,0.701256
1629709759651,0.23710699999999998,0.529358,0.51057
1629709759661,0.249185,0.32073799999999997,0.459635
1629709759671,0.248697,0.231678,0.441091
1629709759680,0.20752199999999998,0.43859,0.414312
1629709759690,0.291824,0.666791,0.41900899999999996
1629709759699,0.340319,0.773175,0.441884
1629709759709,0.372283,0.683566,0.49946799999999997
1629709759719,0.442372,0.583709,0.558211
1629709759728,0.496357,0.617991,0.600911
1629709759738,0.523929,0.7765299999999999,0.611708
1629709759747,0.5654089999999999,0.76311,0.652517
1629709759757,0.527406,0.674904,0.677649
1629709759767,0.487695,0.643977,0.669231
1629709759776,0.41931399999999996,0.602802,0.639524
1629709759786,0.388387,0.483364,0.621834
1629709759795,0.346053,0.425109,0.585722
1629709759805,0.263642,0.521245,0.503921
1629709759815,0.173972,0.558089,0.412116
1629709759824,0.126392,0.47390899999999997,0.34709
1629709759834,0.094001,0.491782,0.28346699999999997
1629709759843,0.06344,0.410896,0.272304
1629709759853,0.112667,0.421144,0.273463
1629709759863,0.218563,0.530944,0.263276
1629709759872,0.237656,0.569496,0.262483
1629709759882,0.28731,0.49855299999999997,0.293227
1629709759891,0.373625,0.468968,0.321836
1629709759901,0.33611,0.453596,0.345504
1629709759911,0.30689099999999997,0.471042,0.374174
1629709759920,0.47885,0.504775,0.420534
1629709759930,0.514657,0.48592599999999997,0.466894
1629709759939,0.5425949999999999,0.54961,0.497821
1629709759949,0.598654,0.515267,0.52277
1629709759959,0.727669,0.378871,0.555771
1629709759968,0.606462,0.246074,0.533994
1629709759978,0.994117,0.346175,0.561383
1629709759987,0.755912,0.032390999999999996,0.53558
1629709759997,0.935008,-0.221491,0.603656
1629709760007,1.060058,-0.273768,0.664656
1629709760016,1.250439,0.002257,0.686372
1629709760026,1.349076,0.237473,0.660264
