timestamp,ax,ay,az
1629709774179,-0.200324,-0.26034799999999997,-0.722484
1629709774189,-0.136518,-0.210694,-0.597922
1629709774198,-0.075091,-0.158112,-0.486963
1629709774208,-0.024644,-0.129137,-0.389851
1629709774217,0.046238,-0.06405,-0.244305
1629709774227,0.076006,-0.038551999999999996,-0.1098
1629709774237,0.083936,-0.019886,-0.070516
1629709774246,0.07155299999999999,-0.050263999999999996,-0.133956
1629709774256,0.049166,-0.085095,-0.230214
1629709774265,0.053985,-0.056669,-0.26169
1629709774275,0.065636,0.0057339999999999995,-0.218502
1629709774285,0.063013,0.049349,-0.183244
1629709774294,0.041419,0.049654,-0.240584
1629709774304,-0.043432,-0.02379,-0.444751
1629709774313,-0.23912,-0.31738299999999997,-0.930006
1629709774323,-0.243451,-0.42883,-1.260016
1629709774333,-0.38795999999999997,-0.445788,-1.259406
1629709774342,-0.443714,-0.479826,-1.227137
1629709774352,-0.327631,-0.384178,-1.131306
1629709774361,-0.3416,-0.39100999999999997,-1.116178
1629709774371,-0.418338,-0.465308,-1.231041
1629709774381,-0.405955,-0.5188659999999999,-1.367437
1629709774390,-0.51362,-0.542473,-1.456436
1629709774400,-0.600911,-0.716994,-1.7782719999999999
1629709774409,-0.589565,-0.73932,-1.970056
1629709774419,-0.5620539999999999,-0.701622,-1.91357
1629709774429,-0.555649,-0.638548,-1.72996
1629709774438,-0.495686,-0.586759,-1.590819
1629709774448,-0.450912,-0.557479,-1.452532
1629709774457,-0.437187,-0.546743,-1.359446
1629709774467,-0.432185,-0.543022,-1.316563
1629709735868,-0.403698,-0.524234,-1.257576
1629709735877,-0.367098,-0.46189199999999997,-1.12057
1629709735887,-0.31354,-0.356118,-0.951295
1629709735896,-0.241682,-0.237168,-0.786229
1629709735906,-0.206546,-0.138104,-0.62586
1629709735916,-0.140239,-0.040626,-0.500932
1629709735925,-0.072651,0.086376,-0.346846
1629709735935,-0.027999,0.213134,-0.189893
1629709735944,-0.008113,0.271084,-0.099735
1629709735954,-0.000488,0.25376,-0.088755
1629709735964,-0.008052,0.19947,-0.146034
1629709735973,-0.011712,0.14804699999999998,-0.221125
1629709735983,-0.014457,0.093513,-0.268827
1629709735992,-0.0075639999999999995,0.069845,-0.27358499999999997
1629709736002,-0.0066489999999999995,0.067344,-0.24418299999999998
1629709736012,-0.041236,0.041784999999999996,-0.241133
1629709736021,-0.147559,-0.059047999999999996,-0.370758
1629709736031,-0.361242,-0.371978,-0.7659159999999999
1629709736040,-0.331474,-0.496296,-1.0861049999999999
1629709736050,-0.445727,-0.571265,-1.185047
1629709736060,-0.355752,-0.508801,-1.038586
1629709736069,-0.26047,-0.450241,-0.919148
1629709736079,-0.293898,-0.502335,-1.0248
1629709736088,-0.532469,-0.681553,-1.276608
1629709736098,-0.38064,-0.594445,-1.352614
1629709736108,-0.334646,-0.493917,-1.344623
1629709736117,-0.48861,-0.6082919999999999,-1.537139
1629709736127,-0.655811,-0.771528,-1.865624
1629709736136,-0.575718,-0.6161,-1.7751
1629709736146,-0.539362,-0.463234,-1.567822
1629709736156,-0.482144,-0.429989,-1.5300019999999999
1629709736165,-0.447374,-0.402051,-1.420202
1629709736175,-0.499834,-0.445727,-1.3699379999999999
1629709736184,-0.44042,-0.467626,-1.357372
1629709736194,-0.429257,-0.465979,-1.288991
1629709736204,-0.372283,-0.427732,-1.169187
1629709736213,-0.318176,-0.40394199999999997,-1.024861
1629709736223,-0.238083,-0.367037,-0.885049
1629709736232,-0.198128,-0.356606,-0.757498
1629709736242,-0.141825,-0.34404,-0.657946
1629709736252,-0.072468,-0.286151,-0.527711
1629709736261,-0.0008539999999999999,-0.203984,-0.37576
1629709736271,0.07448099999999999,-0.112972,-0.213561
1629709736280,0.09406199999999999,-0.06831999999999999,-0.084546
1629709736290,0.07649399999999999,-0.064294,-0.036782999999999996
1629709736300,0.081862,-0.061244,-0.05856
1629709736309,0.095099,-0.036234,-0.084058
1629709736319,0.085766,-0.004331,-0.109678
1629709736328,0.08784,0.014823,-0.14188599999999998
1629709736338,0.077592,0.049654,-0.160491
1629709736348,-0.024034,-0.021838,-0.299022
1629709736357,-0.222955,-0.294447,-0.694546
1629709736367,-0.316651,-0.5453399999999999,-1.1384429999999999
1629709736376,-0.359351,-0.550159,-1.271606
1629709736386,-0.393816,-0.5142909999999999,-1.172542
1629709736396,-0.385276,-0.421388,-1.098854
1629709736405,-0.457134,-0.393328,-1.069879
1629709736415,-0.482693,-0.42340099999999997,-1.058045
1629709736424,-0.464759,-0.48678,-1.190354
1629709736434,-0.462685,-0.575657,-1.400316
1629709736444,-0.544486,-0.707417,-1.61589
1629709736453,-0.6326309999999999,-0.8468019999999999,-1.8913659999999999
1629709736463,-0.6335459999999999,-0.814411,-1.955233
1629709736472,-0.510692,-0.682407,-1.752469
1629709736482,-0.500749,-0.661118,-1.650904
1629709736492,-0.43798,-0.620004,-1.520791
1629709736501,-0.432124,-0.61366,-1.376282
1629709736511,-0.370758,-0.630008,-1.316807
1629709736520,-0.379359,-0.610793,-1.23647
1629709736530,-0.307013,-0.535824,-1.090802
1629709736540,-0.277794,-0.44225,-0.921832
1629709736549,-0.247233,-0.349835,-0.791414
1629709736559,-0.157563,-0.23710699999999998,-0.655811
1629709736568,-0.089853,-0.103822,-0.481168
1629709736578,-0.010614,0.046176999999999996,-0.329522
1629709736588,0.044652,0.162626,-0.22106399999999998
1629709736597,0.056364,0.181902,-0.155977
1629709736607,0.032757,0.169397,-0.090402
1629709736616,0.003172,0.147315,-0.049654
1629709736626,-0.034709,0.110166,-0.047153
1629709736636,-0.054473,0.069662,-0.09467199999999999
1629709736645,-0.055632,0.061244,-0.141154
1629709736655,-0.060329,0.052704,-0.18196299999999999
1629709736664,-0.094428,-0.008235,-0.289079
1629709736674,-0.20136099999999998,-0.17702199999999998,-0.500749
1629709736684,-0.376919,-0.50386,-0.844545
1629709736693,-0.410286,-0.674233,-1.104405
1629709736703,-0.384483,-0.718092,-1.132709
1629709736712,-0.32452,-0.622139,-0.983625
1629709736722,-0.282674,-0.485194,-0.875533
1629709736732,-0.315248,-0.44151799999999997,-0.959652
1629709736741,-0.349713,-0.47946,-1.19682
1629709736751,-0.393084,-0.478118,-1.352675
1629709736760,-0.447862,-0.513864,-1.469307
1629709736770,-0.563152,-0.7138829999999999,-1.792912
1629709736780,-0.664473,-0.828746,-1.998604
1629709736789,-0.604205,-0.702659,-1.815726
1629709736799,-0.533384,-0.621956,-1.711477
1629709736808,-0.501542,-0.56425,-1.6623109999999999
1629709736818,-0.478728,-0.542168,-1.5622099999999999
1629709736828,-0.484279,-0.5842579999999999,-1.481385
1629709736837,-0.448899,-0.62525,-1.37616
1629709736847,-0.421327,-0.63257,-1.196515
1629709736856,-0.386069,-0.597373,-1.016504
1629709736866,-0.30628099999999997,-0.49702799999999997,-0.829295
1629709736876,-0.24522,-0.392474,-0.671244
1629709736885,-0.13298,-0.275842,-0.5657139999999999
1629709736895,-0.068625,-0.18544,-0.416813
1629709736904,-0.01952,-0.114802,-0.283589
1629709736914,0.025559,-0.061,-0.174582
1629709736924,0.085827,-0.015433,-0.091805
1629709736933,0.082289,-0.02379,-0.066246
1629709736943,0.075213,-0.025803,-0.124318
1629709736952,0.058133,-0.020984,-0.199226
1629709736962,0.055388,0.014395999999999999,-0.253516
1629709736972,0.086254,0.049654,-0.288164
1629709736981,0.11102,0.066917,-0.311161
1629709736991,0.103395,0.060451,-0.320494
1629709737000,-0.035318999999999996,-0.076128,-0.451949
1629709737010,-0.31646799999999997,-0.547658,-0.891393
1629709737020,-0.189832,-0.653432,-1.144604
1629709737029,-0.42944,-0.64843,-1.2239039999999999
1629709737039,-0.436516,-0.62891,-1.205238
1629709737048,-0.251564,-0.469029,-1.072624
1629709737058,-0.3782,-0.485804,-1.187975
1629709737068,-0.369782,-0.5203909999999999,-1.360666
1629709737077,-0.254553,-0.481534,-1.451434
1629709737087,-0.34721199999999997,-0.548756,-1.633031
1629709737096,-0.400038,-0.77165,-1.96176
1629709737106,-0.39833,-0.859368,-1.998604
1629709737116,-0.34343,-0.768051,-1.952
1629709737125,-0.302011,-0.677893,-1.687931
1629709737135,-0.32757,-0.645014,-1.5536699999999999
1629709737144,-0.241377,-0.539179,-1.307169
1629709737154,-0.28365,-0.516609,-1.1299029999999999
1629709737164,-0.347517,-0.519659,-1.054385
1629709737173,-0.341295,-0.447801,-0.939888
1629709737183,-0.29792399999999997,-0.347822,-0.790682
1629709737192,-0.261141,-0.244427,-0.655262
1629709737202,-0.174155,-0.1586,-0.580964
1629709737212,-0.125538,-0.099064,-0.52155
1629709737221,-0.051972,-0.008296,-0.437492
1629709737231,-0.016774999999999998,0.083875,-0.336598
1629709737240,-0.003965,0.141154,-0.253028
1629709737250,-0.002928,0.156465,-0.191723
1629709737260,-0.016653,0.144875,-0.147681
1629709737269,-0.021289,0.133956,-0.133956
1629709737279,-0.027206,0.109861,-0.151829
1629709737288,-0.008173999999999999,0.081008,-0.196786
1629709737298,0.010492,0.066551,-0.252235
1629709737308,0.005795,0.079239,-0.302865
1629709737317,-0.061366,0.034099,-0.42401099999999997
1629709737327,-0.252235,-0.24790399999999999,-0.7844599999999999
1629709737336,-0.36478,-0.625616,-1.24379
1629709737346,-0.38552,-0.751215,-1.387384
1629709737356,-0.316346,-0.650565,-1.157658
1629709737365,-0.279624,-0.446215,-0.892552
1629709737375,-0.374113,-0.475068,-0.983991
1629709737384,-0.481839,-0.6329359999999999,-1.267946
1629709737394,-0.47092,-0.655994,-1.436489
1629709737404,-0.503311,-0.621956,-1.533113
1629709737413,-0.575413,-0.733586,-1.765096
1629709737423,-0.6192719999999999,-0.793305,-1.962187
1629709737432,-0.5367999999999999,-0.661728,-1.841651
1629709737442,-0.492392,-0.529236,-1.631567
1629709737452,-0.47519,-0.446764,-1.4666839999999999
1629709737461,-0.442616,-0.420717,-1.314794
1629709737471,-0.48440099999999997,-0.49837,-1.2412889999999999
1629709737480,-0.467321,-0.577121,-1.223477
1629709737490,-0.422242,-0.549183,-1.124047
1629709737500,-0.35807,-0.47519,-0.999607
1629709737509,-0.243146,-0.377346,-0.856501
1629709737519,-0.172935,-0.301584,-0.7083929999999999
1629709737528,-0.102602,-0.24570799999999998,-0.590907
1629709737538,-0.0427,-0.203069,-0.489952
1629709737548,0.03904,-0.143411,-0.366793
1629709737557,0.100345,-0.062098,-0.212036
1629709737567,0.097966,-0.033062,-0.108275
1629709737576,0.099674,-0.025986,-0.06709999999999999
1629709737586,0.099308,-0.029768,-0.079544
1629709737596,0.083875,-0.042456,-0.119377
1629709737605,0.08906,-0.030744,-0.145485
1629709737615,0.107848,0.008418,-0.144814
1629709737624,0.10431,0.030255999999999998,-0.162504
1629709737634,0.051727999999999996,-0.014213,-0.261324
1629709737644,-0.117913,-0.170434,-0.550769
1629709737653,-0.358863,-0.532286,-1.050664
1629709737663,-0.513803,-0.678442,-1.334314
1629709737672,-0.448899,-0.642879,-1.16266
1629709737682,-0.383019,-0.592127,-1.0410869999999999
1629709737692,-0.445239,-0.588894,-1.061522
1629709737701,-0.389729,-0.557662,-1.079151
1629709737711,-0.389058,-0.579073,-1.185962
1629709737720,-0.467138,-0.6095119999999999,-1.375001
1629709737730,-0.473848,-0.608719,-1.595394
1629709737740,-0.595909,-0.752862,-1.9191209999999999
1629709737749,-0.617015,-0.8303929999999999,-1.998604
1629709737759,-0.506056,-0.743285,-1.962492
1629709737768,-0.528199,-0.6832,-1.727032
1629709737778,-0.355325,-0.582855,-1.510055
1629709737788,-0.39314499999999997,-0.6143919999999999,-1.3589579999999999
1629709737797,-0.426878,-0.647698,-1.266543
1629709737807,-0.438041,-0.6861889999999999,-1.1761409999999999
1629709737816,-0.39070499999999997,-0.644099,-1.04127
1629709737826,-0.339831,-0.538691,-0.887367
1629709737836,-0.275293,-0.380579,-0.709552
1629709737845,-0.205814,-0.250222,-0.552172
1629709737855,-0.15792899999999999,-0.110959,-0.396866
1629709737864,-0.07869,0.028487,-0.267851
1629709737874,-0.036905,0.156709,-0.145912
1629709737884,-0.029951,0.206973,-0.074969
1629709737893,-0.044469,0.18903899999999998,-0.085034
1629709737903,-0.051911,0.135969,-0.13017399999999998
1629709737912,-0.076067,0.075152,-0.180743
1629709737922,-0.085522,0.017934,-0.22508999999999998
1629709737932,-0.06539199999999999,-0.016409,-0.255468
1629709737941,-0.052399,-0.024278,-0.271572
1629709737951,-0.09143899999999999,-0.063257,-0.355813
1629709737960,-0.199226,-0.184159,-0.576755
1629709737970,-0.249856,-0.311466,-0.8398479999999999
1629709737980,-0.343064,-0.481778,-1.0809199999999999
1629709737989,-0.40607699999999997,-0.584014,-1.17547
1629709737999,-0.366,-0.455304,-1.000156
1629709738008,-0.35831399999999997,-0.336232,-0.863333
1629709738018,-0.457378,-0.396866,-0.993507
1629709738028,-0.503677,-0.485438,-1.2248189999999999
1629709738037,-0.533933,-0.5657139999999999,-1.434903
1629709738047,-0.509411,-0.551928,-1.481385
1629709738056,-0.705465,-0.68747,-1.707146
1629709738066,-0.742614,-0.7424919999999999,-1.881606
1629709738076,-0.687897,-0.602253,-1.6981789999999999
1629709738085,-0.677588,-0.504958,-1.5588549999999999
1629709738095,-0.617686,-0.422303,-1.431853
1629709738104,-0.566446,-0.412482,-1.362374
1629709738114,-0.559431,-0.472872,-1.349625
1629709738124,-0.512949,-0.519537,-1.339133
1629709738133,-0.449082,-0.500871,-1.255441
1629709738143,-0.36423099999999997,-0.451888,-1.112091
1629709738152,-0.26657,-0.396134,-0.94977
1629709738162,-0.197274,-0.344894,-0.7856799999999999
1629709738172,-0.105408,-0.2806,-0.643428
1629709738181,-0.024583,-0.204045,-0.508008
1629709738191,0.041358,-0.14701,-0.38674
1629709738200,0.106323,-0.09143899999999999,-0.252479
1629709738210,0.15884399999999999,-0.027327999999999998,-0.131821
1629709738220,0.16104,-0.0042699999999999995,-0.084546
1629709738229,0.132309,-0.034282,-0.12078
1629709738239,0.095404,-0.067893,-0.183427
1629709738248,0.04758,-0.074542,-0.203435
1629709738258,0.017324,-0.044652,-0.17995
1629709738268,0.002745,0.0057339999999999995,-0.150548
1629709738277,-0.008662,0.030805,-0.180133
1629709738287,-0.028975,0.017202,-0.304024
1629709738296,-0.223199,-0.146583,-0.6806989999999999
1629709738306,-0.380762,-0.416813,-1.151131
1629709738316,-0.546682,-0.5185609999999999,-1.300032
1629709738325,-0.624823,-0.55327,-1.254099
1629709738335,-0.49641799999999997,-0.498492,-1.225307
1629709738344,-0.466711,-0.511119,-1.284904
1629709738354,-0.517402,-0.559736,-1.382382
1629709738364,-0.469761,-0.57218,-1.435452
1629709738373,-0.52155,-0.571692,-1.49389
1629709738383,-0.65087,-0.662277,-1.732766
1629709738392,-0.6892389999999999,-0.728889,-1.929979
1629709738402,-0.704611,-0.724558,-1.9160709999999999
1629709738412,-0.655079,-0.678503,-1.7900449999999999
1629709738421,-0.568825,-0.551562,-1.5692249999999999
1629709738431,-0.492148,-0.489098,-1.40544
1629709738440,-0.44682499999999997,-0.460489,-1.26331
1629709738450,-0.43041599999999997,-0.44865499999999997,-1.1706509999999999
1629709738460,-0.389668,-0.438224,-1.095316
1629709738469,-0.37515,-0.421266,-0.995947
1629709738479,-0.368318,-0.372832,-0.89304
1629709738488,-0.291946,-0.267241,-0.746091
1629709738498,-0.246562,-0.139812,-0.578768
1629709738508,-0.14652199999999999,-0.009821,-0.404308
1629709738517,-0.140544,0.079483,-0.271572
1629709738527,-0.09943,0.133407,-0.209169
1629709738536,-0.054534,0.189771,-0.11712
1629709738546,-0.057583999999999996,0.170312,-0.118279
1629709738556,-0.065758,0.123769,-0.168848
1629709738565,-0.075884,0.087108,-0.20075099999999999
1629709738575,-0.08003199999999999,0.068686,-0.188185
1629709738584,-0.055327,0.067039,-0.150548
1629709738594,-0.037454,0.073444,-0.110044
1629709738604,-0.044407999999999996,0.068137,-0.106933
1629709738613,-0.117486,-0.008967,-0.210816
1629709738623,-0.26065299999999997,-0.260836,-0.584136
1629709738632,-0.40516199999999997,-0.567117,-1.04554
1629709738642,-0.437736,-0.658129,-1.189988
1629709738652,-0.375028,-0.553758,-0.99918
1629709738661,-0.36972099999999997,-0.423157,-0.847534
1629709738671,-0.41053,-0.388204,-0.883219
1629709738680,-0.433344,-0.46848,-1.108248
1629709738690,-0.409371,-0.482266,-1.250195
1629709738700,-0.476105,-0.473665,-1.311988
1629709738709,-0.556991,-0.559736,-1.501698
1629709738719,-0.651907,-0.821426,-1.884839
1629709738728,-0.706502,-0.85705,-1.998604
1629709738738,-0.629276,-0.656421,-1.826279
1629709738748,-0.584136,-0.487878,-1.689273
1629709738757,-0.535824,-0.410164,-1.63663
1629709738767,-0.55022,-0.42883,-1.594418
1629709738776,-0.562115,-0.47085899999999997,-1.53842
1629709738786,-0.5386299999999999,-0.483425,-1.473943
1629709738796,-0.46799199999999996,-0.426085,-1.339011
1629709738805,-0.41900899999999996,-0.375211,-1.146434
1629709738815,-0.357277,-0.329156,-0.974109
1629709738824,-0.300608,-0.30902599999999997,-0.835029
1629709738834,-0.22783499999999998,-0.271877,-0.705282
1629709738844,-0.147681,-0.234484,-0.5669339999999999
1629709738853,-0.058926,-0.17885199999999998,-0.385215
1629709738863,0.033123,-0.119133,-0.181841
1629709738872,0.078019,-0.120414,-0.036356
1629709738882,0.090341,-0.151158,0.035502
1629709738892,0.060268,-0.17915699999999998,-0.00042699999999999997
1629709738901,0.047945999999999996,-0.177998,-0.113033
1629709738911,0.034709,-0.122183,-0.144021
1629709738920,0.060024,-0.014091,-0.12322
1629709738930,0.074054,0.066429,-0.080154
1629709738940,0.04514,0.040931,-0.157502
1629709738949,-0.013603,-0.074725,-0.360144
1629709738959,-0.185562,-0.35373899999999997,-0.7671359999999999
1629709738968,-0.292861,-0.587186,-1.221342
1629709738978,-0.44225,-0.57889,-1.338584
1629709738988,-0.395768,-0.438041,-1.1381379999999999
1629709738997,-0.365268,-0.354532,-0.977281
1629709739007,-0.33488999999999997,-0.362706,-1.010099
1629709739016,-0.452559,-0.503616,-1.165161
1629709739026,-0.462868,-0.604205,-1.355481
1629709739036,-0.374784,-0.554612,-1.359507
1629709739045,-0.503494,-0.71492,-1.666642
1629709739055,-0.645502,-0.841861,-1.978901
1629709739064,-0.656848,-0.7613409999999999,-1.956697
1629709739074,-0.5216109999999999,-0.621834,-1.732522
1629709739084,-0.525515,-0.567788,-1.604605
1629709739093,-0.444324,-0.553087,-1.495842
1629709739103,-0.43798,-0.540521,-1.308938
1629709739112,-0.416203,-0.528992,-1.204689
1629709739122,-0.389546,-0.523014,-1.138687
1629709739132,-0.377346,-0.473848,-1.062986
1629709739141,-0.313662,-0.365024,-0.9070699999999999
1629709739151,-0.24949,-0.237656,-0.726388
1629709739160,-0.211365,-0.140849,-0.559126
1629709739170,-0.159881,-0.049288,-0.413092
1629709739180,-0.080886,0.07124799999999999,-0.243085
1629709739189,-0.036356,0.156099,-0.119499
1629709739199,-0.012749,0.170129,-0.10431
1629709739208,-0.005429,0.14396,-0.169336
1629709739218,-0.016958,0.084241,-0.231617
1629709739228,-0.028121,0.040138,-0.264008
1629709739237,-0.022021,0.019154,-0.26065299999999997
1629709739247,-0.02623,0.006771,-0.251869
1629709739256,-0.063684,-0.029341,-0.287981
1629709739266,-0.121756,-0.110898,-0.396378
1629709739276,-0.225029,-0.204411,-0.584136
1629709739285,-0.376431,-0.356606,-0.848144
1629709739295,-0.39967199999999997,-0.446764,-1.052799
1629709739304,-0.438041,-0.462136,-1.098366
1629709739314,-0.40138,-0.409005,-1.010953
1629709739324,-0.415715,-0.393328,-0.987163
1629709739333,-0.528138,-0.521855,-1.179374
1629709739343,-0.517402,-0.598898,-1.335168
1629709739352,-0.547231,-0.6198819999999999,-1.4268509999999999
1629709739362,-0.534909,-0.620248,-1.506029
1629709739372,-0.68747,-0.718519,-1.677439
1629709739381,-0.67954,-0.660508,-1.691408
1629709739391,-0.6554449999999999,-0.557784,-1.573251
1629709739400,-0.622566,-0.48836599999999997,-1.508713
1629709739410,-0.600118,-0.44304299999999996,-1.436733
1629709739420,-0.549427,-0.44408,-1.395741
1629709739429,-0.533384,-0.485804,-1.382992
1629709739439,-0.471896,-0.499956,-1.329007
1629709739448,-0.385337,-0.45475499999999996,-1.205482
1629709739458,-0.305183,-0.400953,-1.04737
1629709739468,-0.227408,-0.355691,-0.891027
1629709739477,-0.166957,-0.323788,-0.7564609999999999
1629709739487,-0.099308,-0.294752,-0.646051
1629709739496,-0.021411,-0.252723,-0.513803
1629709739506,0.039833,-0.205387,-0.379664
1629709739516,0.10065,-0.154147,-0.235765
1629709739525,0.137311,-0.10699399999999999,-0.122793
1629709739535,0.127124,-0.102907,-0.074115
1629709739544,0.098149,-0.126087,-0.09028
1629709739554,0.044286,-0.14579,-0.145363
1629709739564,0.040504,-0.109434,-0.15433
1629709739573,0.034465,-0.052155,-0.12986899999999998
1629709739583,0.037698,-0.017324,-0.131089
1629709739592,0.0051849999999999995,-0.029402,-0.24046199999999998
1629709739602,-0.119682,-0.152744,-0.565653
1629709739612,-0.197274,-0.35258,-1.014308
1629709739621,-0.240523,-0.442189,-1.262883
1629709739631,-0.370392,-0.549915,-1.345355
1629709739640,-0.35556899999999997,-0.496967,-1.211582
1629709739650,-0.331352,-0.386984,-1.018273
1629709739660,-0.298839,-0.384056,-1.050786
1629709739669,-0.263032,-0.429562,-1.164002
1629709739679,-0.410164,-0.525332,-1.345843
1629709739688,-0.503799,-0.627202,-1.539884
1629709739698,-0.477813,-0.745359,-1.8196299999999999
1629709739708,-0.605486,-0.8325279999999999,-1.9963469999999999
1629709739717,-0.581086,-0.80215,-1.998604
1629709739727,-0.444202,-0.633607,-1.731119
1629709739736,-0.402295,-0.563396,-1.516948
1629709739746,-0.376309,-0.544364,-1.402329
1629709739756,-0.471042,-0.62037,-1.407514
1629709739765,-0.41053,-0.592249,-1.337303
1629709739775,-0.35221399999999997,-0.523075,-1.1828509999999999
1629709739784,-0.307318,-0.427793,-1.033889
1629709739794,-0.262666,-0.313418,-0.8757159999999999
1629709739804,-0.183122,-0.179218,-0.678991
1629709739813,-0.11669299999999999,-0.047885,-0.468358
1629709739823,-0.074298,0.03233,-0.346846
1629709739832,-0.032269,0.109434,-0.24759899999999999
1629709739842,-0.013847,0.151158,-0.181231
1629709739852,0.002074,0.186965,-0.133163
1629709739861,0.008235,0.199714,-0.117425
1629709739871,-0.005612,0.181536,-0.130418
1629709739880,-0.038796,0.11712,-0.188673
1629709739890,-0.034099,0.074725,-0.224358
1629709739900,-0.034038,0.048494999999999996,-0.237046
1629709739909,-0.036234,0.054168,-0.21167
1629709739919,-0.053619,0.047885,-0.252174
1629709739928,-0.13298,-0.012383,-0.414312
1629709739938,-0.318054,-0.29707,-0.84424
1629709739948,-0.321775,-0.549671,-1.3133299999999999
1629709739957,-0.418582,-0.681126,-1.490352
1629709739967,-0.306769,-0.51362,-1.210667
1629709739976,-0.255285,-0.313784,-0.957456
1629709739986,-0.315065,-0.368562,-1.059692
1629709739996,-0.457195,-0.53131,-1.343952
1629709740005,-0.374662,-0.50691,-1.4140409999999999
1629709740015,-0.436577,-0.43554,-1.405074
1629709740024,-0.670878,-0.672342,-1.799683
1629709740034,-0.596885,-0.669719,-1.964505
1629709740044,-0.553697,-0.553209,-1.82878
1629709740053,-0.480253,-0.41778899999999997,-1.682685
1629709740063,-0.449326,-0.358802,-1.563552
1629709740072,-0.428037,-0.36905,-1.46644
1629709740082,-0.416386,-0.405955,-1.386042
1629709740092,-0.42309599999999997,-0.467931,-1.376404
1629709740101,-0.393938,-0.459574,-1.30662
1629709740111,-0.340624,-0.396683,-1.156682
1629709740120,-0.26961999999999997,-0.325862,-0.968924
1629709740130,-0.209474,-0.267058,-0.7893399999999999
1629709740140,-0.144448,-0.22106399999999998,-0.646844
1629709740149,-0.08234999999999999,-0.19117399999999998,-0.554246
1629709740159,-0.010797,-0.152744,-0.445117
1629709740168,0.06344,-0.083326,-0.295301
1629709740178,0.094428,-0.03294,-0.173118
1629709740188,0.101077,-0.010309,-0.12749
1629709740197,0.09113399999999999,-0.018117,-0.137311
1629709740207,0.08820599999999999,-0.019947,-0.16439499999999999
1629709740216,0.084363,-0.012261,-0.168726
1629709740226,0.076433,0.017811999999999998,-0.154269
1629709740236,0.077287,0.03721,-0.146278
1629709740245,0.057157,0.030805,-0.171288
1629709740255,-0.021716,-0.020496,-0.301096
1629709740264,-0.24448799999999998,-0.288652,-0.746152
1629709740274,-0.261446,-0.502152,-1.219573
1629709740284,-0.362767,-0.502457,-1.321138
1629709740293,-0.454816,-0.504287,-1.268434
1629709740303,-0.382775,-0.417362,-1.103612
1629709740312,-0.311832,-0.398696,-1.030473
1629709740322,-0.487634,-0.493795,-1.077321
1629709740332,-0.430843,-0.550769,-1.2211589999999999
1629709740341,-0.359351,-0.495686,-1.260931
1629709740351,-0.524173,-0.59902,-1.543788
1629709740360,-0.643245,-0.76067,-1.9494989999999999
1629709740370,-0.606218,-0.696803,-1.923208
1629709740380,-0.526552,-0.57584,-1.741123
1629709740389,-0.430965,-0.484767,-1.567212
1629709740399,-0.377285,-0.447496,-1.442955
1629709740408,-0.385947,-0.43133099999999996,-1.324981
1629709740418,-0.402478,-0.443287,-1.263066
1629709740428,-0.395524,-0.467321,-1.215852
1629709740437,-0.37655299999999997,-0.471591,-1.147166
1629709740447,-0.338184,-0.423828,-1.029436
1629709740456,-0.301523,-0.344223,-0.868396
1629709740466,-0.251198,-0.23973,-0.6954
1629709740476,-0.19886,-0.150975,-0.547109
1629709740485,-0.140788,-0.054960999999999996,-0.384483
1629709740495,-0.095099,0.035502,-0.247965
1629709740504,-0.048129,0.09943,-0.162199
1629709740514,-0.031293,0.105164,-0.158356
1629709740524,-0.025925,0.097661,-0.188551
1629709740533,-0.023241,0.091378,-0.198067
1629709740543,-0.032269,0.07033299999999999,-0.199409
1629709740552,-0.045079,0.037942,-0.221125
1629709740562,-0.059536,-0.002562,-0.251503
1629709740572,-0.129076,-0.071797,-0.33488999999999997
1629709740581,-0.228994,-0.20105599999999998,-0.543632
1629709740591,-0.33733,-0.381372,-0.84729
1629709740600,-0.334646,-0.46524699999999997,-1.085861
1629709740610,-0.386008,-0.5182559999999999,-1.172298
1629709740620,-0.30378,-0.450424,-1.070001
1629709740629,-0.246135,-0.35441,-0.952637
1629709740639,-0.327509,-0.419863,-1.087874
1629709740648,-0.450302,-0.523868,-1.2780719999999999
1629709740658,-0.414373,-0.496235,-1.333887
1629709740668,-0.468053,-0.503067,-1.394582
1629709740677,-0.632692,-0.662887,-1.6699359999999999
1629709740687,-0.651907,-0.6442209999999999,-1.7578369999999999
1629709740696,-0.605364,-0.47817899999999997,-1.552328
1629709740706,-0.574132,-0.41138399999999997,-1.468697
1629709740716,-0.571448,-0.419436,-1.479433
1629709740725,-0.564921,-0.456707,-1.4329509999999999
1629709740735,-0.536251,-0.501908,-1.409039
1629709740744,-0.502335,-0.517219,-1.380552
1629709740754,-0.449448,-0.462136,-1.258308
1629709740764,-0.382836,-0.379054,-1.082567
1629709740773,-0.32195799999999997,-0.332694,-0.916403
1629709740783,-0.27236499999999997,-0.295118,-0.796843
1629709740792,-0.200507,-0.236253,-0.6636799999999999
1629709740802,-0.127917,-0.21831899999999999,-0.551196
1629709740812,-0.051484,-0.167872,-0.427122
1629709740821,0.028059999999999998,-0.098637,-0.279197
1629709740831,0.073749,-0.045506,-0.14762
1629709740840,0.07155299999999999,-0.027572,-0.056852
1629709740850,0.043188,-0.057767,-0.066612
1629709740860,0.017019,-0.090158,-0.143411
1629709740869,0.011467999999999999,-0.08912099999999999,-0.218136
1629709740879,0.025925,-0.043615,-0.22722499999999998
1629709740888,0.044712999999999996,-0.011163,-0.228262
1629709740898,0.025681,-0.021471999999999998,-0.334707
1629709740908,-0.074542,-0.11022699999999999,-0.61183
1629709740917,-0.073078,-0.232715,-0.936655
1629709740927,-0.662338,-0.657336,-1.503345
1629709740936,-0.20965699999999998,-0.402844,-1.266543
1629709740946,-0.346846,-0.438346,-1.178398
1629709740956,-0.385154,-0.432307,-1.108736
1629709740965,-0.31055099999999997,-0.417057,-1.153998
1629709740975,-0.305915,-0.427183,-1.217621
1629709740984,-0.347883,-0.413885,-1.321626
1629709740994,-0.496296,-0.486048,-1.513288
1629709741004,-0.543876,-0.63989,-1.801452
1629709741013,-0.475007,-0.666181,-1.8731879999999999
1629709741023,-0.481656,-0.623237,-1.713063
1629709741032,-0.488,-0.5727289999999999,-1.552877
1629709741042,-0.392901,-0.487085,-1.3725
1629709741052,-0.274256,-0.383385,-1.1895
1629709741061,-0.346663,-0.40138,-1.164673
1629709741071,0.258762,-0.092293,-1.086959
1629709741080,0.02989,0.203557,-0.538691
1629709741090,-1.998604,-1.156255,-1.9336389999999999
1629709741100,-1.319674,-0.187087,-0.534177
1629709741109,0.17177599999999998,0.042943999999999996,-1.366156
1629709741119,-0.053131,0.183122,-0.521245
1629709741128,-0.094428,0.248758,-0.102907
1629709741138,-0.086132,0.216428,-0.186416
1629709741148,-0.031171,0.195017,-0.25699299999999997
1629709741157,0.090341,0.274256,-0.202825
1629709741167,0.005124,0.280356,-0.156892
1629709741176,-0.032452,0.242719,-0.238083
1629709741186,-0.056364,0.185745,-0.339526
1629709741196,-0.057218,0.140849,-0.371429
1629709741205,-0.06539199999999999,0.106872,-0.374723
1629709741215,-0.108153,0.109739,-0.395158
1629709741224,-0.249307,0.024217,-0.5690689999999999
1629709741234,-0.392169,-0.190137,-0.895114
1629709741244,-0.475922,-0.38173799999999997,-1.200846
1629709741253,-0.53558,-0.432734,-1.269776
1629709741263,-0.464698,-0.279197,-1.101233
1629709741272,-0.403759,-0.118889,-0.9752069999999999
1629709741282,-0.373259,-0.124013,-1.134356
1629709741292,-0.351482,-0.174399,-1.278926
1629709741301,-0.371734,-0.19154,-1.338767
1629709741311,-0.37515,-0.15677,-1.338828
1629709741320,-0.690093,-0.348554,-1.5921
1629709741330,-0.6180519999999999,-0.404735,-1.771379
1629709741340,-0.58194,-0.320067,-1.594662
1629709741349,-0.528321,-0.28731,-1.48108
1629709741359,-0.472872,-0.292007,-1.3908
1629709741368,-0.434137,-0.301035,-1.303448
1629709741378,-0.226493,-0.25315,-1.181265
1629709741388,-0.618479,-0.360876,-1.211033
1629709741397,-0.649406,-0.46097699999999997,-1.451068
1629709741407,-0.406138,-0.28529699999999997,-1.182912
1629709741416,-0.814045,-0.347578,-0.837286
1629709741426,-0.139812,-0.099796,-0.840885
1629709741436,-0.273402,-0.230824,-0.727181
1629709741445,-0.026352,-0.10065,-0.529358
1629709741455,-0.019275999999999998,-0.155916,-0.5002
1629709741464,-0.170007,-0.20136099999999998,-0.458903
1629709741474,0.04392,-0.077287,-0.30963599999999997
1629709741484,0.085034,0.015738,-0.144631
1629709741493,0.093452,0.034099,-0.147559
1629709741503,0.114192,0.038491,-0.227469
1629709741512,0.103273,0.058255,-0.308538
1629709741522,0.123342,0.093513,-0.337452
1629709741532,0.095343,0.094123,-0.319152
1629709741541,0.002196,0.040626,-0.397781
1629709741551,-0.160247,-0.107482,-0.708881
1629709741560,-0.33031499999999997,-0.312137,-1.146739
1629709741570,-0.38295799999999997,-0.433527,-1.472052
1629709741580,-0.377956,-0.402295,-1.46949
1629709741589,-0.387472,-0.309514,-1.295762
1629709741599,-0.36905,-0.211304,-1.117459
1629709741608,-0.453718,-0.228628,-1.12728
1629709741618,-0.460245,-0.268034,-1.249585
1629709741628,-0.418582,-0.252418,-1.328946
1629709741637,-0.647149,-0.372039,-1.579046
1629709741647,-0.775737,-0.554795,-1.990003
1629709741656,-0.56242,-0.508557,-1.998604
1629709741666,-0.517768,-0.444507,-1.751371
1629709741676,-0.511607,-0.436516,-1.593564
1629709741685,-0.409981,-0.317932,-1.297531
1629709741695,-0.38387299999999996,-0.324825,-1.278194
1629709741704,-0.494466,-0.310734,-1.088667
1629709741714,-0.478423,-0.299144,-1.080554
1629709741724,-0.444385,-0.262422,-0.99796
1629709741733,-0.37533299999999997,-0.19093,-0.8830359999999999
1629709741743,-0.29487399999999997,-0.111264,-0.780312
1629709741752,-0.182085,-0.007808,-0.626958
1629709741762,-0.102175,0.07869,-0.49080599999999996
1629709741772,-0.062098,0.136823,-0.397171
1629709741781,-0.010431,0.184464,-0.350384
1629709741791,0.001403,0.221186,-0.313784
1629709741800,0.020984,0.24662299999999998,-0.301401
1629709741810,0.035197,0.279807,-0.298351
1629709741820,0.034648,0.281698,-0.345809
1629709741829,0.06222,0.263581,-0.423157
1629709741839,0.099064,0.236009,-0.47336
1629709741848,0.116632,0.199714,-0.483242
1629709741858,0.086315,0.17995,-0.454023
1629709741868,-0.008235,0.134993,-0.512156
1629709741877,-0.188795,-0.000793,-0.777262
1629709741887,-0.328302,-0.258274,-1.191757
1629709741896,-0.402173,-0.414373,-1.4579
1629709741906,-0.425719,-0.392169,-1.396656
1629709741916,-0.292495,-0.133773,-0.984479
1629709741925,-0.24156,0.022143,-0.8227679999999999
1629709741935,-0.27694,-0.056669,-1.063962
1629709741944,-0.288774,-0.134932,-1.309365
1629709741954,-0.490013,-0.237229,-1.52622
1629709741964,-0.532896,-0.226737,-1.670607
1629709741973,-0.489403,-0.24204799999999999,-1.892525
1629709741983,-0.549854,-0.258335,-1.9668839999999999
1629709741992,-0.573827,-0.228567,-1.838967
1629709742002,-0.507581,-0.19086899999999998,-1.652734
1629709742012,-0.395036,-0.17141,-1.524756
1629709742021,-0.384056,-0.192516,-1.442833
1629709742031,-0.417606,-0.274317,-1.45485
1629709742040,-0.444446,-0.331474,-1.441918
1629709742050,-0.425353,-0.32086,-1.3218699999999999
1629709742060,-0.357826,-0.265899,-1.12911
1629709742069,-0.254431,-0.195688,-0.936716
1629709742079,-0.161711,-0.133224,-0.769942
1629709742088,-0.077531,-0.079971,-0.619638
1629709742098,-0.024278,-0.041784999999999996,-0.482327
1629709742108,0.018117,-0.012383,-0.382897
1629709742117,0.08649799999999999,0.016104,-0.313601
1629709742127,0.154086,0.04819,-0.243207
1629709742136,0.175253,0.068381,-0.198311
1629709742146,0.177998,0.09991799999999999,-0.191906
1629709742156,0.152317,0.115107,-0.231983
1629709742165,0.133895,0.112484,-0.277428
1629709742175,0.160308,0.131882,-0.258457
1629709742184,0.173179,0.144814,-0.20288599999999998
1629709742194,0.14518,0.133834,-0.221186
1629709742204,0.105957,0.108458,-0.34343
1629709742213,-0.085827,0.056486,-0.663192
1629709742223,-0.291031,-0.222406,-1.318637
1629709742232,-0.389241,-0.315492,-1.573312
1629709742242,-0.549305,-0.411628,-1.533113
1629709742252,-0.46860199999999996,-0.361791,-1.274046
1629709742261,-0.359717,-0.305732,-1.080432
1629709742271,-0.441884,-0.327387,-1.076772
1629709742280,-0.482449,-0.37868799999999997,-1.213534
1629709742290,-0.555527,-0.410469,-1.391654
1629709742300,-0.635193,-0.445239,-1.6043
1629709742309,-0.46402699999999997,-0.498614,-1.998604
1629709742319,-0.493673,-0.412848,-1.998604
1629709742328,-0.572607,-0.36234,-1.874042
1629709742338,-0.482937,-0.286517,-1.712087
1629709742348,-0.423218,-0.240523,-1.539152
1629709742357,-0.413336,-0.22447999999999999,-1.242326
1629709742367,-0.433283,-0.285053,-1.325713
1629709742376,-0.48897599999999997,-0.289811,-1.110627
1629709742386,-0.429379,-0.264374,-1.090436
1629709742396,-0.416996,-0.221857,-0.94977
1629709742405,-0.33488999999999997,-0.138531,-0.794525
1629709742415,-0.22167399999999998,-0.040504,-0.615978
1629709742424,-0.166652,0.056242,-0.441701
1629709742434,-0.030073,0.184647,-0.263764
1629709742444,-0.001281,0.225883,-0.20874199999999998
1629709742453,0.081374,0.25699299999999997,-0.167689
1629709742463,0.060634,0.22752999999999998,-0.189893
1629709742472,0.036478,0.197274,-0.229909
1629709742482,-0.00042699999999999997,0.155489,-0.26108
1629709742492,-0.010065,0.117364,-0.260409
1629709742501,0.007991,0.097051,-0.212646
1629709742511,-0.004941,0.088694,-0.17202
1629709742520,-0.093757,0.055632,-0.253028
1629709742530,-0.299205,-0.112362,-0.592615
1629709742540,-0.43072099999999997,-0.395219,-1.0967799999999999
1629709742549,-0.44365299999999996,-0.455426,-1.300703
1629709742559,-0.411567,-0.39131499999999997,-1.146983
1629709742568,-0.345809,-0.238266,-0.8319179999999999
1629709742578,-0.379725,-0.227347,-0.80093
1629709742588,-0.369233,-0.299083,-1.013942
1629709742597,-0.460428,-0.383812,-1.226466
1629709742607,-0.417118,-0.30744,-1.269471
1629709742616,-0.630191,-0.372954,-1.508896
1629709742626,-0.899018,-0.576328,-1.9479739999999999
1629709742636,-0.679052,-0.47763,-1.998604
1629709742645,-0.686372,-0.345931,-1.7207489999999999
1629709742655,-0.572607,-0.262971,-1.681099
1629709742664,-0.472323,-0.198311,-1.563247
1629709742674,-0.451827,-0.19519999999999998,-1.453203
1629709742684,-0.46665,-0.259982,-1.43594
1629709742693,-0.499712,-0.31659,-1.408917
1629709742703,-0.447679,-0.301584,-1.284904
1629709742712,-0.373625,-0.25986,-1.084519
1629709742722,-0.29951,-0.225578,-0.910486
1629709742732,-0.21106,-0.194712,-0.752008
1629709742741,-0.157197,-0.191113,-0.632082
1629709742751,-0.101626,-0.163907,-0.509594
1629709742760,-0.014274,-0.10309,-0.343674
1629709742770,0.051422999999999996,-0.044591,-0.182939
1629709742780,0.07137,-0.035868,-0.12486699999999999
1629709742789,0.081069,-0.050386,-0.142557
1629709742799,0.079056,-0.056547,-0.164212
1629709742808,0.066856,-0.04087,-0.163114
1629709742818,0.074542,-0.009516,-0.149023
1629709742828,0.07747,0.029158,-0.129198
1629709742837,0.045689,0.034892,-0.17885199999999998
1629709742847,-0.059657999999999996,-0.009028,-0.35221399999999997
1629709742856,-0.266631,-0.193004,-0.806115
1629709742866,-0.309087,-0.309392,-1.22915
1629709742876,-0.430477,-0.359046,-1.345965
1629709742885,-0.417911,-0.324886,-1.176934
1629709742895,-0.352946,-0.294996,-1.038708
1629709742904,-0.38856999999999997,-0.309148,-1.028521
1629709742914,-0.41717899999999997,-0.323422,-1.109102
1629709742924,-0.3843,-0.30134,-1.1758359999999999
1629709742933,-0.452498,-0.294142,-1.325347
1629709742943,-0.757559,-0.482266,-1.741916
1629709742952,-0.55693,-0.47336,-1.9610889999999999
1629709742962,-0.518744,-0.435479,-1.9397389999999999
1629709742972,-0.6667299999999999,-0.469883,-1.832074
1629709742981,-0.606645,-0.40760199999999996,-1.6668859999999999
1629709742991,-0.45200999999999997,-0.335927,-1.488949
1629709743000,-0.47207899999999997,-0.35563,-1.442101
1629709743010,-0.494405,-0.349225,-1.275449
1629709743020,-0.455487,-0.34038,-1.292956
1629709743029,-0.462258,-0.312198,-1.160159
1629709743039,-0.424194,-0.24204799999999999,-0.97478
1629709743048,-0.369477,-0.160125,-0.780739
1629709743058,-0.34507699999999997,-0.094794,-0.5940179999999999
1629709743068,-0.244671,-0.000549,-0.440237
1629709743077,-0.145546,0.11114199999999999,-0.302926
1629709743087,-0.060451,0.208925,-0.207766
1629709743096,-0.0071979999999999995,0.239791,-0.21655
1629709743106,0.038003,0.237595,-0.248636
1629709743116,0.01952,0.224724,-0.25986
1629709743125,-0.017446,0.177998,-0.303719
1629709743135,-0.04209,0.12864899999999999,-0.350811
1629709743144,-0.054473,0.104798,-0.363133
1629709743154,-0.07124799999999999,0.109495,-0.337513
1629709743164,-0.10638399999999999,0.111569,-0.372039
1629709743173,-0.199409,0.044835,-0.564982
1629709743183,-0.36417,-0.17629,-0.940437
1629709743192,-0.401075,-0.361547,-1.240252
1629709743202,-0.456097,-0.388814,-1.249219
1629709743212,-0.455792,-0.34404,-1.123925
1629709743221,-0.366244,-0.234484,-1.021567
1629709743231,-0.311954,-0.224602,-1.112457
1629709743240,-0.368928,-0.289079,-1.315404
1629709743250,-0.512888,-0.325069,-1.445883
1629709743260,-0.688751,-0.378444,-1.593747
1629709743269,-0.814838,-0.461526,-1.873859
1629709743279,-0.6916789999999999,-0.347395,-1.832989
1629709743288,-0.68015,-0.250405,-1.72325
1629709743298,-0.566812,-0.147803,-1.555744
1629709743308,-0.490562,-0.130357,-1.480531
1629709743317,-0.430965,-0.14652199999999999,-1.409344
1629709743327,-0.417911,-0.205326,-1.353834
1629709743336,-0.409981,-0.243146,-1.287893
1629709743346,-0.39131499999999997,-0.233508,-1.163514
1629709743356,-0.318847,-0.196664,-1.025288
1629709743365,-0.226188,-0.144814,-0.869006
1629709743375,-0.11901099999999999,-0.084546,-0.728218
1629709743384,-0.049166,-0.058377,-0.631289
1629709743394,0.001464,-0.038857,-0.545828
1629709743404,0.032695999999999996,-0.015372,-0.446398
1629709743413,0.10144299999999999,0.010614,-0.317322
1629709743423,0.14066599999999999,0.036234,-0.184464
1629709743432,0.135969,0.027511,-0.119743
1629709743442,0.130296,0.019275999999999998,-0.118767
1629709743452,0.105896,0.015493999999999999,-0.17324
1629709743461,0.110776,0.041724,-0.222467
1629709743471,0.12993,0.095648,-0.222406
1629709743480,0.132614,0.138409,-0.206119
1629709743490,0.12078,0.142435,-0.249368
1629709743500,0.055693,0.143838,-0.402478
1629709743509,-0.237595,-0.062525,-0.893711
1629709743519,-0.324947,-0.303414,-1.453386
1629709743528,-0.581635,-0.430843,-1.615951
1629709743538,-0.521733,-0.34568699999999997,-1.364692
1629709743548,-0.470554,-0.327692,-1.219756
1629709743557,-0.447801,-0.328363,-1.128805
1629709743567,-0.415776,-0.311588,-1.088911
1629709743576,-0.544913,-0.412665,-1.254892
1629709743586,-0.576816,-0.36417,-1.415078
1629709743596,-0.723582,-0.493612,-1.867149
1629709743605,-0.422364,-0.359412,-1.998604
1629709743615,-0.562908,-0.389424,-1.998604
1629709743624,-0.648796,-0.35929,-1.883375
1629709743634,-0.593164,-0.327692,-1.735877
1629709743644,-0.496845,-0.274927,-1.370975
1629709743653,-0.552843,-0.316956,-1.305095
1629709743663,-0.5715089999999999,-0.319152,-1.182607
1629709743672,-0.532286,-0.312625,-1.232505
1629709743682,-0.5173409999999999,-0.254492,-1.1219729999999999
1629709743692,-0.424133,-0.16043,-0.9806969999999999
1629709743701,-0.302804,-0.069845,-0.84546
1629709743711,-0.238266,0.012199999999999999,-0.62769
1629709743720,-0.10858,0.097173,-0.465369
1629709743730,-0.027206,0.175741,-0.333792
1629709743740,0.000244,0.22942099999999999,-0.199409
1629709743749,0.055693,0.27358499999999997,-0.158905
1629709743759,0.074847,0.280783,-0.156038
1629709743768,0.047945999999999996,0.262422,-0.152927
1629709743778,0.013115,0.213012,-0.20136099999999998
1629709743788,-0.00042699999999999997,0.144814,-0.267668
1629709743797,0.014518,0.086925,-0.281454
1629709743807,0.011285,0.053436,-0.238815
1629709743816,-0.03599,0.035746,-0.22197899999999998
1629709743826,-0.157746,-0.011041,-0.351482
1629709743836,-0.408029,-0.212707,-0.7999539999999999
1629709743845,-0.470554,-0.452986,-1.306254
1629709743855,-0.599325,-0.598044,-1.529819
1629709743864,-0.491233,-0.440115,-1.202005
1629709743874,-0.320006,-0.258274,-0.858148
1629709743884,-0.178059,-0.137128,-0.782142
1629709743893,-0.28621199999999997,-0.191723,-0.990579
1629709743903,-0.567056,-0.323971,-1.352858
1629709743912,-0.9472079999999999,-0.374418,-1.449848
1629709743922,-0.8763259999999999,-0.362218,-1.796084
1629709743932,-0.650138,-0.257176,-1.844396
1629709743941,-0.7817149999999999,-0.253577,-1.822436
1629709743951,-0.747006,-0.15481799999999998,-1.645414
1629709743960,-0.627202,-0.076372,-1.4807139999999999
1629709743970,-0.533262,-0.067039,-1.371036
1629709743980,-0.525637,-0.128283,-1.39324
1629709743989,-0.566263,-0.215879,-1.398852
1629709743999,-0.529358,-0.234972,-1.363777
1629709744008,-0.502884,-0.240218,-1.23708
1629709744018,-0.42273,-0.201483,-1.054446
1629709744028,-0.320799,-0.165554,-0.867359
1629709744037,-0.220881,-0.126453,-0.705221
1629709744047,-0.11699799999999999,-0.082228,-0.571692
1629709744056,-0.053314,-0.060329,-0.467748
1629709744066,-0.0048189999999999995,-0.023058,-0.352275
1629709744076,0.034831,0.013725,-0.252113
1629709744085,0.07381,0.044164,-0.185989
1629709744095,0.082838,0.053314,-0.164883
1629709744104,0.079056,0.049715,-0.173484
1629709744114,0.077348,0.050813,-0.169885
1629709744124,0.075213,0.056181,-0.136091
1629709744133,0.057828,0.058316,-0.097966
1629709744143,-0.001098,0.02867,-0.149572
1629709744152,-0.161101,-0.055998,-0.416447
1629709744162,-0.312137,-0.249002,-0.924638
1629709744172,-0.317139,-0.300669,-1.213046
1629709744181,-0.530273,-0.38978999999999997,-1.319918
1629709744191,-0.48440099999999997,-0.320311,-1.212253
1629709744200,-0.431575,-0.273829,-1.102697
1629709744210,-0.440176,-0.251808,-1.034804
1629709744220,-0.37685799999999997,-0.236863,-1.058777
1629709744229,-0.438041,-0.292007,-1.195661
1629709744239,-0.723948,-0.384483,-1.487607
1629709744248,-0.842532,-0.477203,-1.880081
1629709744258,-0.645929,-0.391864,-1.998604
1629709744268,-0.816607,-0.38978999999999997,-1.863489
1629709744277,-0.7838499999999999,-0.308538,-1.67994
1629709744287,-0.579317,-0.22417499999999999,-1.525244
1629709744296,-0.5632739999999999,-0.238571,-1.406294
1629709744306,-0.585966,-0.263276,-1.318576
1629709744316,-0.563152,-0.273829,-1.299117
1629709744325,-0.528565,-0.262361,-1.253916
1629709744335,-0.506117,-0.220271,-1.126487
1629709744344,-0.449631,-0.162687,-0.9727669999999999
1629709744354,-0.381982,-0.085461,-0.758352
1629709744364,-0.29365399999999997,-0.008052,-0.567971
1629709744373,-0.197518,0.044042,-0.439017
1629709744383,-0.138531,0.111447,-0.279624
1629709744392,-0.066307,0.19886,-0.145363
1629709744402,-0.016347999999999998,0.244305,-0.095831
1629709744412,-0.0048189999999999995,0.244976,-0.111813
1629709744421,-0.04331,0.209291,-0.155367
1629709744431,-0.030378,0.183976,-0.20618
1629709744440,-0.059352999999999996,0.125294,-0.266814
1629709744450,-0.040809,0.096746,-0.295667
1629709744460,-0.045384,0.094184,-0.285785
1629709744469,-0.095953,0.07991,-0.34721199999999997
1629709744479,-0.215696,0.006222,-0.572241
1629709744488,-0.377346,-0.207705,-0.99491
1629709744498,-0.473238,-0.380579,-1.358836
1629709744508,-0.436394,-0.398147,-1.390373
1629709744517,-0.39772,-0.271816,-1.065426
1629709744527,-0.232044,-0.121146,-0.909266
1629709744536,-0.28243,-0.09211,-0.965935
1629709744546,-0.67466,-0.280966,-1.367559
1629709744556,-0.67283,-0.229482,-1.324188
1629709744565,-0.700036,-0.181902,-1.467538
1629709744575,-0.789462,-0.286761,-1.696715
1629709744584,-0.75518,-0.262117,-1.862879
1629709744594,-0.749751,-0.19093,-1.719468
1629709744604,-0.703879,-0.146156,-1.5664799999999999
1629709744613,-0.64172,-0.159698,-1.481385
1629709744623,-0.562237,-0.160613,-1.393423
1629709744632,-0.595726,-0.232959,-1.379027
1629709744642,-0.549183,-0.265411,-1.381772
1629709744652,-0.533628,-0.257054,-1.265018
1629709744661,-0.501786,-0.235216,-1.132404
1629709744671,-0.396134,-0.205326,-0.99979
1629709744680,-0.283101,-0.167872,-0.836432
1629709744690,-0.159271,-0.10126,-0.6560549999999999
1629709744700,-0.090646,-0.059962999999999995,-0.530029
1629709744709,-0.055022,-0.036722,-0.469029
1629709744719,0.024522,0.026474,-0.370148
1629709744728,0.096807,0.07649399999999999,-0.25864
1629709744738,0.115839,0.07991,-0.202459
1629709744748,0.103883,0.052582,-0.202947
1629709744757,0.067161,0.029707,-0.218197
1629709744767,0.055022,0.025498,-0.231434
1629709744776,0.075823,0.045384,-0.216306
1629709744786,0.080459,0.060511999999999996,-0.224358
1629709744796,0.05368,0.05002,-0.310856
1629709744805,-0.053436,0.016653,-0.513559
1629709744815,-0.310124,-0.203435,-0.990457
1629709744824,-0.300974,-0.301889,-1.335351
1629709744834,-0.5374099999999999,-0.414312,-1.380674
1629709744844,-0.470432,-0.35868,-1.204811
1629709744853,-0.396683,-0.302011,-1.058716
1629709744863,-0.426634,-0.285175,-1.019798
1629709744872,-0.440969,-0.236741,-1.066341
1629709744882,-0.573217,-0.275293,-1.239581
1629709744892,-0.726876,-0.341173,-1.485411
1629709744901,-0.572668,-0.24827,-1.564894
1629709744911,-0.622871,-0.34202699999999997,-1.9403489999999999
1629709744920,-0.72407,-0.361852,-1.857572
1629709744930,-0.575718,-0.264679,-1.69214
1629709744940,-0.599386,-0.280905,-1.608631
1629709744949,-0.591761,-0.301096,-1.4834589999999999
1629709744959,-0.670512,-0.33214499999999997,-1.396168
1629709744968,-0.615551,-0.302804,-1.334558
1629709744978,-0.531188,-0.266265,-1.277218
1629709744988,-0.521184,-0.23851,-1.122156
1629709744997,-0.4392,-0.16713999999999998,-0.940254
1629709745007,-0.331352,-0.082716,-0.756095
1629709745016,-0.270962,-0.025986,-0.5873079999999999
1629709745026,-0.152927,0.071736,-0.42431599999999997
1629709745036,-0.08588799999999999,0.149755,-0.258335
1629709745045,-0.035929,0.199226,-0.177998
1629709745055,0.038308,0.23588699999999999,-0.14884
1629709745064,0.048251,0.24095,-0.149206
1629709745074,0.01891,0.21838,-0.15494
1629709745084,-0.01769,0.172569,-0.188368
1629709745093,-0.044896,0.12871,-0.224724
1629709745103,-0.057523,0.104554,-0.218258
1629709745112,-0.084485,0.099613,-0.198982
1629709745122,-0.176839,0.067344,-0.304268
1629709745132,-0.304512,-0.042943999999999996,-0.6168319999999999
1629709745141,-0.352397,-0.177876,-0.958249
1629709745151,-0.543632,-0.372283,-1.250622
1629709745160,-0.457073,-0.35861899999999997,-1.223233
1629709745170,-0.45597499999999996,-0.327204,-1.011868
1629709745180,-0.409554,-0.307684,-1.034011
1629709745189,-0.362828,-0.29395899999999997,-1.201761
1629709745199,-0.316224,-0.24631799999999998,-1.281976
1629709745208,-0.44395799999999996,-0.209596,-1.307291
1629709745218,-0.949831,-0.36844,-1.746003
1629709745228,-0.980941,-0.427183,-1.836771
1629709745237,-1.067561,-0.361608,-1.967128
1629709745247,-0.915793,-0.155306,-1.39812
1629709745256,-0.901458,-0.174399,-1.522133
1629709745266,-0.723704,-0.057218,-1.366156
1629709745276,-0.676734,-0.086986,-1.313208
1629709745285,-0.6344,-0.165859,-1.364997
1629709745295,-0.585844,-0.227652,-1.350784
1629709745304,-0.522953,-0.237778,-1.211765
1629709745314,-0.456158,-0.240035,-1.062986
1629709745324,-0.33183999999999997,-0.201605,-0.9076799999999999
1629709745333,-0.26535,-0.193736,-0.768295
1629709745343,-0.174826,-0.155794,-0.642452
1629709745352,-0.084058,-0.123769,-0.537227
1629709745362,0.032269,-0.06770999999999999,-0.388631
1629709745372,0.119133,-0.008479,-0.23094599999999998
1629709745381,0.173118,0.043066,-0.140422
1629709745391,0.172264,0.04087,-0.152195
1629709745400,0.14152,-0.001769,-0.226737
1629709745410,0.11053199999999999,-0.0037819999999999998,-0.253272
1629709745420,0.085522,0.016287,-0.205814
1629709745429,0.06831999999999999,0.031354,-0.138409
1629709745439,0.035746,0.040199,-0.118523
1629709745448,-0.048556,0.042943999999999996,-0.23094599999999998
1629709745458,-0.27114499999999997,-0.042761,-0.633119
1629709745468,-0.304573,-0.166896,-1.151131
1629709745477,-0.35465399999999997,-0.18934399999999998,-1.283745
1629709745487,-0.615368,-0.34294199999999997,-1.34749
1629709745496,-0.481351,-0.204472,-1.110627
1629709745506,-0.477508,-0.228628,-1.0885449999999999
1629709745516,-0.467931,-0.220332,-1.13155
1629709745525,-0.496662,-0.254614,-1.239581
1629709745535,-0.505263,-0.253455,-1.362496
1629709745544,-0.559431,-0.23460599999999998,-1.5503149999999999
1629709745554,-0.661911,-0.307989,-1.874774
1629709745564,-0.795745,-0.408151,-1.998604
1629709745573,-0.701073,-0.32256799999999997,-1.91052
1629709745583,-0.536556,-0.210328,-1.63053
1629709745592,-0.456402,-0.179889,-1.501759
1629709745602,-0.464393,-0.205631,-1.417335
1629709745612,-0.398452,-0.14066599999999999,-1.165466
1629709745621,-0.477691,-0.20721699999999998,-1.238666
1629709745631,-0.47970399999999996,-0.17330099999999998,-1.065548
1629709745640,-0.440969,-0.142862,-0.991128
1629709745650,-0.45017999999999997,-0.126819,-0.8942599999999999
1629709745660,-0.348188,-0.050203,-0.700463
1629709745669,-0.226676,0.028426,-0.49898
1629709745679,-0.16958,0.075091,-0.37533299999999997
1629709745688,-0.056119999999999996,0.150914,-0.23893699999999998
1629709745698,0.025131999999999998,0.196542,-0.127673
1629709745708,0.021289,0.18318299999999998,-0.08204499999999999
1629709745717,-0.026962,0.142618,-0.079056
1629709745727,-0.041297,0.127795,-0.087291
1629709745736,-0.05795,0.116937,-0.099308
1629709745746,-0.083814,0.076128,-0.162748
1629709745756,-0.117547,0.041968,-0.255041
1629709745765,-0.195871,-0.009882,-0.400953
1629709745775,-0.331596,-0.074847,-0.655811
1629709745784,-0.447252,-0.234545,-1.071526
1629709745794,-0.41175,-0.27938,-1.3124149999999999
1629709745804,-0.455548,-0.30561,-1.266726
1629709745813,-0.376309,-0.236314,-1.05835
1629709745823,-0.346236,-0.167872,-0.9256139999999999
1629709745832,-0.444934,-0.2623,-1.1271579999999999
1629709745842,-0.320799,-0.206424,-1.229272
1629709745852,-0.554612,-0.172508,-1.240618
1629709745861,-0.899506,-0.25376,-1.590941
1629709745871,-0.953796,-0.313662,-1.691408
1629709745880,-1.214998,-0.225456,-1.781139
1629709745890,-1.06323,-0.023972999999999998,-1.523475
1629709745900,-1.408368,-0.216489,-1.6102779999999999
1629709745909,-0.894931,0.087474,-1.44448
1629709745919,-0.675514,0.084241,-1.041026
1629709745928,-0.862174,0.036051,-1.2713619999999999
1629709745938,-0.783362,0.005307,-1.204384
1629709745948,-0.630923,0.012505,-1.078907
1629709745957,-0.48007,0.020374,-0.919697
1629709745967,-0.358741,0.024522,-0.774151
1629709745976,-0.247965,0.049166,-0.6414759999999999
1629709745986,-0.17141,0.06344,-0.543632
1629709745996,-0.086254,0.089243,-0.461038
1629709746005,0.009637999999999999,0.096685,-0.366732
1629709746015,0.07417599999999999,0.10248,-0.265472
1629709746024,0.09528199999999999,0.102907,-0.197152
1629709746034,0.084607,0.10144299999999999,-0.16713999999999998
1629709746044,0.040382,0.10187,-0.181231
1629709746053,-0.006527,0.09406199999999999,-0.236558
1629709746063,-0.006222,0.100162,-0.242231
1629709746072,0.010369999999999999,0.122671,-0.196542
1629709746082,-0.0305,0.138409,-0.23241
1629709746092,-0.221247,0.15799,-0.508679
1629709746101,-0.43968799999999997,0.087718,-1.011868
1629709746111,-0.487085,0.090646,-1.25294
1629709746120,-0.888709,-0.142923,-1.430633
1629709746130,-0.629581,-0.0053679999999999995,-1.27978
1629709746140,-0.555466,-0.016226,-1.1344779999999999
1629709746149,-0.5182559999999999,-0.007625,-1.052555
1629709746159,-0.65026,-0.042578,-1.10044
1629709746168,-0.63989,-0.034404,-1.241655
1629709746178,-0.721996,0.043248999999999996,-1.286734
1629709746188,-0.920063,-0.022021,-1.599115
1629709746197,-0.96319,-0.061426999999999995,-1.855559
1629709746207,-0.9523929999999999,-0.041846,-1.802916
1629709746216,-0.852536,-0.021716,-1.610766
1629709746226,-0.720105,0.0071979999999999995,-1.439722
1629709746236,-0.642269,0.023424,-1.284538
1629709746245,-0.649833,-0.029707,-1.219268
1629709746255,-0.624396,-0.052216,-1.159732
1629709746264,-0.569435,-0.0034159999999999998,-1.0282769999999999
1629709746274,-0.522282,0.011346,-0.967155
1629709746284,-0.460123,0.101199,-0.771894
1629709746293,-0.4758,0.10187,-0.659593
1629709746303,-0.392352,0.147498,-0.511119
1629709746312,-0.23485,0.219783,-0.400099
1629709746322,-0.107482,0.253333,-0.283833
1629709746332,-0.038064,0.271694,-0.175558
1629709746341,-0.041419,0.269376,-0.1159
1629709746351,-0.039528,0.286761,-0.097356
1629709746360,-0.057279,0.293105,-0.108641
1629709746370,-0.076067,0.289323,-0.160308
1629709746380,-0.099003,0.264496,-0.255712
1629709746389,-0.100589,0.23064099999999998,-0.352092
1629709746399,-0.108275,0.20252,-0.395829
1629709746408,-0.167811,0.20227599999999998,-0.42944
1629709746418,-0.348432,0.190442,-0.625555
1629709746428,-0.535946,0.08003199999999999,-1.023702
1629709746437,-0.726022,-0.043127,-1.340292
1629709746447,-0.7035129999999999,-0.088694,-1.355786
1629709746456,-0.5885279999999999,0.031842,-1.051335
1629709746466,-0.338367,0.207949,-0.850218
1629709746476,-0.46421,0.288957,-0.952515
1629709746485,-0.481046,0.266509,-1.108309
1629709746495,-0.878034,0.083021,-1.275998
1629709746504,-1.061583,0.166652,-1.2266489999999999
1629709746514,-0.8741909999999999,-0.046116,-1.5141419999999999
1629709746524,-1.330349,0.22997,-1.858792
1629709746533,-1.800781,0.330742,-1.260748
1629709746543,-1.113799,0.438102,-1.10349
1629709746552,-0.949282,0.455304,-1.19133
1629709746562,-0.932873,0.390156,-1.100867
1629709746572,-0.883707,0.334646,-1.0404769999999999
1629709746581,-0.839116,0.31598,-1.100562
1629709746591,-0.851438,0.24046199999999998,-1.0392569999999999
1629709746600,-0.805627,0.17751,-0.924821
1629709746610,-0.648491,0.17671699999999999,-0.805322
1629709746620,-0.505995,0.169702,-0.687653
1629709746629,-0.233142,0.206241,-0.532225
1629709746639,-0.181109,0.170068,-0.42675599999999997
1629709746648,-0.07564,0.190198,-0.396439
1629709746658,0.048312,0.202642,-0.26156799999999997
1629709746668,0.100894,0.21368299999999998,-0.182634
1629709746677,0.090097,0.21228,-0.157075
1629709746687,0.048494999999999996,0.204655,-0.191296
1629709746696,0.017079999999999998,0.204411,-0.220088
1629709746706,0.062952,0.234118,-0.185501
1629709746716,0.090341,0.244,-0.137067
1629709746725,0.052582,0.235948,-0.15677
1629709746735,0.023912,0.251076,-0.23863199999999998
1629709746744,-0.134078,0.308172,-0.346053
1629709746754,-0.555283,0.31768799999999997,-0.724924
1629709746764,-0.742065,0.31415,-1.180045
1629709746773,-0.905057,0.265777,-1.195722
1629709746783,-0.8757159999999999,0.185501,-1.0404769999999999
1629709746792,-0.858514,0.139934,-1.012112
1629709746802,-0.842471,0.08326499999999999,-1.084153
1629709746812,-0.879315,0.063318,-1.104039
1629709746821,-0.8997499999999999,0.01525,-1.260321
1629709746831,-0.9272,0.080825,-1.284355
1629709746840,-0.999729,0.126636,-1.5193269999999999
1629709746850,-1.1335629999999999,0.204289,-1.669387
1629709746860,-1.477847,-0.041907,-1.7058039999999999
1629709746869,-1.057862,0.192211,-1.381955
1629709746879,-0.806542,0.241926,-1.186389
1629709746888,-0.712846,0.219478,-1.111664
1629709746898,-0.713029,0.128161,-1.076406
1629709746908,-0.686616,0.091805,-1.037915
1629709746917,-0.650931,0.080825,-0.978928
1629709746927,-0.679235,0.063806,-0.887855
1629709746936,-0.741638,0.027572,-0.8130689999999999
1629709746946,-0.48257099999999997,0.144326,-0.600789
1629709746956,-0.357887,0.181292,-0.42675599999999997
1629709746965,-0.22447999999999999,0.232044,-0.293288
1629709746975,-0.125416,0.275354,-0.16836
1629709746984,-0.087169,0.272426,-0.098698
1629709746994,-0.074298,0.25973799999999997,-0.088572
1629709747004,-0.061915,0.261202,-0.091683
1629709747013,-0.051179,0.274988,-0.09333
1629709747023,-0.049776,0.284199,-0.120902
1629709747032,-0.072041,0.275964,-0.182634
1629709747042,-0.092171,0.270962,-0.24820899999999999
1629709747052,-0.216428,0.25973799999999997,-0.326411
1629709747061,-0.349896,0.25315,-0.508313
1629709747071,-0.526308,0.21215799999999999,-0.7804949999999999
1629709747080,-0.7047329999999999,0.117425,-1.050298
1629709747090,-0.770857,0.044957,-1.120997
1629709747100,-0.716506,0.056608,-0.9560529999999999
1629709747109,-0.537898,0.155001,-0.81374
1629709747119,-0.171288,0.422425,-0.756217
1629709747128,-0.450241,0.455792,-0.901946
1629709747138,-1.290943,0.471286,-1.431365
1629709747148,-1.0790899999999999,-0.712541,-1.402878
1629709747157,-0.29639899999999997,-1.998604,-1.998604
1629709747167,1.998604,-0.666669,-1.998604
1629709747176,1.998604,1.261114,1.998604
1629709747186,-1.998604,0.940681,1.167296
1629709747196,0.954772,0.045262,0.702903
1629709747205,1.253794,-1.2370189999999999,-1.998604
1629709747215,-0.915793,1.940898,-1.433317
1629709747224,1.998604,1.998604,1.056886
1629709747234,1.108492,1.9936019999999999,-1.998604
1629709747244,0.079361,-1.983598,-1.998604
1629709747253,1.998604,-0.521733,-0.133529
1629709747263,0.683383,-1.16144,-0.391681
1629709747272,-1.612047,-1.998604,-1.998604
1629709747282,1.998604,1.998604,-0.033611
1629709747292,-1.998604,1.998604,-1.998604
1629709747301,1.998604,1.907714,-1.073051
1629709747311,1.357067,-0.11254499999999999,-0.82411
1629709747320,1.559892,-0.38247,-0.36722
1629709747330,0.999912,-1.541958,-0.298778
1629709747340,0.371856,-1.298995,-0.051545
1629709747349,-0.501298,-0.5888329999999999,-0.869555
1629709747359,0.329522,0.357033,-0.069174
1629709747368,0.496601,1.0261419999999999,0.358558
1629709747378,0.605486,0.6110369999999999,0.146888
1629709747388,-0.48373,-0.491294,-0.865651
1629709747397,0.051606,-1.441552,-0.42858599999999997
1629709747407,-0.044712999999999996,-1.5728849999999999,-0.653554
1629709747416,1.35359,-0.580598,-0.524966
1629709747426,1.998604,0.389241,-0.7333419999999999
1629709747436,1.998604,0.956175,-1.075491
1629709747445,1.998604,1.298568,-0.6119519999999999
1629709747455,0.790377,1.4538739999999999,-0.77043
1629709747464,1.998604,1.998604,-1.998604
1629709747474,1.998604,-0.49733299999999997,-1.998604
1629709747484,1.711355,-0.453962,-0.204716
1629709747493,1.207739,-0.43511299999999997,-0.709979
1629709747503,1.697996,1.002962,-0.658007
1629709747512,1.78547,1.824022,-0.10004
1629709747522,-0.323056,0.98515,-1.024129
1629709747532,-0.398513,0.479826,-1.128561
1629709747541,0.23680199999999998,0.010309,-0.951112
1629709747551,1.998604,0.457683,-0.278282
1629709747560,-0.049898,1.383907,-1.998604
1629709747570,1.998604,1.151314,-0.268034
1629709747580,-0.201178,0.639707,-0.86742
1629709747589,0.8857809999999999,0.659837,-0.45688999999999996
1629709747599,1.763998,0.711382,-0.182939
1629709747608,0.109556,-0.35160399999999997,-0.725046
1629709747618,-0.113643,-0.479582,-0.481351
1629709747628,-0.580903,-0.30475599999999997,-0.37563799999999997
1629709747637,-1.765096,-0.637572,-0.897432
1629709747647,-1.7933999999999999,-0.67466,-1.172725
1629709747656,-0.611281,-0.1708,-0.513864
1629709747666,1.951085,0.40028199999999997,0.135481
1629709747676,1.998604,0.798673,0.35800899999999997
1629709747685,-0.122061,0.478667,-0.18544
1629709747695,-0.625799,-0.14652199999999999,-0.724741
1629709747704,0.448289,-0.44090799999999997,-0.310429
1629709747714,0.538569,-0.720532,-0.20380099999999998
1629709747724,0.11834,-0.45322999999999997,-0.396988
1629709747733,0.23619199999999999,0.286883,-0.07649399999999999
1629709747743,0.099247,0.357643,-0.026779
1629709747752,0.452742,0.095038,-0.131394
1629709747762,-0.221247,1.998604,0.076555
1629709747772,1.319308,1.998604,-0.100955
1629709747781,1.3395599999999999,1.128256,1.070062
1629709747791,-0.098454,0.311039,1.253184
1629709747800,1.884839,1.998604,1.101965
1629709747810,-0.512278,1.998604,-0.665632
1629709747820,0.62159,1.998604,-1.3328499999999999
1629709747829,1.690249,1.998604,-0.877302
1629709747839,1.919548,1.998604,-1.323578
1629709747848,0.351543,-0.520147,-1.621014
1629709747858,1.378661,-1.65859,0.105286
1629709747868,1.3111949999999999,-1.94346,0.040382
1629709747877,1.150399,0.02013,-1.21756
1629709747887,1.998604,1.998604,-0.69113
1629709747896,1.345111,1.998604,0.491477
1629709747906,0.398574,1.659017,0.214354
1629709747916,-0.020801,-0.210755,-0.077836
1629709747925,0.731024,-1.1715659999999999,0.564433
1629709747935,0.31738299999999997,-1.808772,0.192882
1629709747944,0.367708,-0.037698,-0.900177
1629709747954,1.360361,1.998604,-0.225334
1629709747964,0.351177,1.998604,0.487024
1629709747973,0.764025,1.374574,0.726693
1629709747983,0.676978,0.038613,0.528443
1629709747992,0.255834,-1.348466,0.407175
1629709748002,1.4329509999999999,-0.1891,-1.998604
1629709748012,1.351333,-0.151524,-1.998604
1629709748021,0.858148,-0.24583,-0.820877
1629709748031,0.175924,0.324154,0.778726
1629709748040,0.582794,-0.52704,1.467843
1629709748050,0.889746,-0.6430009999999999,1.102636
1629709748060,1.595089,-0.623115,0.538386
1629709748069,1.307352,-0.710589,-0.188002
1629709748079,0.716811,-0.28243,-0.7281569999999999
1629709748088,1.998604,0.423584,-0.814045
1629709748098,1.998604,0.446276,-1.320284
1629709748108,1.7751,0.172874,-1.5214619999999999
1629709748117,1.045296,0.5462549999999999,-1.3383399999999999
1629709748127,0.468358,0.856684,-0.57584
1629709748136,0.864675,0.08912099999999999,0.434503
1629709748146,1.522194,-0.68503,1.2266489999999999
1629709748156,1.998604,-0.042273,1.251049
1629709748165,1.998604,-0.141825,-0.152805
1629709748175,1.998604,-0.811605,-1.688236
1629709748184,-0.414922,-1.63602,-1.443748
1629709748194,1.648708,0.874069,-0.173789
1629709748204,1.998604,1.331264,-0.537959
1629709748213,-1.998604,-1.179984,-1.998604
1629709748223,1.998604,-1.228723,-0.223748
1629709748232,1.998604,1.998604,-0.8264279999999999
1629709748242,-1.766438,-0.86498,-1.0833599999999999
1629709748252,1.998604,1.998604,-1.823778
1629709748261,-1.998604,-1.998604,-1.998604
1629709748271,1.998604,1.572641,1.182119
1629709748280,0.688446,-1.998604,-1.6632259999999999
1629709748290,1.998604,1.998604,0.062098
1629709748300,0.142618,0.382775,-1.787971
1629709748309,1.998604,1.998604,1.998604
1629709748319,1.998604,1.998604,0.7884249999999999
1629709748328,1.998604,1.735938,0.818254
1629709748338,1.998604,0.566873,1.235982
1629709748348,1.998604,-0.749446,-1.224453
1629709748357,1.998604,1.998604,0.284626
1629709748367,1.998604,1.998604,-0.528199
1629709748376,0.837347,1.044198,-1.998604
1629709748386,0.732793,-1.6163779999999999,-1.998604
1629709748396,1.998604,-1.748931,-1.502003
1629709748405,1.998604,1.972191,0.45444999999999997
1629709748415,0.094733,1.998604,-0.40607699999999997
1629709748424,1.998604,1.998604,-0.535153
1629709748434,1.998604,1.998604,-1.684332
1629709748444,1.998604,0.722484,-1.998604
1629709748453,-0.573095,-1.998604,-1.998604
1629709748463,1.998604,-1.998604,-0.523563
1629709748472,1.998604,-1.486143,-1.998604
1629709748482,1.998604,1.698118,-1.998604
1629709748492,1.998604,1.998604,-1.386957
1629709748501,1.998604,1.998604,0.75396
1629709748511,1.998604,1.998604,-0.732976
1629709748520,1.502491,0.00732,-1.998604
1629709748530,-0.395951,-1.998604,-1.830305
1629709748540,0.117486,-1.612169,-1.254343
1629709748549,0.7902549999999999,0.22478499999999998,-0.38125
1629709748559,1.998604,1.02602,0.524905
1629709748568,1.998604,0.863394,1.127524
1629709748578,1.523475,-0.6916789999999999,-0.122122
1629709748588,1.261968,-1.783457,-0.359107
1629709748597,1.730692,-1.560502,-0.056852
1629709748607,1.998604,-0.608353,-0.175558
1629709748616,1.998604,0.835822,0.07808
1629709748626,1.998604,1.51097,-0.9262239999999999
1629709748636,1.5275619999999999,1.364204,-1.998604
1629709748645,0.80459,1.998604,-1.11813
1629709748655,1.136735,1.998604,-0.8583919999999999
1629709748664,0.641964,1.39568,-1.484801
1629709748674,0.210633,0.071614,-1.832196
1629709748684,0.5651039999999999,-0.983259,-1.024739
1629709748693,1.792058,-0.112057,-0.407175
1629709748703,-0.054168,0.712114,-0.356301
1629709748712,-0.34038,1.014491,-0.083143
1629709748722,1.998604,0.7786649999999999,0.154574
1629709748732,1.998604,-0.6600199999999999,-0.645624
1629709748741,-0.013542,-1.998604,-0.807457
1629709748751,-0.234728,-1.998604,-1.384456
1629709748760,0.098698,-1.051457,-1.998604
1629709748770,1.484008,0.661667,-1.998604
1629709748780,1.998604,1.998604,-1.419104
1629709748789,0.906521,1.998604,0.169763
1629709748799,1.585268,1.998604,-0.215635
1629709748808,0.37868799999999997,1.2850869999999999,-1.737036
1629709748818,-0.7047329999999999,0.328302,-1.589721
1629709748828,1.998604,1.084336,-0.020618
1629709748837,1.3610929999999999,-0.314089,0.262361
1629709748847,1.998604,-0.262117,0.763049
1629709748856,1.468941,-0.489708,0.305488
1629709748866,1.098976,0.017506999999999998,0.531554
1629709748876,1.149728,0.37698,0.9484279999999999
1629709748885,1.998604,1.0955599999999999,1.998604
1629709748895,1.998604,-1.998604,0.99369
1629709748904,1.998604,1.998604,-1.998604
1629709748914,1.998604,1.998604,-1.998604
1629709748924,1.998604,1.998604,-1.998604
1629709748933,1.998604,1.998604,-1.998604
1629709748943,1.998604,1.998604,-1.998604
1629709748952,1.998604,1.998604,-1.998604
1629709748962,1.998604,1.551901,-1.998604
1629709748972,1.998604,1.998604,-1.812798
1629709748981,1.998604,1.998604,1.067683
1629709748991,1.998604,1.400377,1.998604
1629709749000,1.998604,-1.998604,-1.0481019999999999
1629709749010,1.998604,1.998604,-1.998604
1629709749020,1.505114,1.998604,-1.998604
1629709749029,-0.40119699999999997,1.998604,-1.354932
1629709749039,1.998604,1.998604,0.629703
1629709749048,1.998604,1.998604,1.204323
1629709749058,1.998604,1.998604,-1.507615
1629709749068,1.998604,1.998604,-1.998604
1629709749077,1.998604,-1.998604,-1.998604
1629709749087,1.998604,0.467321,-1.998604
1629709749096,-1.390922,1.998604,-1.843725
1629709749106,-0.155611,1.998604,-1.998604
1629709749116,1.998604,-0.696925,-1.998604
1629709749125,-0.431392,-1.998604,-1.998604
1629709749135,1.998604,-1.998604,-1.998604
1629709749144,1.998604,1.998604,-1.998604
1629709749154,1.998604,1.998604,-1.094096
1629709749164,1.047004,1.998604,-1.9215609999999999
1629709749173,1.998604,1.665239,-1.998604
1629709749183,1.998604,-1.211155,-1.998604
1629709749192,1.998604,-0.657946,-0.56852
1629709749202,1.217072,-1.036695,-0.391254
1629709749212,1.594662,0.558638,-1.998604
1629709749221,1.692628,1.998604,-0.21716
1629709749231,1.998604,1.998604,1.015772
1629709749240,-0.994605,0.5234409999999999,-1.998604
1629709749250,-1.960235,-1.998604,-1.998604
1629709749260,1.998604,-1.998604,-1.998604
1629709749269,-1.73118,-1.998604,-1.998604
1629709749279,1.998604,1.998604,-0.928176
1629709749288,1.998604,1.998604,-1.998604
1629709749298,0.105713,1.998604,-1.998604
1629709749308,1.998604,1.998604,-1.998604
1629709749317,1.998604,1.998604,-1.998604
1629709749327,0.230092,0.908168,-1.998604
1629709749336,1.235311,-1.998604,-1.69214
1629709749346,1.998604,-1.998604,-1.998604
1629709749356,1.998604,1.998604,-1.998604
1629709749365,0.723521,1.998604,0.898652
1629709749375,1.998604,1.998604,-1.998604
1629709749384,0.084302,-1.092388,-1.998604
1629709749394,1.998604,-1.998604,-1.998604
1629709749404,-1.998604,-1.998604,-1.998604
1629709749413,1.998604,-1.998604,-1.998604
1629709749423,-1.862574,1.998604,-1.998604
1629709749432,1.998604,1.998604,-1.998604
1629709749442,1.998604,1.998604,-1.998604
1629709749452,1.998604,1.998604,-1.998604
1629709749461,1.998604,-1.998604,-1.998604
1629709749471,1.998604,-1.998604,-0.40821199999999996
1629709749480,1.998604,1.707268,-1.998604
1629709749490,1.998604,1.998604,0.115534
1629709749500,1.579168,1.998604,-0.653432
1629709749509,1.998604,1.998604,-1.815543
1629709749519,0.672098,1.998604,-1.998604
1629709749528,1.998604,1.998604,-1.998604
1629709749538,1.073234,-1.998604,-1.998604
1629709749548,1.998604,-1.6540759999999999,-0.093818
1629709749557,1.998604,1.998604,1.998604
1629709749567,-0.21655,-1.998604,-1.998604
1629709749576,1.294603,1.998604,-1.998604
1629709749586,1.998604,1.998604,0.312076
1629709749596,-1.998604,1.12972,-1.998604
1629709749605,1.998604,0.357765,0.039528
1629709749615,-0.733464,-0.9964959999999999,-0.418277
1629709749624,-1.998604,-1.46522,-1.014796
1629709749634,1.539091,1.998604,0.168848
1629709749644,-1.998604,1.998604,-1.079578
1629709749653,1.4210559999999999,1.867515,-0.5882229999999999
1629709749663,1.998604,-0.093513,-0.9222589999999999
1629709749672,-0.16530999999999998,-1.998604,-1.074271
1629709749682,1.998604,0.208986,-0.48928099999999997
1629709749692,-1.998604,1.818837,-1.269349
1629709749701,-0.328119,1.998604,-0.089304
1629709749711,0.9974109999999999,1.3821379999999999,-1.945168
1629709749720,1.998604,-1.917962,-1.326506
1629709749730,-0.344711,-1.4791889999999999,-1.998604
1629709749740,0.99918,1.51951,-1.998604
1629709749749,0.792573,-1.998604,-1.998604
1629709749759,0.637084,1.107333,0.126636
1629709749768,-0.037881,0.384971,0.413946
1629709749778,0.307684,-0.003111,0.663436
1629709749788,0.036782999999999996,-0.386923,0.948489
1629709749797,-0.152561,-0.71614,0.847046
1629709749807,-0.090585,-0.833809,0.644038
1629709749816,-0.13359,-0.521733,0.626653
1629709749826,-0.062464,0.07002799999999999,0.7342569999999999
1629709749836,0.34263699999999997,0.152744,0.486109
1629709749845,0.360022,0.026900999999999998,-0.024278
1629709749855,0.362706,-1.998604,-1.998604
1629709749864,0.48958599999999997,0.0025009999999999998,-0.302438
1629709749874,0.657519,-0.975329,-0.820877
1629709749884,-0.594994,-1.398425,-1.149179
1629709749893,0.537837,1.998604,-1.998604
1629709749903,0.7403569999999999,-1.591978,-1.207251
1629709749912,-0.099491,-0.021655,-1.0900699999999999
1629709749922,-0.042334,-0.212402,-1.104649
1629709749932,0.389302,-0.304207,-0.719617
1629709749941,0.237046,-0.877424,-0.450546
1629709749951,0.110654,-0.716506,-0.121146
1629709749960,0.16775,-0.825879,0.024217
1629709749970,0.136823,-0.758169,-0.081557
1629709749980,0.166042,-0.791109,-0.395829
1629709749989,0.188856,-0.700341,-0.582794
1629709749999,0.210328,-0.59719,-0.767502
1629709750008,0.16408999999999999,-0.53131,-0.909022
1629709750018,0.188856,-0.484828,-1.1442379999999999
1629709750028,0.23619199999999999,-0.459086,-1.13338
1629709750037,0.20996199999999998,-0.410164,-1.034865
1629709750047,0.212524,-0.434808,-0.986919
1629709750056,0.215635,-0.580842,-0.9311039999999999
1629709750066,0.182146,-0.55998,-0.79727
1629709750076,0.188002,-0.601887,-0.731451
1629709750085,0.198738,-0.641232,-0.67283
1629709750095,0.18849,-0.680882,-0.603229
1629709750104,0.17751,-0.70882,-0.587796
1629709750114,0.186904,-0.722911,-0.576938
1629709750124,0.190381,-0.700341,-0.584441
1629709750133,0.184647,-0.701256,-0.655567
1629709750143,0.198311,-0.666303,-0.684298
1629709750152,0.199653,-0.654408,-0.7345619999999999
1629709750162,0.20349599999999998,-0.6171369999999999,-0.769759
1629709750172,0.197762,-0.607438,-0.817156
1629709750181,0.202032,-0.579561,-0.8322229999999999
1629709750191,0.205326,-0.57584,-0.8735809999999999
1629709750200,0.20380099999999998,-0.560956,-0.86559
1629709750210,0.20618,-0.571387,-0.860283
1629709750220,0.202154,-0.5660189999999999,-0.813557
1629709750229,0.197213,-0.5842579999999999,-0.793793
1629709750239,0.198433,-0.58621,-0.777262
1629709750248,0.199714,-0.595299,-0.785314
1629709750258,0.192272,-0.598105,-0.768661
1629709750268,0.194224,-0.608719,-0.757498
1629709750277,0.197091,-0.624945,-0.760975
1629709750287,0.195383,-0.6128669999999999,-0.742614
1629709750296,0.196908,-0.610488,-0.749995
1629709750306,0.196176,-0.606157,-0.77165
1629709750316,0.19702999999999998,-0.602802,-0.79361
1629709750325,0.203679,-0.584197,-0.797514
1629709750335,0.20227599999999998,-0.59963,-0.821487
1629709750344,0.20191,-0.5921879999999999,-0.807091
1629709750354,0.199165,-0.5897479999999999,-0.794769
1629709750364,0.200995,-0.594445,-0.790072
1629709750373,0.202337,-0.592981,-0.783972
1629709750383,0.199165,-0.593652,-0.785741
1629709750392,0.19983599999999999,-0.602192,-0.7899499999999999
1629709750402,0.19702999999999998,-0.60085,-0.786046
1629709750412,0.19886,-0.605303,-0.780007
1629709750421,0.20014099999999999,-0.600667,-0.769576
1629709750431,0.198433,-0.602558,-0.771894
1629709750440,0.198372,-0.596031,-0.773907
1629709750450,0.19947,-0.598044,-0.791048
1629709750460,0.20044599999999999,-0.5934079999999999,-0.800381
1629709750469,0.202642,-0.592737,-0.805627
1629709750479,0.200019,-0.589565,-0.79971
1629709750488,0.201117,-0.592127,-0.792329
1629709750498,0.199592,-0.589931,-0.7844599999999999
1629709750508,0.199348,-0.592859,-0.783911
1629709750517,0.200507,-0.59292,-0.785741
1629709750527,0.198677,-0.59536,-0.792512
1629709750536,0.200934,-0.594506,-0.791231
1629709750546,0.198799,-0.593164,-0.786778
1629709750556,0.199409,-0.595665,-0.784338
1629709750565,0.199043,-0.592615,-0.779946
1629709750575,0.200385,-0.596214,-0.786961
1629709750584,0.20008,-0.585722,-0.783118
1629709750594,0.197884,-0.58133,-0.784399
1629709750604,0.200507,-0.605669,-0.8227679999999999
1629709750613,0.20313,-0.585112,-0.794647
1629709750623,0.20166599999999998,-0.58926,-0.7920849999999999
1629709750632,0.19886,-0.589931,-0.792817
1629709750642,0.202154,-0.597678,-0.795196
1629709750652,0.199592,-0.576877,-0.777567
1629709750661,0.203374,-0.589931,-0.792756
1629709750671,0.199409,-0.596397,-0.7999539999999999
1629709750680,0.198738,-0.590297,-0.795257
1629709750690,0.2013,-0.591761,-0.791231
1629709750700,0.202642,-0.589809,-0.787632
1629709750709,0.199226,-0.585844,-0.786778
1629709750719,0.20191,-0.588711,-0.7914749999999999
1629709750728,0.200507,-0.590846,-0.80032
1629709750738,0.202215,-0.586271,-0.798978
1629709750748,0.201605,-0.588772,-0.801662
1629709750757,0.20044599999999999,-0.5856,-0.797331
1629709750767,0.200812,-0.585722,-0.791902
1629709750776,0.200934,-0.585112,-0.789096
1629709750786,0.200385,-0.589077,-0.796599
1629709750796,0.201788,-0.5870029999999999,-0.795257
1629709750805,0.20136099999999998,-0.585295,-0.796904
1629709750815,0.200812,-0.585356,-0.795989
1629709750824,0.19983599999999999,-0.583709,-0.792634
1629709750834,0.200873,-0.5879179999999999,-0.794525
1629709750844,0.200873,-0.580903,-0.787754
1629709750853,0.202459,-0.591517,-0.8002589999999999
1629709750863,0.20008,-0.580537,-0.794342
1629709750872,0.202093,-0.586149,-0.800808
1629709750882,0.200873,-0.579195,-0.795867
1629709750892,0.20197099999999998,-0.588162,-0.802211
1629709750901,0.20075099999999999,-0.576816,-0.7893399999999999
1629709750911,0.200812,-0.584441,-0.793854
1629709750920,0.200507,-0.576023,-0.786778
1629709750930,0.202703,-0.59353,-0.8087989999999999
1629709750940,0.201544,-0.581574,-0.799588
1629709750949,0.200873,-0.580659,-0.796599
1629709750959,0.202947,-0.583404,-0.798551
1629709750968,0.198128,-0.585112,-0.7991
1629709750978,0.203618,-0.574071,-0.785436
1629709750988,0.202947,-0.5876129999999999,-0.802272
1629709750997,0.202215,-0.583404,-0.800442
1629709751007,0.20166599999999998,-0.58011,-0.80093
1629709751016,0.20227599999999998,-0.5845629999999999,-0.804712
1629709751026,0.203679,-0.577975,-0.797209
1629709751036,0.201483,-0.579683,-0.797453
1629709751045,0.200934,-0.58133,-0.796355
1629709751055,0.201483,-0.582916,-0.8014789999999999
1629709751064,0.20258099999999998,-0.58133,-0.800747
1629709751074,0.202459,-0.580781,-0.8020889999999999
1629709751084,0.202398,-0.579927,-0.802028
1629709751093,0.199348,-0.57828,-0.7999539999999999
1629709751103,0.20227599999999998,-0.5795,-0.799771
1629709751112,0.201239,-0.578524,-0.7987339999999999
1629709751122,0.202398,-0.579805,-0.800686
1629709751132,0.201605,-0.574742,-0.797514
1629709751141,0.201483,-0.580476,-0.8063589999999999
1629709751151,0.202703,-0.574376,-0.79727
1629709751160,0.20069,-0.579683,-0.804041
1629709751170,0.20288599999999998,-0.57767,-0.7990389999999999
1629709751180,0.20227599999999998,-0.577426,-0.800198
1629709751189,0.202398,-0.578219,-0.801906
1629709751199,0.20191,-0.572912,-0.797392
1629709751208,0.20069,-0.581635,-0.808616
1629709751218,0.202398,-0.574864,-0.80154
1629709751228,0.205082,-0.5675439999999999,-0.787083
1629709751237,0.195444,-0.574132,-0.7999539999999999
1629709751247,0.20227599999999998,-0.599874,-0.830576
1629709751256,0.205753,-0.549122,-0.766343
1629709751266,0.203679,-0.595604,-0.83021
1629709751276,0.20044599999999999,-0.564738,-0.791048
1629709751285,0.20105599999999998,-0.582794,-0.812703
1629709751295,0.203618,-0.560163,-0.787327
1629709751304,0.204838,-0.589199,-0.815997
1629709751314,0.202459,-0.573888,-0.801296
1629709751324,0.203435,-0.571692,-0.79971
1629709751333,0.202398,-0.580964,-0.811971
1629709751343,0.202703,-0.569435,-0.8011739999999999
1629709751352,0.203984,-0.571875,-0.799771
1629709751362,0.20252,-0.580171,-0.8097139999999999
1629709751372,0.201849,-0.570045,-0.798002
1629709751381,0.203862,-0.578036,-0.806725
1629709751391,0.202825,-0.571082,-0.802638
1629709751400,0.20380099999999998,-0.575962,-0.80947
1629709751410,0.202398,-0.567727,-0.801235
1629709751420,0.202398,-0.578524,-0.8115439999999999
1629709751429,0.202825,-0.570106,-0.8014789999999999
1629709751439,0.20349599999999998,-0.575718,-0.807823
1629709751448,0.2013,-0.567422,-0.79849
1629709751458,0.20319099999999998,-0.577121,-0.810507
1629709751468,0.202093,-0.566263,-0.799832
1629709751477,0.20258099999999998,-0.57462,-0.809348
1629709751487,0.201849,-0.569191,-0.800808
1629709751496,0.202154,-0.574742,-0.807518
1629709751506,0.203618,-0.568825,-0.800686
1629709751516,0.201422,-0.5721189999999999,-0.807152
1629709751525,0.203557,-0.570716,-0.804468
1629709751535,0.200324,-0.569008,-0.806481
1629709751544,0.203313,-0.569496,-0.801845
1629709751554,0.203374,-0.56425,-0.798551
1629709751564,0.203618,-0.582245,-0.817705
1629709751573,0.20630199999999999,-0.568947,-0.806847
1629709751583,0.201178,-0.568825,-0.80642
1629709751592,0.20557,-0.569191,-0.804773
1629709751602,0.196542,-0.574376,-0.8112389999999999
1629709751612,0.205326,-0.557479,-0.796355
1629709751621,0.20599699999999999,-0.57706,-0.815021
1629709751631,0.203679,-0.5681539999999999,-0.805383
1629709751640,0.199775,-0.570167,-0.810141
1629709751650,0.202215,-0.570228,-0.809531
1629709751660,0.205082,-0.56669,-0.807396
1629709751669,0.204777,-0.566751,-0.805627
1629709751679,0.20227599999999998,-0.571448,-0.811056
1629709751688,0.203313,-0.570472,-0.809165
1629709751698,0.202825,-0.568581,-0.806481
1629709751708,0.204167,-0.569557,-0.809348
1629709751717,0.20319099999999998,-0.569862,-0.8109339999999999
1629709751727,0.203618,-0.564982,-0.803675
1629709751736,0.202337,-0.56974,-0.81008
1629709751746,0.201178,-0.566385,-0.8081889999999999
1629709751756,0.204533,-0.57035,-0.811178
1629709751765,0.203984,-0.562237,-0.8030039999999999
1629709751775,0.20136099999999998,-0.5712039999999999,-0.8124589999999999
1629709751784,0.203374,-0.563823,-0.804285
1629709751794,0.203252,-0.56974,-0.8109339999999999
1629709751804,0.204045,-0.5635789999999999,-0.803065
1629709751813,0.202825,-0.5715089999999999,-0.813862
1629709751823,0.203923,-0.563518,-0.8054439999999999
1629709751832,0.202703,-0.567422,-0.809592
1629709751842,0.20319099999999998,-0.566263,-0.809531
1629709751852,0.20288599999999998,-0.564006,-0.805627
1629709751861,0.200263,-0.566507,-0.808128
1629709751871,0.203069,-0.555588,-0.791719
1629709751880,0.206668,-0.584624,-0.829966
1629709751890,0.200934,-0.56181,-0.80459
1629709751900,0.203557,-0.566751,-0.806542
1629709751909,0.205143,-0.570167,-0.819718
1629709751919,0.20191,-0.564921,-0.8052
1629709751928,0.201849,-0.557357,-0.801723
1629709751938,0.201788,-0.567666,-0.811422
1629709751948,0.208376,-0.573278,-0.814777
1629709751957,0.201727,-0.559797,-0.8048339999999999
1629709751967,0.20252,-0.574742,-0.817888
1629709751976,0.203557,-0.559797,-0.803248
1629709751986,0.203374,-0.565653,-0.8100189999999999
1629709751996,0.203313,-0.562786,-0.804773
1629709752005,0.202154,-0.572302,-0.81923
1629709752015,0.20380099999999998,-0.5602239999999999,-0.8051389999999999
1629709752024,0.205936,-0.568215,-0.8142889999999999
1629709752034,0.202032,-0.564433,-0.81191
1629709752044,0.204838,-0.564433,-0.809226
1629709752053,0.202459,-0.5651039999999999,-0.809958
1629709752063,0.203984,-0.565348,-0.8094089999999999
1629709752072,0.20380099999999998,-0.567361,-0.813313
1629709752082,0.204289,-0.562847,-0.808677
1629709752092,0.20380099999999998,-0.5644939999999999,-0.810263
1629709752101,0.20258099999999998,-0.5654089999999999,-0.810812
1629709752111,0.201849,-0.563396,-0.808738
1629709752120,0.204228,-0.566202,-0.809592
1629709752130,0.20319099999999998,-0.5626639999999999,-0.8072739999999999
1629709752140,0.203923,-0.567056,-0.813801
1629709752149,0.20252,-0.560712,-0.806847
1629709752159,0.204716,-0.568581,-0.815448
1629709752168,0.202032,-0.559187,-0.805017
1629709752178,0.203008,-0.5693739999999999,-0.815936
1629709752188,0.20313,-0.55449,-0.796172
1629709752197,0.204533,-0.567605,-0.8103239999999999
1629709752207,0.203862,-0.56852,-0.814106
1629709752216,0.204472,-0.57279,-0.820816
1629709752226,0.20105599999999998,-0.553026,-0.80093
1629709752236,0.205753,-0.574254,-0.824415
1629709752245,0.198799,-0.55937,-0.8048339999999999
1629709752255,0.204594,-0.55876,-0.803492
1629709752264,0.206485,-0.569435,-0.8103239999999999
1629709752274,0.20380099999999998,-0.566446,-0.808128
1629709752284,0.200019,-0.567605,-0.813923
1629709752293,0.202703,-0.563396,-0.810995
1629709752303,0.20691199999999998,-0.565653,-0.816668
1629709752312,0.204411,-0.557418,-0.805383
1629709752322,0.202764,-0.571082,-0.817156
1629709752332,0.201178,-0.562786,-0.805871
1629709752341,0.20435,-0.566751,-0.807518
1629709752351,0.203923,-0.565287,-0.8100189999999999
1629709752360,0.204289,-0.5654089999999999,-0.813862
1629709752370,0.203862,-0.560468,-0.809958
1629709752380,0.203374,-0.5666289999999999,-0.81496
1629709752389,0.203069,-0.56669,-0.812581
1629709752399,0.205082,-0.564311,-0.808433
1629709752408,0.203862,-0.562847,-0.80459
1629709752418,0.202398,-0.565653,-0.80886
1629709752428,0.20258099999999998,-0.563945,-0.808433
1629709752437,0.20410599999999998,-0.564738,-0.810507
1629709752447,0.202764,-0.5647989999999999,-0.813252
1629709752456,0.20410599999999998,-0.566446,-0.8133739999999999
1629709752466,0.202642,-0.561078,-0.806542
1629709752476,0.203313,-0.567727,-0.810141
1629709752485,0.202337,-0.561688,-0.805322
1629709752495,0.203069,-0.568215,-0.811422
1629709752504,0.204289,-0.559309,-0.8026989999999999
1629709752514,0.202032,-0.571021,-0.821121
1629709752524,0.199348,-0.5447299999999999,-0.787083
1629709752533,0.209596,-0.585722,-0.8322229999999999
1629709752543,0.19886,-0.552904,-0.80154
1629709752552,0.208376,-0.582245,-0.824232
1629709752562,0.201605,-0.5398499999999999,-0.786168
1629709752572,0.197762,-0.59902,-0.849425
1629709752581,0.213256,-0.532652,-0.76982
1629709752591,0.192699,-0.578707,-0.829722
1629709752600,0.211182,-0.554246,-0.794342
1629709752610,0.196542,-0.57035,-0.823622
1629709752620,0.206485,-0.566446,-0.814655
1629709752629,0.205631,-0.563091,-0.814533
1629709752639,0.202642,-0.5626639999999999,-0.8130689999999999
1629709752648,0.205448,-0.557723,-0.8033089999999999
1629709752658,0.20069,-0.5721189999999999,-0.8174
1629709752668,0.20288599999999998,-0.560712,-0.804468
1629709752677,0.20618,-0.5654089999999999,-0.81191
1629709752687,0.203069,-0.5644939999999999,-0.815692
1629709752696,0.203618,-0.561871,-0.8130689999999999
1629709752706,0.204594,-0.56242,-0.8118489999999999
1629709752716,0.203069,-0.563762,-0.8109339999999999
1629709752725,0.20252,-0.567971,-0.814228
1629709752735,0.20288599999999998,-0.558577,-0.802455
1629709752744,0.20435,-0.566446,-0.81313
1629709752754,0.201727,-0.558821,-0.80581
1629709752764,0.20258099999999998,-0.568398,-0.819047
1629709752773,0.20374,-0.557479,-0.805017
1629709752783,0.20313,-0.5675439999999999,-0.816302
1629709752792,0.202337,-0.561261,-0.808128
1629709752802,0.202215,-0.563762,-0.811361
1629709752812,0.204716,-0.5632739999999999,-0.8060539999999999
1629709752821,0.199714,-0.561383,-0.811483
1629709752831,0.202032,-0.562298,-0.808006
1629709752840,0.206058,-0.559126,-0.805627
1629709752850,0.2013,-0.566812,-0.815692
1629709752860,0.204838,-0.571326,-0.822585
1629709752869,0.202764,-0.550952,-0.795623
1629709752879,0.20227599999999998,-0.573034,-0.8242929999999999
1629709752888,0.200934,-0.561322,-0.807335
1629709752898,0.205509,-0.553514,-0.797758
1629709752908,0.203557,-0.572302,-0.820023
1629709752917,0.205448,-0.5626639999999999,-0.807762
1629709752927,0.20252,-0.5647989999999999,-0.816058
1629709752936,0.20105599999999998,-0.563152,-0.812032
1629709752946,0.203984,-0.564982,-0.8158139999999999
1629709752956,0.20435,-0.5608339999999999,-0.8087989999999999
1629709752965,0.204228,-0.562603,-0.808006
1629709752975,0.201788,-0.56852,-0.815875
1629709752984,0.202764,-0.55937,-0.805993
1629709752994,0.205204,-0.566812,-0.815692
1629709753004,0.20288599999999998,-0.562847,-0.815997
1629709753013,0.204594,-0.561078,-0.810507
1629709753023,0.20191,-0.563457,-0.8121539999999999
1629709753032,0.201849,-0.5641889999999999,-0.811666
1629709753042,0.204045,-0.56669,-0.812276
1629709753052,0.203923,-0.55937,-0.805383
1629709753061,0.202947,-0.5651039999999999,-0.8124589999999999
1629709753071,0.202154,-0.562725,-0.812032
1629709753080,0.20258099999999998,-0.5626639999999999,-0.811788
1629709753090,0.204716,-0.5623589999999999,-0.810446
1629709753100,0.20191,-0.5644939999999999,-0.811422
1629709753109,0.202947,-0.562115,-0.8087989999999999
1629709753119,0.203374,-0.563518,-0.808982
1629709753128,0.202154,-0.561688,-0.8087989999999999
1629709753138,0.202459,-0.56486,-0.812642
1629709753148,0.20319099999999998,-0.5611389999999999,-0.809165
1629709753157,0.203374,-0.564433,-0.814045
1629709753167,0.199714,-0.558455,-0.805566
1629709753176,0.20313,-0.555954,-0.79727
1629709753186,0.20374,-0.577182,-0.828136
1629709753196,0.203923,-0.565653,-0.811178
1629709753205,0.205814,-0.552355,-0.7999539999999999
1629709753215,0.20069,-0.579561,-0.8364929999999999
1629709753224,0.202947,-0.555222,-0.800076
1629709753234,0.204533,-0.558516,-0.8057489999999999
1629709753244,0.20008,-0.563152,-0.805688
1629709753253,0.204167,-0.571326,-0.81496
1629709753263,0.202215,-0.558211,-0.8063589999999999
1629709753272,0.20691199999999998,-0.570472,-0.817705
1629709753282,0.200385,-0.559431,-0.813496
1629709753292,0.20374,-0.561322,-0.8127639999999999
1629709753301,0.204289,-0.561627,-0.808067
1629709753311,0.201544,-0.569008,-0.815448
1629709753320,0.203008,-0.561993,-0.803736
1629709753330,0.205143,-0.566812,-0.812642
1629709753340,0.202459,-0.563091,-0.812398
1629709753349,0.20435,-0.562298,-0.812398
1629709753359,0.202032,-0.5632739999999999,-0.8148989999999999
1629709753368,0.204045,-0.5657139999999999,-0.8152039999999999
1629709753378,0.203069,-0.563213,-0.8091039999999999
1629709753388,0.204777,-0.5638839999999999,-0.8072739999999999
1629709753397,0.203374,-0.562115,-0.804895
1629709753407,0.202032,-0.563762,-0.811605
1629709753416,0.202215,-0.561017,-0.809165
1629709753426,0.203679,-0.563457,-0.81435
1629709753436,0.204594,-0.564006,-0.81374
1629709753445,0.20258099999999998,-0.562237,-0.811971
1629709753455,0.203069,-0.5638839999999999,-0.809348
1629709753464,0.204045,-0.562298,-0.80581
1629709753474,0.20008,-0.564738,-0.811178
1629709753484,0.203618,-0.556686,-0.801113
1629709753493,0.203984,-0.564311,-0.8115439999999999
1629709753503,0.20191,-0.568947,-0.823012
1629709753512,0.204228,-0.567056,-0.818437
1629709753522,0.202459,-0.553148,-0.800198
1629709753532,0.203984,-0.574254,-0.8233779999999999
1629709753541,0.198189,-0.556076,-0.80032
1629709753551,0.20599699999999999,-0.559858,-0.803797
1629709753560,0.203008,-0.566446,-0.812276
1629709753570,0.205204,-0.567117,-0.81496
1629709753580,0.200507,-0.562481,-0.814838
1629709753589,0.205204,-0.56608,-0.81557
1629709753599,0.203984,-0.55998,-0.81069
1629709753608,0.203069,-0.562786,-0.809592
1629709753618,0.201117,-0.563701,-0.807518
1629709753628,0.203679,-0.567727,-0.812642
1629709753637,0.20197099999999998,-0.559797,-0.808067
1629709753647,0.20557,-0.569008,-0.819352
1629709753656,0.20166599999999998,-0.557418,-0.8100189999999999
1629709753666,0.204045,-0.5657139999999999,-0.816302
1629709753676,0.20227599999999998,-0.561993,-0.809287
1629709753685,0.204045,-0.566568,-0.812276
1629709753695,0.203374,-0.5623589999999999,-0.806298
1629709753704,0.205021,-0.564738,-0.8097139999999999
1629709753714,0.202337,-0.56181,-0.809653
1629709753724,0.203679,-0.564982,-0.813862
1629709753733,0.202947,-0.560163,-0.809348
1629709753743,0.20349599999999998,-0.566568,-0.816485
1629709753752,0.20258099999999998,-0.560102,-0.805383
1629709753762,0.203374,-0.566812,-0.8130689999999999
1629709753772,0.20166599999999998,-0.559858,-0.8030039999999999
1629709753781,0.203862,-0.566568,-0.814045
1629709753791,0.202825,-0.559492,-0.8066639999999999
1629709753800,0.202337,-0.56852,-0.819352
1629709753810,0.203435,-0.556076,-0.801967
1629709753820,0.20191,-0.557174,-0.7993439999999999
1629709753829,0.20044599999999999,-0.576938,-0.830637
1629709753839,0.205875,-0.561627,-0.804163
1629709753848,0.206241,-0.5551,-0.8011739999999999
1629709753858,0.197579,-0.577792,-0.83387
1629709753868,0.20752199999999998,-0.559248,-0.804041
1629709753877,0.20313,-0.554673,-0.80398
1629709753887,0.202459,-0.565165,-0.809775
1629709753896,0.20105599999999998,-0.571631,-0.817461
1629709753906,0.20557,-0.560285,-0.804346
1629709753916,0.204594,-0.566202,-0.813862
1629709753925,0.200263,-0.56547,-0.816851
1629709753935,0.204289,-0.557052,-0.808006
1629709753944,0.205448,-0.56547,-0.81252
1629709753954,0.200812,-0.564006,-0.810812
1629709753964,0.202154,-0.566873,-0.811727
1629709753973,0.20569199999999999,-0.562542,-0.8078839999999999
1629709753983,0.20380099999999998,-0.564677,-0.812215
1629709753992,0.201727,-0.561383,-0.8118489999999999
1629709754002,0.203435,-0.5657139999999999,-0.81557
1629709754012,0.203984,-0.562298,-0.810568
1629709754021,0.202825,-0.566507,-0.8136789999999999
1629709754031,0.203252,-0.56181,-0.806603
1629709754040,0.20349599999999998,-0.564006,-0.808433
1629709754050,0.203679,-0.562908,-0.80764
1629709754060,0.201788,-0.563091,-0.811666
1629709754069,0.20313,-0.5629689999999999,-0.8124589999999999
1629709754079,0.203923,-0.5641889999999999,-0.812093
1629709754088,0.20288599999999998,-0.563701,-0.812215
1629709754098,0.201178,-0.561078,-0.80764
1629709754108,0.205753,-0.566995,-0.81069
1629709754117,0.200568,-0.557723,-0.803736
1629709754127,0.203374,-0.566385,-0.810385
1629709754136,0.203374,-0.559309,-0.805505
1629709754146,0.205387,-0.5693739999999999,-0.818376
1629709754156,0.202947,-0.562115,-0.812398
1629709754165,0.201178,-0.5675439999999999,-0.817034
1629709754175,0.20874199999999998,-0.559858,-0.8048339999999999
1629709754184,0.195322,-0.565836,-0.812337
1629709754194,0.209291,-0.553636,-0.796538
1629709754204,0.202642,-0.571448,-0.817949
1629709754213,0.202642,-0.565592,-0.81252
1629709754223,0.202093,-0.559858,-0.808921
1629709754232,0.205448,-0.569313,-0.817522
1629709754242,0.202764,-0.558516,-0.80825
1629709754252,0.202764,-0.566507,-0.813313
1629709754261,0.204594,-0.56181,-0.804163
1629709754271,0.202825,-0.569862,-0.815936
1629709754280,0.202703,-0.56181,-0.80886
1629709754290,0.205448,-0.56425,-0.813252
1629709754300,0.202215,-0.563518,-0.815021
1629709754309,0.20374,-0.5614439999999999,-0.808616
1629709754319,0.202154,-0.565836,-0.8127639999999999
1629709754328,0.203008,-0.564372,-0.808616
1629709754338,0.20410599999999998,-0.564006,-0.809287
1629709754348,0.203008,-0.561932,-0.807213
1629709754357,0.202215,-0.562481,-0.8097139999999999
1629709754367,0.20227599999999998,-0.56486,-0.813862
1629709754376,0.202337,-0.558699,-0.808677
1629709754386,0.206119,-0.567971,-0.814472
1629709754396,0.20069,-0.560468,-0.807335
1629709754405,0.204472,-0.567666,-0.812947
1629709754415,0.201849,-0.55754,-0.802882
1629709754424,0.202642,-0.5690689999999999,-0.81618
1629709754434,0.202337,-0.558089,-0.8052
1629709754444,0.203252,-0.56852,-0.818071
1629709754453,0.206119,-0.5612,-0.80764
1629709754463,0.199165,-0.561017,-0.8084939999999999
1629709754472,0.199714,-0.552111,-0.790499
1629709754482,0.210084,-0.588101,-0.841617
1629709754492,0.20014099999999999,-0.539728,-0.779824
1629709754501,0.203679,-0.589992,-0.845033
1629709754511,0.207766,-0.544974,-0.789157
1629709754520,0.193126,-0.585112,-0.8386279999999999
1629709754530,0.21307299999999998,-0.5377149999999999,-0.778787
1629709754540,0.20008,-0.573827,-0.820084
1629709754549,0.20349599999999998,-0.570167,-0.813008
1629709754559,0.20166599999999998,-0.554063,-0.798124
1629709754568,0.203313,-0.577853,-0.826001
1629709754578,0.204777,-0.556808,-0.805566
1629709754588,0.20557,-0.564128,-0.813557
1629709754597,0.203252,-0.5623589999999999,-0.8097139999999999
1629709754607,0.200385,-0.565775,-0.81252
1629709754616,0.203008,-0.563396,-0.806786
1629709754626,0.206058,-0.566812,-0.811056
1629709754636,0.204472,-0.565348,-0.812581
1629709754645,0.20166599999999998,-0.561078,-0.809836
1629709754655,0.202398,-0.563457,-0.812825
1629709754664,0.20313,-0.565897,-0.815448
1629709754674,0.20410599999999998,-0.563701,-0.809836
1629709754684,0.202032,-0.5623589999999999,-0.806542
1629709754693,0.202825,-0.56486,-0.809531
1629709754703,0.202642,-0.563823,-0.807518
1629709754712,0.203618,-0.560895,-0.807945
1629709754722,0.20191,-0.566751,-0.815021
1629709754732,0.203435,-0.55937,-0.8094089999999999
1629709754741,0.204289,-0.567422,-0.815265
1629709754751,0.202703,-0.558943,-0.80459
1629709754760,0.202154,-0.568398,-0.8139839999999999
1629709754770,0.201422,-0.557601,-0.800808
1629709754780,0.205936,-0.564555,-0.8066639999999999
1629709754789,0.201239,-0.562847,-0.811605
1629709754799,0.20166599999999998,-0.574132,-0.82655
1629709754808,0.20319099999999998,-0.548024,-0.794525
1629709754818,0.206058,-0.577609,-0.8285629999999999
1629709754828,0.20069,-0.553758,-0.799832
1629709754837,0.204899,-0.565531,-0.808982
1629709754847,0.202398,-0.5612,-0.803248
1629709754856,0.205631,-0.57096,-0.813618
1629709754866,0.199958,-0.560712,-0.80947
1629709754876,0.203618,-0.5672389999999999,-0.817949
1629709754885,0.205631,-0.5629689999999999,-0.813923
1629709754895,0.202642,-0.561505,-0.810385
1629709754904,0.201422,-0.564555,-0.810568
1629709754914,0.202642,-0.568337,-0.811056
1629709754924,0.204228,-0.56059,-0.803797
1629709754933,0.20252,-0.568825,-0.816912
1629709754943,0.203679,-0.561993,-0.8113
1629709754952,0.204045,-0.564311,-0.81496
1629709754962,0.202215,-0.561993,-0.8112389999999999
1629709754972,0.20191,-0.5684589999999999,-0.815631
1629709754981,0.202459,-0.564006,-0.80764
1629709754991,0.205265,-0.564372,-0.806847
1629709755000,0.2013,-0.5626639999999999,-0.807091
1629709755010,0.202703,-0.56547,-0.812642
1629709755020,0.203008,-0.560102,-0.808311
1629709755029,0.203679,-0.56547,-0.815692
1629709755039,0.204289,-0.5629689999999999,-0.809226
1629709755048,0.20197099999999998,-0.56486,-0.8115439999999999
1629709755058,0.203618,-0.562725,-0.805566
1629709755068,0.20313,-0.5641889999999999,-0.807823
1629709755077,0.201727,-0.564738,-0.8100189999999999
1629709755087,0.203984,-0.562481,-0.811178
1629709755096,0.203557,-0.56608,-0.8136789999999999
1629709755106,0.20319099999999998,-0.561627,-0.809897
1629709755116,0.197152,-0.55571,-0.800747
1629709755125,0.207339,-0.5654089999999999,-0.804956
1629709755135,0.200324,-0.572485,-0.819718
1629709755144,0.20313,-0.5669339999999999,-0.808677
1629709755154,0.204533,-0.556625,-0.807823
1629709755164,0.199348,-0.57767,-0.829295
1629709755173,0.207339,-0.551684,-0.796843
1629709755183,0.199592,-0.565287,-0.81374
1629709755192,0.205021,-0.564433,-0.804407
1629709755202,0.201422,-0.570411,-0.8121539999999999
1629709755212,0.201239,-0.560407,-0.804956
1629709755221,0.203862,-0.56974,-0.820145
1629709755231,0.204167,-0.560468,-0.812032
1629709755240,0.205082,-0.559858,-0.81069
1629709755250,0.20044599999999999,-0.571997,-0.818559
1629709755260,0.20166599999999998,-0.561505,-0.805383
1629709755269,0.205448,-0.567971,-0.809653
1629709755279,0.202642,-0.563152,-0.807335
1629709755288,0.203008,-0.567727,-0.813618
1629709755298,0.203435,-0.560102,-0.807823
1629709755308,0.202947,-0.567422,-0.817339
1629709755317,0.201849,-0.563762,-0.812276
1629709755327,0.202337,-0.56547,-0.810385
1629709755336,0.203618,-0.563152,-0.8051389999999999
1629709755346,0.203008,-0.5644939999999999,-0.806725
1629709755356,0.200812,-0.564006,-0.809531
1629709755365,0.20227599999999998,-0.562481,-0.809958
1629709755375,0.203374,-0.565226,-0.8136789999999999
1629709755384,0.202764,-0.56425,-0.8124589999999999
1629709755394,0.202032,-0.564067,-0.8100189999999999
1629709755404,0.201239,-0.5635789999999999,-0.807762
1629709755413,0.203313,-0.563823,-0.806542
1629709755423,0.199653,-0.564067,-0.8091039999999999
1629709755432,0.204228,-0.558882,-0.800747
1629709755442,0.203069,-0.562725,-0.808738
1629709755452,0.199775,-0.572302,-0.824842
1629709755461,0.20618,-0.56425,-0.811056
1629709755471,0.202642,-0.559431,-0.8060539999999999
1629709755480,0.20166599999999998,-0.571143,-0.817827
1629709755490,0.200202,-0.561322,-0.803553
1629709755500,0.20496,-0.559248,-0.801662
1629709755509,0.20252,-0.567727,-0.811117
1629709755519,0.203069,-0.569618,-0.816485
1629709755528,0.202398,-0.563335,-0.812886
1629709755538,0.205814,-0.56791,-0.816546
1629709755548,0.200629,-0.557296,-0.807945
1629709755557,0.202825,-0.564555,-0.809043
1629709755567,0.200934,-0.565043,-0.8063589999999999
1629709755576,0.205265,-0.567788,-0.809897
1629709755586,0.200812,-0.565226,-0.8103239999999999
1629709755596,0.205082,-0.5669339999999999,-0.813313
1629709755605,0.201849,-0.5629689999999999,-0.813008
1629709755615,0.20319099999999998,-0.562603,-0.8113
1629709755624,0.20014099999999999,-0.566812,-0.814533
1629709755634,0.203923,-0.56608,-0.809897
1629709755644,0.203313,-0.564433,-0.806786
1629709755653,0.202764,-0.564128,-0.806908
1629709755663,0.20008,-0.564128,-0.810507
1629709755672,0.20380099999999998,-0.564982,-0.812642
1629709755682,0.20227599999999998,-0.561322,-0.809226
1629709755692,0.203008,-0.568825,-0.815631
1629709755701,0.201422,-0.5612,-0.8057489999999999
1629709755711,0.203679,-0.568703,-0.810507
1629709755720,0.201422,-0.561505,-0.804773
1629709755730,0.202215,-0.567422,-0.812215
1629709755740,0.20258099999999998,-0.561688,-0.807152
1629709755749,0.20227599999999998,-0.56669,-0.815326
1629709755759,0.201727,-0.5657139999999999,-0.814167
1629709755768,0.2013,-0.551135,-0.791963
1629709755778,0.199958,-0.573156,-0.81679
1629709755788,0.203313,-0.568581,-0.813435
1629709755797,0.203984,-0.565165,-0.807396
1629709755807,0.203557,-0.559065,-0.80947
1629709755816,0.20014099999999999,-0.576023,-0.824232
1629709755826,0.202032,-0.556259,-0.8036139999999999
1629709755836,0.204899,-0.560346,-0.8045289999999999
1629709755845,0.20136099999999998,-0.56791,-0.809836
1629709755855,0.200568,-0.569923,-0.810202
1629709755864,0.200934,-0.5602239999999999,-0.803858
1629709755874,0.206668,-0.57279,-0.818986
1629709755884,0.20075099999999999,-0.557418,-0.808433
1629709755893,0.204167,-0.564311,-0.812947
1629709755903,0.199897,-0.5672389999999999,-0.813252
1629709755912,0.20252,-0.5654089999999999,-0.806847
1629709755922,0.204167,-0.5663239999999999,-0.806542
1629709755932,0.201849,-0.566446,-0.809958
1629709755941,0.197457,-0.567788,-0.817034
1629709755951,0.209718,-0.560346,-0.810995
1629709755960,0.206119,-0.566141,-0.814167
1629709755970,0.204045,-0.568337,-0.80947
1629709755980,0.209413,-0.559553,-0.781166
1629709755989,0.187392,-0.571875,-0.7807999999999999
1629709755999,0.198067,-0.556747,-0.789157
1629709756008,0.18178,-0.565836,-0.851804
1629709756018,0.193431,-0.548695,-0.844667
1629709756028,0.1769,-0.565897,-0.8479
1629709756037,0.192272,-0.547841,-0.812886
1629709756047,0.195627,-0.552843,-0.798307
1629709756056,0.158966,-0.566873,-0.803797
1629709756066,0.184525,-0.549305,-0.7890349999999999
1629709756076,0.171898,-0.544913,-0.820694
1629709756085,0.186904,-0.539118,-0.856074
1629709756095,0.176229,-0.540521,-0.890905
1629709756104,0.177693,-0.552172,-0.8602219999999999
1629709756114,0.18788,-0.522587,-0.77287
1629709756124,0.164944,-0.557296,-0.810446
1629709756133,0.158356,-0.547719,-0.821487
1629709756143,0.152317,-0.551989,-0.836981
1629709756152,0.194163,-0.522404,-0.836859
1629709756162,0.149328,-0.558028,-0.8866959999999999
1629709756172,0.17147099999999998,-0.538508,-0.831491
1629709756181,0.165249,-0.542534,-0.80337
1629709756191,0.16622499999999998,-0.547292,-0.813252
1629709756200,0.16622499999999998,-0.538569,-0.832162
1629709756210,0.169031,-0.543388,-0.85583
1629709756220,0.167628,-0.541558,-0.846131
1629709756229,0.163236,-0.545523,-0.8279529999999999
1629709756239,0.167994,-0.542961,-0.815875
1629709756248,0.166774,-0.5432049999999999,-0.825391
1629709756258,0.16713999999999998,-0.542351,-0.842044
1629709756268,0.16591999999999998,-0.542107,-0.844911
1629709756277,0.165981,-0.5456449999999999,-0.838445
1629709756287,0.166286,-0.541192,-0.820816
1629709756296,0.16744499999999998,-0.5435099999999999,-0.8245979999999999
1629709756306,0.165127,-0.540948,-0.8325279999999999
1629709756316,0.166164,-0.542412,-0.843508
1629709756325,0.16500499999999999,-0.540216,-0.8361879999999999
1629709756335,0.16561499999999998,-0.542656,-0.828929
1629709756344,0.163541,-0.541497,-0.8235
1629709756354,0.163602,-0.540826,-0.830637
1629709756364,0.164517,-0.542351,-0.839726
1629709756373,0.164334,-0.539667,-0.837225
1629709756383,0.161406,-0.543632,-0.830881
1629709756392,0.156526,-0.540216,-0.824232
1629709756402,0.155184,-0.547902,-0.841434
1629709756412,0.162016,-0.538264,-0.8349679999999999
1629709756421,0.154452,-0.538813,-0.832284
1629709756431,0.153415,-0.547902,-0.843508
1629709756440,0.164944,-0.542168,-0.8310029999999999
1629709756450,0.154696,-0.540826,-0.8310029999999999
1629709756460,0.157136,-0.552416,-0.850279
1629709756469,0.152866,-0.5422899999999999,-0.8297829999999999
1629709756479,0.154635,-0.539667,-0.826916
1629709756488,0.145912,-0.550464,-0.84363
1629709756498,0.139446,-0.563335,-0.869128
1629709756508,0.12993,-0.573034,-0.896456
1629709756517,0.146339,-0.583892,-0.896273
1629709756527,0.210389,-0.57889,-0.87352
1629709756536,0.278526,-0.565165,-0.832955
1629709756546,0.276025,-0.596519,-0.808372
1629709756556,0.305,-0.646539,-0.7518859999999999
1629709756565,0.30195,-0.670512,-0.657031
1629709756575,0.276635,-0.8100189999999999,-0.630984
1629709756584,0.165554,-0.8522919999999999,-0.458476
1629709756594,0.176046,-0.826367,-0.244244
1629709756604,0.1586,-0.823195,-0.084119
1629709756613,0.162321,-0.904996,-0.127124
1629709756623,0.289384,-0.859795,-0.22539499999999998
1629709756632,0.380579,-0.8404579999999999,-0.363011
1629709756642,0.392169,-0.846131,-0.470127
1629709756652,0.452742,-0.857416,-0.554124
1629709756661,0.57828,-0.8319179999999999,-0.595421
1629709756671,0.714615,-0.763537,-0.500139
1629709756680,0.870348,-0.6673399999999999,-0.403698
1629709756690,1.214754,-0.576206,-0.217343
1629709756700,1.38165,-0.410103,0.045323
1629709756709,1.498831,-0.22045399999999998,0.332511
1629709756719,1.604239,-0.143472,0.563701
1629709756728,1.713612,-0.41290899999999997,0.681492
1629709756738,1.7572269999999999,-0.784948,0.644587
1629709756748,1.998604,-0.930921,0.446459
1629709756757,1.998604,-0.740113,0.017079999999999998
1629709756767,1.998604,-0.29700899999999997,-0.628788
1629709756776,1.998604,0.583465,-0.995459
1629709756786,1.998604,1.495293,-0.521367
1629709756796,1.998604,1.749968,0.268034
1629709756805,1.998604,1.552084,0.6907639999999999
1629709756815,1.998604,0.5672389999999999,0.382287
1629709756824,1.998604,-0.759999,0.518744
1629709756834,1.998604,-1.34871,0.834907
1629709756844,1.998604,-0.742614,0.279624
1629709756853,1.998604,0.714066,-0.640012
1629709756863,1.998604,1.998604,-0.174765
1629709756872,1.927173,1.982134,0.15237799999999999
1629709756882,1.998604,1.099647,0.187148
1629709756892,1.914363,-0.503494,0.062952
1629709756901,1.998604,-1.398303,0.279258
1629709756911,1.840309,-1.155767,-0.318725
1629709756920,1.480775,0.442677,-0.9739869999999999
1629709756930,1.3258349999999999,1.664629,-0.293471
1629709756940,1.164063,1.684332,0.403393
1629709756949,1.1308179999999999,0.831125,0.287432
1629709756959,1.564833,1.998604,-1.998604
1629709756968,0.439444,-1.53171,-1.998604
1629709756978,1.998604,-0.994178,-1.581303
1629709756988,1.998604,-1.998604,-1.998604
1629709756997,1.998604,1.084702,-1.998604
1629709757007,-0.34648,1.998604,-1.388726
1629709757016,-1.908629,1.998604,-1.7103789999999999
1629709757026,1.998604,0.935252,-1.998604
1629709757036,1.998604,-1.610522,-1.998604
1629709757045,1.998604,-1.998604,0.023607
1629709757055,0.52033,-1.998604,-1.329922
1629709757064,1.998604,-0.514779,-1.059509
1629709757074,1.214083,0.726022,-0.9046299999999999
1629709757084,-0.587979,1.393789,-0.114558
1629709757093,1.998604,1.4657689999999999,0.109068
1629709757103,0.296033,0.038857,-0.625799
1629709757112,1.998604,-1.067073,-0.500383
1629709757122,1.998604,-1.049261,0.43188
1629709757132,1.998604,-1.258064,-0.317932
1629709757141,1.998604,1.035658,-1.026264
1629709757151,1.998604,1.998604,-1.111603
1629709757160,0.23619199999999999,1.998604,-1.252025
1629709757170,0.162321,1.998604,-0.846558
1629709757180,0.107421,1.923025,-1.887645
1629709757189,1.207739,0.908656,-1.998604
1629709757199,-0.422547,-1.90625,-1.215486
1629709757208,-0.082472,-1.998604,0.052399
1629709757218,0.29707,-1.0383419999999999,-1.245315
1629709757228,-1.311012,1.60064,-1.998604
1629709757237,1.408185,1.998604,-0.145668
1629709757247,-0.335988,1.998604,-0.841312
1629709757256,1.831281,0.738893,-0.8966999999999999
1629709757266,0.807396,-1.115019,-0.47336
1629709757276,0.383995,-1.998604,0.38552
1629709757285,-0.036966,-1.238056,-0.518134
1629709757295,1.998604,0.836127,-0.23277599999999998
1629709757304,-1.1801059999999999,0.80825,-1.13399
1629709757314,1.998604,1.998604,0.46177
1629709757324,1.998604,1.796511,0.38491
1629709757333,1.998604,1.077809,-1.2235989999999999
1629709757343,1.731058,-1.019127,-1.384151
1629709757352,1.998604,-1.424594,-0.382104
1629709757362,0.778726,-1.998604,-1.270569
1629709757372,1.029131,0.093147,-1.329068
1629709757381,1.75192,1.571421,0.501237
1629709757391,1.829878,1.930101,0.7665259999999999
1629709757400,1.160769,0.9530029999999999,-0.803187
1629709757410,1.998604,0.264801,-1.467172
1629709757420,1.9032609999999999,-1.394338,-1.030656
1629709757429,1.382504,-1.998604,-0.175253
1629709757439,1.818471,-1.23952,-0.12834399999999999
1629709757448,0.954772,-0.33031499999999997,-0.466406
1629709757458,1.098488,0.8174,0.157502
1629709757468,0.965691,1.091046,0.6110369999999999
1629709757477,0.900238,0.70211,-0.00183
1629709757487,1.347002,-0.163358,-0.431392
1629709757496,1.121424,-1.190415,-0.518744
1629709757506,1.024983,-1.3380349999999999,-0.622017
1629709757516,1.149606,-0.430172,-0.7628659999999999
1629709757525,1.0249219999999999,0.448472,-0.381677
1629709757535,0.818986,0.87291,0.187697
1629709757544,0.788242,0.6831389999999999,0.23241
1629709757554,0.853024,0.077348,-0.211731
1629709757564,1.022116,-0.538691,-0.305854
1629709757573,1.286734,-0.632509,-0.184952
1629709757583,1.314428,-0.395402,-0.1403
1629709757592,1.480775,0.11809599999999999,-0.0035989999999999998
1629709757602,1.292224,0.454572,0.269986
1629709757612,1.025105,0.528992,0.44987499999999997
1629709757621,0.915061,0.445178,0.508557
1629709757631,0.932507,0.192089,0.484523
1629709757640,0.9581879999999999,-0.16530999999999998,0.392108
1629709757650,0.869372,-0.519598,0.29273899999999997
1629709757660,0.951722,-0.632509,0.254004
1629709757669,0.911401,-0.516487,0.168543
1629709757679,0.707844,-0.338916,0.026779
1629709757688,0.653371,0.010431,0.094001
1629709757698,0.6806989999999999,0.24326799999999998,0.32452
1629709757708,0.610671,0.252174,0.33366999999999997
1629709757717,0.7117479999999999,0.125904,0.23369099999999998
1629709757727,0.892491,-0.114131,0.159332
1629709757736,0.94977,-0.440725,0.139263
1629709757746,1.079273,-0.5465599999999999,0.207583
1629709757756,1.191208,-0.439444,0.292983
1629709757765,1.081896,-0.252113,0.280966
1629709757775,1.093242,0.05978,0.37271
1629709757784,1.115263,0.274866,0.540826
1629709757794,1.093486,0.310734,0.598837
1629709757804,1.142774,0.19458999999999999,0.592737
1629709757813,1.163148,-0.037332,0.539179
1629709757823,1.224758,-0.292251,0.494039
1629709757832,1.179252,-0.503677,0.450424
1629709757842,1.350174,-0.528565,0.47543399999999997
1629709757852,1.299727,-0.37868799999999997,0.400709
1629709757861,1.114653,-0.249307,0.288103
1629709757871,1.036451,-0.028975,0.288652
1629709757880,1.008025,0.082472,0.296948
1629709757890,0.795623,-0.0066489999999999995,0.169336
1629709757900,0.96319,-0.102114,0.155611
1629709757909,1.022116,-0.269681,0.161894
1629709757919,1.053043,-0.408822,0.192943
1629709757928,1.179862,-0.379054,0.291946
1629709757938,1.191757,-0.275171,0.33916
1629709757948,1.110017,-0.161467,0.343064
1629709757957,1.188097,0.00793,0.389607
1629709757967,1.118557,0.081618,0.326411
1629709757976,1.020774,0.07015,0.214659
1629709757986,1.085739,0.03965,0.175192
1629709757996,1.040111,-0.034159999999999996,0.073505
1629709758005,0.956541,-0.148169,0.061183
1629709758015,1.000949,-0.144143,0.120292
1629709758024,0.8717509999999999,-0.114985,0.096441
1629709758034,0.835822,-0.049227,0.104127
1629709758044,0.817766,-0.011285,0.125538
1629709758053,0.7397469999999999,-0.049532,0.078934
1629709758063,0.804712,-0.126026,0.061366
1629709758072,0.8793759999999999,-0.22752999999999998,0.06466
1629709758082,0.9767319999999999,-0.295118,0.082899
1629709758092,1.085312,-0.315614,0.172142
1629709758101,1.1405779999999999,-0.28621199999999997,0.252784
1629709758111,1.154547,-0.184281,0.25699299999999997
1629709758120,1.124657,-0.098942,0.294142
1629709758130,1.090863,-0.028731,0.338306
1629709758140,1.063352,-0.012688,0.365207
1629709758149,1.016809,-0.076067,0.385032
1629709758159,1.021079,-0.146156,0.377712
1629709758168,1.005951,-0.235826,0.336964
1629709758178,0.984723,-0.26535,0.267729
1629709758188,0.9274439999999999,-0.284016,0.228018
1629709758197,0.901092,-0.209474,0.190442
1629709758207,0.846863,-0.0854,0.155489
1629709758216,0.781044,-0.003843,0.17324
1629709758226,0.801601,0.070455,0.200202
1629709758236,0.800625,0.06954,0.19154
1629709758245,0.7996489999999999,0.004758,0.162016
1629709758255,0.809592,-0.03721,0.117608
1629709758264,0.8258179999999999,-0.116022,0.134444
1629709758274,0.941047,-0.088694,0.184342
1629709758284,0.893833,-0.098637,0.224053
1629709758293,0.863333,-0.053131,0.246501
1629709758303,0.829417,-0.015616,0.284321
1629709758312,0.95953,0.013297999999999999,0.334951
1629709758322,1.099708,-0.010553,0.34233199999999997
1629709758332,1.1929159999999999,-0.077165,0.33672
1629709758341,1.302716,-0.11669299999999999,0.311039
1629709758351,1.298446,-0.16408999999999999,0.242292
1629709758360,1.341939,-0.166957,0.240218
1629709758370,1.357616,-0.086864,0.26352
1629709758380,1.46583,0.021838,0.338062
1629709758389,1.543239,0.098271,0.39192499999999997
1629709758399,1.649257,0.091866,0.463051
1629709758408,1.659078,-0.021655,0.491355
1629709758418,1.689517,-0.177571,0.528809
1629709758428,1.633336,-0.345138,0.571448
1629709758437,1.5300019999999999,-0.455914,0.574986
1629709758447,1.4764439999999999,-0.416508,0.571936
1629709758456,1.397632,-0.293837,0.538081
1629709758466,1.2162789999999999,-0.148779,0.488915
1629709758476,1.278804,0.06954,0.537593
1629709758485,1.15961,0.169885,0.503494
1629709758495,0.940193,0.157014,0.37655299999999997
1629709758504,1.024068,0.166652,0.3416
1629709758514,1.053958,0.08820599999999999,0.276086
1629709758524,1.004548,-0.025742,0.225334
1629709758533,1.108797,-0.011712,0.31049
1629709758543,1.036451,-0.041297,0.376675
1629709758552,0.9508679999999999,0.011651,0.40577199999999997
1629709758562,0.842593,0.071797,0.418826
1629709758572,0.75701,0.081374,0.446642
1629709758581,0.739015,0.037881,0.480131
1629709758591,0.719373,-0.054168,0.489769
1629709758600,0.7613409999999999,-0.1464,0.482022
1629709758610,0.860771,-0.203252,0.446398
1629709758620,0.887184,-0.231983,0.387594
1629709758629,1.019737,-0.103944,0.377102
1629709758639,0.943975,-0.045384,0.243329
1629709758648,0.658556,-0.14274,0.10492
1629709758658,0.836676,-0.024949,0.218807
1629709758668,0.734989,-0.023667999999999998,0.203618
1629709758677,0.536617,-0.100284,0.138958
1629709758687,0.809531,-0.068747,0.307135
1629709758696,0.69052,-0.206546,0.312137
1629709758706,0.654225,-0.391742,0.296277
1629709758716,0.825635,-0.425109,0.42645099999999997
1629709758725,0.831552,-0.48617,0.461831
1629709758735,0.8480219999999999,-0.425109,0.439871
1629709758744,0.945805,-0.250588,0.46494199999999997
1629709758754,0.97844,-0.041663,0.486414
1629709758764,1.040721,0.171044,0.486902
1629709758773,0.980941,0.280661,0.398818
1629709758783,1.069269,0.318237,0.369599
1629709758792,1.171505,0.184891,0.339465
1629709758802,1.240008,-0.055265999999999996,0.322995
1629709758812,1.262517,-0.231495,0.385154
1629709758821,1.296982,-0.272182,0.471042
1629709758831,1.220976,-0.219356,0.496052
1629709758840,1.207617,-0.043493,0.569191
1629709758850,1.158878,0.101809,0.6362909999999999
1629709758860,1.104344,0.129442,0.576511
1629709758869,1.0955599999999999,0.023851,0.462929
1629709758879,1.1414929999999999,-0.157685,0.34080699999999997
1629709758888,1.098915,-0.430172,0.25193
1629709758898,1.1743109999999999,-0.5407649999999999,0.271877
1629709758908,1.296921,-0.43999299999999997,0.308782
1629709758917,1.223538,-0.23241,0.30780599999999997
1629709758927,1.129049,0.064294,0.366244
1629709758936,1.0751249999999999,0.277245,0.409554
1629709758946,0.97783,0.32817999999999997,0.304634
1629709758956,1.0413919999999999,0.29463,0.19641999999999998
1629709758965,1.097817,0.145241,0.071126
1629709758975,1.0906799999999999,-0.105408,0.038857
1629709758984,1.12911,-0.20349599999999998,0.09497699999999999
1629709758994,1.070062,-0.246745,0.149023
1629709759004,0.9253089999999999,-0.141093,0.139324
1629709759013,0.916464,0.052826,0.230397
1629709759023,0.907131,0.180133,0.28133199999999997
1629709759032,1.054812,0.20496,0.299998
1629709759042,1.190537,0.086132,0.251747
1629709759052,1.226466,-0.164883,0.16408999999999999
1629709759061,1.237446,-0.40668699999999997,0.1586
1629709759071,1.208654,-0.5002,0.193126
1629709759080,1.172969,-0.42151,0.226554
1629709759090,1.195112,-0.19337,0.286578
1629709759100,1.224758,0.055754,0.36575599999999997
1629709759109,1.135576,0.151646,0.41473899999999997
1629709759119,1.142591,0.156282,0.427488
1629709759128,1.135881,0.054412,0.373076
1629709759138,1.071892,-0.117059,0.29822899999999997
1629709759148,1.068415,-0.248758,0.282491
1629709759157,1.058777,-0.314943,0.279136
1629709759167,1.044869,-0.30744,0.289445
1629709759176,1.010648,-0.192333,0.305427
1629709759186,0.9286639999999999,-0.070882,0.317627
1629709759196,0.848693,-0.003294,0.336842
1629709759205,0.859734,-0.0035989999999999998,0.367647
1629709759215,0.844118,-0.101931,0.346846
1629709759224,0.83021,-0.247355,0.31738299999999997
1629709759234,0.894077,-0.312198,0.311344
1629709759244,0.859124,-0.341173,0.304024
1629709759253,0.80764,-0.257786,0.302194
1629709759263,0.7671359999999999,-0.09991799999999999,0.331962
1629709759272,0.7077829999999999,0.05307,0.351848
1629709759282,0.648491,0.134871,0.360144
1629709759292,0.638914,0.125416,0.336964
1629709759301,0.653859,0.022203999999999998,0.277123
1629709759311,0.677039,-0.131028,0.236131
1629709759320,0.755058,-0.215086,0.220393
1629709759330,0.828929,-0.227652,0.199165
1629709759340,0.857721,-0.127856,0.160003
1629709759349,0.7515809999999999,0.037393,0.09211
1629709759359,0.671122,0.202642,0.042273
1629709759368,0.600667,0.289079,-0.013969
1629709759378,0.6560549999999999,0.264557,-0.012688
1629709759388,0.744566,0.153415,0.02867
1629709759397,0.9493429999999999,0.060816999999999996,0.024888
1629709759407,0.976,-0.097234,0.0053679999999999995
1629709759416,1.197674,-0.09851499999999999,0.07155299999999999
1629709759426,1.352919,-0.01891,0.166164
1629709759436,1.407575,0.069784,0.281515
1629709759445,1.585451,0.140483,0.451644
1629709759455,1.58783,0.053801999999999996,0.5179509999999999
1629709759464,1.595272,-0.17671699999999999,0.537288
1629709759474,1.50426,-0.46860199999999996,0.565531
1629709759484,1.41947,-0.672403,0.588284
1629709759493,1.360239,-0.706929,0.562542
1629709759503,1.2643469999999999,-0.565592,0.487634
1629709759512,1.105869,-0.36575599999999997,0.390583
1629709759522,0.8702259999999999,-0.22942099999999999,0.315431
1629709759532,0.837896,-0.142069,0.285358
1629709759541,0.702598,-0.249856,0.213622
1629709759551,0.890478,-0.357582,0.17751
1629709759560,0.982588,-0.468053,0.155855
1629709759570,0.978013,-0.48592599999999997,0.144753
1629709759580,1.20841,-0.291458,0.196298
1629709759589,1.2914919999999999,-0.08942599999999999,0.254309
1629709759599,1.362801,0.165737,0.296521
1629709759608,1.388482,0.460001,0.331718
1629709759618,1.323334,0.666791,0.327692
1629709759628,1.221952,0.60085,0.30683
1629709759637,1.16327,0.23424,0.27114499999999997
1629709759647,0.918965,-0.23607,0.286029
1629709759656,0.819596,-0.480558,0.402051
1629709759666,0.911706,-0.430782,0.496784
1629709759676,1.018334,-0.204167,0.504897
1629709759685,1.270935,0.184037,0.538691
1629709759695,1.0897649999999999,0.211243,0.355142
1629709759704,0.70882,-0.000915,0.049837
1629709759714,0.84363,-0.221125,0.048922
1629709759724,0.764513,-0.47817899999999997,0.0044529999999999995
1629709759733,0.642269,-0.626104,0.06954
1629709759743,1.00528,-0.447374,0.345443
1629709759752,0.862906,-0.388997,0.441945
1629709759762,0.825574,-0.26657,0.488305
1629709759772,1.033401,-0.042212,0.601826
1629709759781,1.068537,0.039406,0.549915
1629709759791,1.067805,0.046665,0.46311199999999997
1629709759800,1.132526,0.066551,0.426512
1629709759810,1.067439,-0.028914,0.323971
1629709759820,1.054873,-0.14036099999999999,0.295667
1629709759829,1.00162,-0.132126,0.328119
1629709759839,1.122034,-0.049227,0.310185
1629709759848,0.863516,-0.057401,0.19611499999999998
1629709759858,1.082323,0.153964,0.253821
1629709759868,1.010526,0.114253,0.231922
1629709759877,0.93635,0.068808,0.155916
1629709759887,1.15656,0.051179,0.24827
1629709759896,1.101477,-0.03477,0.197152
1629709759906,1.044869,-0.144326,0.187026
1629709759916,1.204201,-0.12932,0.30744
1629709759925,1.143811,-0.157136,0.34721199999999997
1629709759935,1.053165,-0.192516,0.379054
1629709759944,1.03578,-0.197762,0.458659
1629709759954,1.05713,-0.254858,0.465796
1629709759964,1.082506,-0.337818,0.453962
1629709759973,1.147837,-0.321104,0.436089
1629709759983,1.007049,-0.374296,0.350262
1629709759992,0.84912,-0.351055,0.270474
1629709760002,0.8870009999999999,-0.234728,0.264313
1629709760012,0.867542,-0.186965,0.21892899999999998
1629709760021,0.888587,-0.11041,0.220027
1629709760031,1.169248,0.012139,0.287188
1629709760040,1.05408,0.008967,0.218685
1629709760050,1.038464,0.085339,0.214232
1629709760060,0.926468,0.120048,0.21770899999999999
1629709760069,0.805322,0.058987,0.184952
1629709760079,0.8461919999999999,0.021899,0.247965
1629709760088,0.9027999999999999,-0.03294,0.32226299999999997
1629709760098,0.8489369999999999,-0.137616,0.308294
1629709760108,0.898042,-0.133285,0.350689
1629709760117,0.938058,-0.066612,0.399855
1629709760127,0.877912,-0.038674,0.376309
1629709760136,0.877424,0.011101999999999999,0.395402
1629709760146,0.9791719999999999,0.052582,0.433222
1629709760156,0.914573,-0.024949,0.335805
