timestamp,ax,ay,az
1629894616406,0.030805,0.917928,-0.402295
1629894616415,0.029646,0.917135,-0.403576
1629894616425,0.027999,0.918416,-0.404918
1629894616435,0.027206,0.919575,-0.405833
1629894616444,0.027938,0.92049,-0.40626
1629894616454,0.028059999999999998,0.922808,-0.40565
1629894616463,0.028182,0.924333,-0.404308
1629894616473,0.027632999999999998,0.924882,-0.401868
1629894616483,0.027755,0.927627,-0.39936699999999997
1629894616492,0.027632999999999998,0.9292739999999999,-0.398025
1629894616502,0.027694,0.929457,-0.397842
1629894616511,0.027084,0.931165,-0.39997699999999997
1629894616521,0.026352,0.931653,-0.401136
1629894616531,0.026168999999999998,0.93147,-0.402783
1629894616540,0.025131999999999998,0.930738,-0.403881
1629894616550,0.025559,0.929762,-0.403454
1629894616559,0.025498,0.927871,-0.40272199999999997
1629894616569,0.024034,0.9262239999999999,-0.402844
1629894616579,0.024399999999999998,0.926285,-0.40138
1629894616588,0.025315,0.9250039999999999,-0.401014
1629894616598,0.02562,0.9234789999999999,-0.400221
1629894616607,0.025803,0.922686,-0.399428
1629894616617,0.02623,0.9231739999999999,-0.399733
1629894616627,0.02623,0.92293,-0.399916
1629894616636,0.026900999999999998,0.9222589999999999,-0.399306
1629894616646,0.026657,0.921588,-0.397964
1629894616655,0.027816,0.920246,-0.396805
1629894616665,0.028487,0.920856,-0.396744
1629894616675,0.028426,0.92232,-0.3965
1629894616684,0.028914,0.922442,-0.396317
1629894616694,0.027145,0.922503,-0.396866
1629894616703,0.027816,0.922442,-0.397781
1629894289786,-0.173728,0.806176,-0.574498
1629894289795,-0.174216,0.8060539999999999,-0.574254
1629894289805,-0.175009,0.80581,-0.574498
1629894289814,-0.174216,0.805566,-0.5724239999999999
1629894289824,-0.174033,0.807457,-0.573461
1629894289834,-0.17507,0.80886,-0.574986
1629894289843,-0.174704,0.809348,-0.574437
1629894289853,-0.175131,0.808433,-0.573522
1629894289862,-0.176839,0.808006,-0.573827
1629894289872,-0.177876,0.807762,-0.573278
1629894289882,-0.178303,0.806542,-0.574254
1629894289891,-0.179828,0.805932,-0.574925
1629894289901,-0.180072,0.804468,-0.57523
1629894289910,-0.181048,0.804773,-0.575291
1629894289920,-0.180804,0.803065,-0.576084
1629894289930,-0.181536,0.803675,-0.576938
1629894289939,-0.181048,0.8030039999999999,-0.577914
1629894289949,-0.18196299999999999,0.802333,-0.577609
1629894289958,-0.182024,0.801845,-0.578097
1629894289968,-0.182634,0.8011739999999999,-0.578341
1629894289978,-0.182085,0.8008689999999999,-0.577914
1629894289987,-0.181292,0.801723,-0.57767
1629894289997,-0.181719,0.801601,-0.578036
1629894290006,-0.18056,0.801845,-0.576999
1629894290016,-0.180926,0.80276,-0.576877
1629894290026,-0.181109,0.803431,-0.576328
1629894290035,-0.180621,0.803248,-0.576328
1629894290045,-0.179218,0.804468,-0.575474
1629894290054,-0.177876,0.8048339999999999,-0.575291
1629894290064,-0.177266,0.8060539999999999,-0.574071
1629894290074,-0.178181,0.8054439999999999,-0.573156
1629894290083,-0.177144,0.806298,-0.573034
1629894290093,-0.17702199999999998,0.80764,-0.573827
1629894290102,-0.177815,0.8081889999999999,-0.573949
1629894290112,-0.177205,0.8078839999999999,-0.574498
1629894290122,-0.17824199999999998,0.807701,-0.575047
1629894290131,-0.178913,0.807518,-0.574559
1629894290141,-0.17873,0.806786,-0.575657
1629894290150,-0.178913,0.808372,-0.574498
1629894290160,-0.17946199999999998,0.8084939999999999,-0.576389
1629894290170,-0.178181,0.805932,-0.578768
1629894290179,-0.17873,0.8011739999999999,-0.575657
1629894290189,-0.17995,0.801052,-0.576633
1629894290198,-0.17946199999999998,0.80215,-0.578341
1629894290208,-0.179035,0.80398,-0.581025
1629894290218,-0.177388,0.803553,-0.57828
1629894290227,-0.17873,0.802272,-0.571387
1629894290237,-0.17976699999999998,0.8039189999999999,-0.57035
1629894290246,-0.179218,0.806481,-0.571692
1629894290256,-0.178486,0.8087989999999999,-0.573522
1629894290266,-0.1769,0.8091039999999999,-0.575169
1629894290275,-0.17671699999999999,0.809958,-0.576206
1629894290285,-0.175192,0.810202,-0.575291
1629894290294,-0.17446,0.8106289999999999,-0.575047
1629894290304,-0.175497,0.810568,-0.572546
1629894290314,-0.17702199999999998,0.810385,-0.5708989999999999
1629894290323,-0.177876,0.80825,-0.569435
1629894290333,-0.179035,0.807091,-0.569557
1629894290342,-0.177876,0.80581,-0.570411
1629894290352,-0.177388,0.805627,-0.573034
1629894290362,-0.178059,0.8048339999999999,-0.573705
1629894290371,-0.176778,0.804773,-0.574132
1629894290381,-0.177754,0.80459,-0.575657
1629894290390,-0.176656,0.805017,-0.57584
1629894290400,-0.177876,0.805261,-0.575901
1629894290410,-0.177693,0.8048339999999999,-0.575901
1629894290419,-0.177876,0.804895,-0.575718
1629894290429,-0.17629,0.806481,-0.575291
1629894290438,-0.176778,0.80703,-0.57523
1629894290448,-0.17641199999999999,0.805383,-0.575108
1629894290458,-0.17580199999999999,0.804346,-0.577487
1629894290467,-0.17507,0.805932,-0.577853
1629894290477,-0.174887,0.805627,-0.579256
1629894290486,-0.17507,0.804041,-0.578463
1629894290496,-0.174765,0.803431,-0.575596
1629894290506,-0.175497,0.803065,-0.571387
1629894290515,-0.175192,0.803736,-0.571082
1629894290525,-0.17385,0.805383,-0.573156
1629894290534,-0.17299599999999998,0.80642,-0.575779
1629894290544,-0.17269099999999998,0.8078839999999999,-0.576938
1629894290554,-0.172813,0.808738,-0.578036
1629894290563,-0.17269099999999998,0.808921,-0.579012
1629894290573,-0.172935,0.808616,-0.578829
1629894290582,-0.174155,0.808006,-0.577182
1629894290592,-0.174033,0.805993,-0.575596
1629894290602,-0.174826,0.804895,-0.574681
1629894290611,-0.175619,0.8039189999999999,-0.574681
1629894290621,-0.17702199999999998,0.8026989999999999,-0.575047
1629894290630,-0.176961,0.8033089999999999,-0.575901
1629894290640,-0.177144,0.8033089999999999,-0.575291
1629894290650,-0.177083,0.804773,-0.575352
1629894290659,-0.176595,0.804163,-0.575901
1629894290669,-0.177388,0.805566,-0.57645
1629894290678,-0.17763199999999998,0.805871,-0.576694
1629894290688,-0.17812,0.8054439999999999,-0.576084
1629894290698,-0.178303,0.8052,-0.574864
1629894290707,-0.179645,0.803736,-0.574742
1629894290717,-0.180804,0.8030039999999999,-0.575535
1629894290726,-0.180743,0.803553,-0.57584
1629894290736,-0.181719,0.8026989999999999,-0.576816
1629894290746,-0.18178,0.803553,-0.579012
1629894290755,-0.182146,0.8042239999999999,-0.579134
1629894290765,-0.18196299999999999,0.804163,-0.579134
1629894290774,-0.181536,0.803675,-0.579378
1629894290784,-0.181292,0.803187,-0.579805
1629894290794,-0.181353,0.802882,-0.579927
1629894290803,-0.181231,0.801906,-0.579927
1629894290813,-0.180804,0.8023939999999999,-0.57889
1629894290822,-0.181475,0.801418,-0.577853
1629894290832,-0.181292,0.801601,-0.577426
1629894290842,-0.180438,0.801418,-0.576938
1629894290851,-0.17934,0.803797,-0.577182
1629894290861,-0.177571,0.803858,-0.578158
1629894290870,-0.17702199999999998,0.804102,-0.576877
1629894290880,-0.175924,0.8051389999999999,-0.576267
1629894290890,-0.175985,0.804956,-0.574376
1629894290899,-0.17580199999999999,0.805017,-0.573827
1629894290909,-0.175314,0.806237,-0.573217
1629894290918,-0.175497,0.807152,-0.57462
1629894290928,-0.175253,0.807213,-0.57584
1629894290938,-0.175009,0.807518,-0.576267
1629894290947,-0.175192,0.807518,-0.576938
1629894290957,-0.174582,0.8078839999999999,-0.577121
1629894290966,-0.174277,0.806542,-0.576511
1629894290976,-0.174826,0.807396,-0.577792
1629894290986,-0.174216,0.805078,-0.579195
1629894290995,-0.174887,0.800198,-0.577182
1629894291005,-0.176046,0.79971,-0.578646
1629894291014,-0.17580199999999999,0.801662,-0.58133
1629894291024,-0.175253,0.803736,-0.58316
1629894291034,-0.173484,0.80398,-0.579744
1629894291043,-0.174338,0.80398,-0.572302
1629894291053,-0.175558,0.803736,-0.568886
1629894291062,-0.175253,0.8066639999999999,-0.5718139999999999
1629894291072,-0.174399,0.808067,-0.575352
1629894291082,-0.17330099999999998,0.809836,-0.577853
1629894291091,-0.17269099999999998,0.810812,-0.578646
1629894291101,-0.172813,0.811178,-0.578402
1629894291110,-0.17324,0.811971,-0.576267
1629894291120,-0.173667,0.811178,-0.574742
1629894291130,-0.174643,0.809836,-0.5721189999999999
1629894291139,-0.175314,0.808067,-0.56974
1629894291149,-0.175375,0.806847,-0.571082
1629894291158,-0.175619,0.805383,-0.572241
1629894291168,-0.175192,0.803736,-0.573461
1629894291178,-0.174826,0.8048339999999999,-0.57584
1629894291187,-0.174216,0.804956,-0.57706
1629894291197,-0.174765,0.805078,-0.577792
1629894291206,-0.175436,0.804041,-0.576755
1629894291216,-0.174704,0.8048339999999999,-0.577609
1629894291226,-0.174094,0.806115,-0.57767
1629894291235,-0.174094,0.805505,-0.577365
1629894291245,-0.17238599999999998,0.80642,-0.57584
1629894291254,-0.170617,0.80581,-0.574559
1629894291264,-0.170434,0.804163,-0.574864
1629894291274,-0.170007,0.804163,-0.576999
1629894291283,-0.169702,0.803675,-0.576938
1629894291293,-0.169092,0.802333,-0.578158
1629894291302,-0.168116,0.801113,-0.574864
1629894291312,-0.16897,0.800076,-0.570167
1629894291322,-0.168055,0.798978,-0.5672389999999999
1629894291331,-0.168116,0.800991,-0.567056
1629894291341,-0.167079,0.803736,-0.5705939999999999
1629894291350,-0.166896,0.806847,-0.574254
1629894291360,-0.16530999999999998,0.810751,-0.578158
1629894291370,-0.165127,0.812886,-0.58194
1629894291379,-0.164944,0.81252,-0.582306
1629894291389,-0.165737,0.810995,-0.581086
1629894291398,-0.165676,0.8100189999999999,-0.581574
1629894291408,-0.167506,0.808006,-0.579622
1629894291418,-0.167506,0.806603,-0.5795
1629894291427,-0.167628,0.80642,-0.579927
1629894291437,-0.167567,0.804285,-0.581208
1629894291446,-0.167323,0.802455,-0.581147
1629894291456,-0.166591,0.801357,-0.582184
1629894291466,-0.165737,0.80032,-0.580903
1629894291475,-0.165249,0.801418,-0.580415
1629894291485,-0.162992,0.8042239999999999,-0.581208
1629894291494,-0.162931,0.803248,-0.578341
1629894291504,-0.16348,0.803797,-0.576572
1629894291514,-0.161894,0.804163,-0.576694
1629894291523,-0.161162,0.804163,-0.577182
1629894291533,-0.162565,0.803126,-0.577609
1629894291542,-0.161162,0.803797,-0.575901
1629894291552,-0.162382,0.804163,-0.576999
1629894291562,-0.162748,0.806115,-0.577914
1629894291571,-0.160857,0.8066639999999999,-0.579134
1629894291581,-0.161162,0.8072739999999999,-0.579622
1629894291590,-0.164212,0.804956,-0.582855
1629894291600,-0.163175,0.804712,-0.580293
1629894291610,-0.163114,0.804041,-0.577243
1629894291619,-0.163846,0.8052,-0.576877
1629894291629,-0.163602,0.804895,-0.578341
1629894291638,-0.165676,0.804346,-0.579561
1629894291648,-0.165676,0.802943,-0.582062
1629894291658,-0.165737,0.80093,-0.581086
1629894291667,-0.165798,0.799405,-0.581574
1629894291677,-0.167384,0.7984289999999999,-0.581391
1629894291686,-0.169336,0.797453,-0.578585
1629894291696,-0.16775,0.797209,-0.57889
1629894291706,-0.169702,0.797514,-0.579622
1629894291715,-0.170068,0.797148,-0.579927
1629894291725,-0.171288,0.797209,-0.57889
1629894291734,-0.171288,0.797941,-0.581147
1629894291744,-0.172325,0.79849,-0.583221
1629894291754,-0.172935,0.7991,-0.58438
1629894291763,-0.174704,0.800686,-0.584319
1629894291773,-0.174399,0.801662,-0.5856
1629894291782,-0.175436,0.80337,-0.585539
1629894291792,-0.177876,0.80032,-0.585112
1629894291802,-0.180072,0.801113,-0.58682
1629894291811,-0.17934,0.802943,-0.5894429999999999
1629894291821,-0.180194,0.8072739999999999,-0.592249
1629894291830,-0.18287799999999999,0.806603,-0.593774
1629894291840,-0.181658,0.8023939999999999,-0.584746
1629894291850,-0.183732,0.798978,-0.577609
1629894291859,-0.184586,0.800808,-0.57706
1629894291869,-0.184281,0.797819,-0.576633
1629894291878,-0.185806,0.795684,-0.574742
1629894291888,-0.186416,0.796904,-0.577731
1629894291898,-0.186782,0.800137,-0.581086
1629894291907,-0.186172,0.802333,-0.581208
1629894291917,-0.186843,0.801845,-0.575901
1629894291926,-0.189466,0.8033089999999999,-0.573522
1629894291936,-0.189588,0.805261,-0.573034
1629894291946,-0.187636,0.806786,-0.575657
1629894291955,-0.185257,0.805932,-0.577731
1629894291965,-0.183854,0.804651,-0.5795
1629894291974,-0.185196,0.8045289999999999,-0.579988
1629894291984,-0.186172,0.8048339999999999,-0.579012
1629894291994,-0.186416,0.80215,-0.576389
1629894292003,-0.186538,0.801052,-0.574315
1629894292013,-0.18727,0.8011739999999999,-0.573522
1629894292022,-0.186965,0.802455,-0.574132
1629894292032,-0.184769,0.803553,-0.576328
1629894292042,-0.18361,0.804346,-0.578463
1629894292051,-0.180865,0.804285,-0.576999
1629894292061,-0.179584,0.805261,-0.576877
1629894292070,-0.17885199999999998,0.8063589999999999,-0.576572
1629894292080,-0.179889,0.8078839999999999,-0.576267
1629894292090,-0.180377,0.8097139999999999,-0.576938
1629894292099,-0.179889,0.810995,-0.577121
1629894292109,-0.178791,0.814167,-0.57645
1629894292118,-0.1769,0.81618,-0.576572
1629894292128,-0.174704,0.814411,-0.576572
1629894292138,-0.17269099999999998,0.814167,-0.577975
1629894292147,-0.171105,0.81618,-0.580476
1629894292157,-0.17116599999999998,0.815448,-0.583038
1629894292166,-0.170434,0.811422,-0.581025
1629894292176,-0.172142,0.806786,-0.575596
1629894292186,-0.172874,0.8048339999999999,-0.570167
1629894292195,-0.173362,0.805627,-0.573705
1629894292205,-0.17263,0.805871,-0.576328
1629894292214,-0.172325,0.807518,-0.57706
1629894292224,-0.1708,0.807823,-0.576084
1629894292234,-0.170129,0.808616,-0.579134
1629894292243,-0.16836,0.809592,-0.582001
1629894292253,-0.168421,0.809653,-0.583282
1629894292262,-0.169458,0.809043,-0.583404
1629894292272,-0.168665,0.807762,-0.582672
1629894292282,-0.168116,0.806908,-0.581574
1629894292291,-0.167872,0.80642,-0.581208
1629894292301,-0.167506,0.805627,-0.582306
1629894292310,-0.168055,0.805383,-0.583892
1629894292320,-0.168726,0.804468,-0.585722
1629894292330,-0.170068,0.803187,-0.587552
1629894292339,-0.170312,0.80398,-0.58926
1629894292349,-0.170617,0.8051389999999999,-0.592127
1629894292358,-0.170678,0.806481,-0.592554
1629894292368,-0.172325,0.806786,-0.592676
1629894292378,-0.171532,0.80642,-0.58987
1629894292387,-0.173667,0.805932,-0.589687
1629894292397,-0.174338,0.8051389999999999,-0.589992
1629894292406,-0.174399,0.804346,-0.588345
1629894292416,-0.171898,0.804102,-0.588101
1629894292426,-0.17086099999999999,0.803553,-0.587552
1629894292435,-0.169153,0.803126,-0.586576
1629894292445,-0.168604,0.801418,-0.5851729999999999
1629894292454,-0.168543,0.7984289999999999,-0.581208
1629894292464,-0.16713999999999998,0.796355,-0.579012
1629894292474,-0.16652999999999998,0.793854,-0.576511
1629894292483,-0.167323,0.790804,-0.574925
1629894292493,-0.16530999999999998,0.787998,-0.57401
1629894292502,-0.16469999999999999,0.786473,-0.572912
1629894292512,-0.163602,0.782508,-0.569496
1629894292522,-0.162199,0.779763,-0.5669339999999999
1629894292531,-0.162443,0.778604,-0.566202
1629894292541,-0.163236,0.778299,-0.5651039999999999
1629894292550,-0.162626,0.779824,-0.5647989999999999
1629894292560,-0.161101,0.783362,-0.564372
1629894292570,-0.159637,0.786351,-0.563335
1629894292579,-0.159515,0.7920849999999999,-0.563213
1629894292589,-0.160552,0.795074,-0.565043
1629894292598,-0.163419,0.797514,-0.568398
1629894292608,-0.169458,0.802638,-0.572241
1629894292618,-0.171837,0.808067,-0.577487
1629894292627,-0.172569,0.812642,-0.581818
1629894292637,-0.170312,0.81862,-0.586942
1629894292646,-0.168848,0.82289,-0.589016
1629894292656,-0.166713,0.826306,-0.590297
1629894292666,-0.166042,0.825757,-0.59109
1629894292675,-0.166896,0.825025,-0.593591
1629894292685,-0.167506,0.821487,-0.59536
1629894292694,-0.169458,0.818864,-0.595665
1629894292704,-0.169519,0.813801,-0.598044
1629894292714,-0.171227,0.805627,-0.597129
1629894292723,-0.172142,0.796782,-0.596397
1629894292733,-0.17330099999999998,0.79361,-0.598227
1629894292742,-0.173667,0.789157,-0.602497
1629894292752,-0.17202,0.785802,-0.6039
1629894292762,-0.17055599999999999,0.783667,-0.599447
1629894292771,-0.168787,0.783911,-0.594506
1629894292781,-0.167323,0.7868999999999999,-0.592554
1629894292790,-0.164822,0.7890349999999999,-0.5917
1629894292800,-0.16043,0.788486,-0.5921879999999999
1629894292810,-0.157685,0.7868999999999999,-0.594689
1629894292819,-0.155184,0.783301,-0.593896
1629894292829,-0.156831,0.781776,-0.5946279999999999
1629894292838,-0.16006399999999998,0.783301,-0.594506
1629894292848,-0.16287,0.782752,-0.592981
1629894292858,-0.165127,0.7823249999999999,-0.59231
1629894292867,-0.16591999999999998,0.782996,-0.591944
1629894292877,-0.168482,0.784277,-0.5946279999999999
1629894292886,-0.17116599999999998,0.784033,-0.597434
1629894292896,-0.17330099999999998,0.7853749999999999,-0.597983
1629894292906,-0.1769,0.787022,-0.597495
1629894292915,-0.180682,0.789706,-0.597617
1629894292925,-0.18422,0.792146,-0.59841
1629894292934,-0.18666,0.794342,-0.598288
1629894292944,-0.189405,0.796233,-0.59719
1629894292954,-0.192333,0.797209,-0.595787
1629894292963,-0.195322,0.799832,-0.596702
1629894292973,-0.197701,0.800137,-0.595726
1629894292982,-0.200263,0.801052,-0.596031
1629894292992,-0.200812,0.801906,-0.598105
1629894293002,-0.203313,0.801113,-0.598532
1629894293011,-0.203862,0.799161,-0.602253
1629894293021,-0.204167,0.795806,-0.599386
1629894293030,-0.205265,0.792024,-0.595482
1629894293040,-0.20557,0.790011,-0.592005
1629894293050,-0.204716,0.788547,-0.589321
1629894293059,-0.202398,0.788242,-0.592432
1629894293069,-0.198799,0.789401,-0.595299
1629894293078,-0.195566,0.789096,-0.596214
1629894293088,-0.192272,0.788913,-0.598715
1629894293098,-0.190076,0.7868999999999999,-0.598776
1629894293107,-0.190015,0.7823249999999999,-0.596031
1629894293117,-0.190686,0.778909,-0.592432
1629894293126,-0.19032,0.775981,-0.589016
1629894293136,-0.18934399999999998,0.774456,-0.5857829999999999
1629894293146,-0.188185,0.772504,-0.583587
1629894293155,-0.186233,0.773968,-0.583648
1629894293165,-0.184342,0.7768349999999999,-0.5848679999999999
1629894293174,-0.18257299999999999,0.780556,-0.587674
1629894293184,-0.179828,0.7847649999999999,-0.58926
1629894293194,-0.177876,0.788059,-0.590175
1629894293203,-0.177083,0.790194,-0.589321
1629894293213,-0.175924,0.792634,-0.588101
1629894293222,-0.17507,0.794464,-0.585966
1629894293232,-0.173118,0.797636,-0.584197
1629894293242,-0.173362,0.79971,-0.583587
1629894293251,-0.172874,0.802882,-0.581025
1629894293261,-0.172142,0.8054439999999999,-0.580415
1629894293270,-0.17238599999999998,0.808006,-0.58072
1629894293280,-0.172813,0.809653,-0.581696
1629894293290,-0.173118,0.8109339999999999,-0.583465
1629894293299,-0.17299599999999998,0.811605,-0.584136
1629894293309,-0.174582,0.809897,-0.585356
1629894293318,-0.176046,0.8084939999999999,-0.5870029999999999
1629894293328,-0.177205,0.806237,-0.58926
1629894293338,-0.17873,0.8051389999999999,-0.5903579999999999
1629894293347,-0.178669,0.804102,-0.592005
1629894293357,-0.17995,0.801845,-0.593164
1629894293366,-0.180682,0.800991,-0.5931029999999999
1629894293376,-0.180072,0.799588,-0.5955429999999999
1629894293386,-0.180194,0.7984289999999999,-0.596397
1629894293395,-0.180499,0.797758,-0.595726
1629894293405,-0.17915699999999998,0.79788,-0.595482
1629894293414,-0.17671699999999999,0.796965,-0.595482
1629894293424,-0.174399,0.795867,-0.594262
1629894293434,-0.17385,0.794464,-0.593225
1629894293443,-0.17238599999999998,0.794403,-0.592127
1629894293453,-0.171837,0.794647,-0.5906629999999999
1629894293462,-0.170678,0.793427,-0.5909679999999999
1629894293472,-0.170312,0.793549,-0.592127
1629894293482,-0.16836,0.793122,-0.59231
1629894293491,-0.167872,0.792573,-0.591334
1629894293501,-0.167628,0.7911699999999999,-0.592249
1629894293510,-0.165859,0.791536,-0.592676
1629894293520,-0.165188,0.790804,-0.5934079999999999
1629894293530,-0.164822,0.791353,-0.5917
1629894293539,-0.16469999999999999,0.791597,-0.591517
1629894293549,-0.163602,0.790499,-0.590785
1629894293558,-0.161894,0.791597,-0.59048
1629894293568,-0.162077,0.791597,-0.589016
1629894293578,-0.162321,0.793061,-0.5885279999999999
1629894293587,-0.160552,0.792512,-0.589016
1629894293597,-0.16128399999999998,0.792695,-0.5879179999999999
1629894293606,-0.163724,0.792634,-0.587857
1629894293616,-0.163968,0.794525,-0.58987
1629894293626,-0.163602,0.795989,-0.5900529999999999
1629894293635,-0.163541,0.797148,-0.590907
1629894293645,-0.162687,0.7999539999999999,-0.5909679999999999
1629894293654,-0.16348,0.7999539999999999,-0.590236
1629894293664,-0.162992,0.801235,-0.591029
1629894293674,-0.162504,0.802516,-0.591517
1629894293683,-0.162138,0.799832,-0.5917
1629894293693,-0.16439499999999999,0.794586,-0.588284
1629894293702,-0.164944,0.793061,-0.588467
1629894293712,-0.165859,0.794281,-0.58987
1629894293722,-0.165432,0.797087,-0.592615
1629894293731,-0.16530999999999998,0.796721,-0.5909679999999999
1629894293741,-0.16683499999999998,0.795074,-0.586454
1629894293750,-0.168604,0.797026,-0.58438
1629894293760,-0.168116,0.7999539999999999,-0.585356
1629894293770,-0.167628,0.8014789999999999,-0.586942
1629894293779,-0.16713999999999998,0.8023939999999999,-0.58743
1629894293789,-0.167872,0.802638,-0.588711
1629894293798,-0.168177,0.801845,-0.589626
1629894293808,-0.168482,0.801906,-0.5891379999999999
1629894293818,-0.169031,0.8020889999999999,-0.58743
1629894293827,-0.169336,0.801357,-0.584807
1629894293837,-0.1708,0.799771,-0.582916
1629894293846,-0.171532,0.798551,-0.582794
1629894293856,-0.17177599999999998,0.797331,-0.58499
1629894293866,-0.17238599999999998,0.797697,-0.586454
1629894293875,-0.172142,0.796904,-0.587796
1629894293885,-0.171593,0.796294,-0.589504
1629894293894,-0.17177599999999998,0.796111,-0.5891379999999999
1629894293904,-0.171837,0.795196,-0.589504
1629894293914,-0.173179,0.794098,-0.589809
1629894293923,-0.173667,0.79361,-0.590236
1629894293933,-0.17360599999999998,0.793122,-0.5906629999999999
1629894293942,-0.173362,0.794708,-0.591395
1629894293952,-0.17263,0.795867,-0.5897479999999999
1629894293962,-0.171349,0.793854,-0.590236
1629894293971,-0.172264,0.793488,-0.592066
1629894293981,-0.17116599999999998,0.793732,-0.594262
1629894293990,-0.17177599999999998,0.792451,-0.594689
1629894294000,-0.171654,0.791292,-0.594079
1629894294010,-0.172203,0.790316,-0.590724
1629894294019,-0.172325,0.790621,-0.587369
1629894294029,-0.172508,0.7917799999999999,-0.586576
1629894294038,-0.171654,0.793976,-0.588955
1629894294048,-0.17116599999999998,0.794586,-0.59109
1629894294058,-0.170678,0.796172,-0.594262
1629894294067,-0.171288,0.796416,-0.595665
1629894294077,-0.172447,0.797026,-0.5961529999999999
1629894294086,-0.171959,0.797026,-0.59536
1629894294096,-0.17299599999999998,0.795806,-0.593957
1629894294106,-0.172874,0.795196,-0.592676
1629894294115,-0.172813,0.796172,-0.5903579999999999
1629894294125,-0.172264,0.795806,-0.589931
1629894294134,-0.17263,0.794708,-0.589199
1629894294144,-0.173667,0.794891,-0.587979
1629894294154,-0.174338,0.795318,-0.5882229999999999
1629894294163,-0.174033,0.796294,-0.5897479999999999
1629894294173,-0.174277,0.797148,-0.590297
1629894294182,-0.174643,0.798002,-0.591639
1629894294192,-0.174216,0.7987339999999999,-0.591517
1629894294202,-0.174338,0.798185,-0.590602
1629894294211,-0.173911,0.798002,-0.589992
1629894294221,-0.174155,0.796782,-0.589565
1629894294230,-0.174155,0.796904,-0.5897479999999999
1629894294240,-0.174338,0.797331,-0.591944
1629894294250,-0.172264,0.795562,-0.592432
1629894294259,-0.171959,0.79483,-0.59292
1629894294269,-0.17202,0.795623,-0.5946279999999999
1629894294278,-0.171288,0.79544,-0.596702
1629894294288,-0.171044,0.794098,-0.596641
1629894294298,-0.17025099999999999,0.793183,-0.596214
1629894294307,-0.170312,0.791719,-0.593835
1629894294317,-0.17116599999999998,0.7899499999999999,-0.5906629999999999
1629894294326,-0.170983,0.7896449999999999,-0.588162
1629894294336,-0.171288,0.790194,-0.586149
1629894294346,-0.17141,0.791292,-0.58438
1629894294355,-0.171349,0.793549,-0.584075
1629894294365,-0.172264,0.795318,-0.5856
1629894294374,-0.170983,0.79727,-0.5882229999999999
1629894294384,-0.171593,0.797453,-0.589626
1629894294394,-0.172752,0.797392,-0.591334
1629894294403,-0.174094,0.796172,-0.591822
1629894294413,-0.175558,0.795745,-0.593042
1629894294422,-0.177693,0.793854,-0.593835
1629894294432,-0.177998,0.793366,-0.593652
1629894294442,-0.178303,0.792695,-0.594872
1629894294451,-0.17751,0.791658,-0.595177
1629894294461,-0.17854699999999998,0.791353,-0.5961529999999999
1629894294470,-0.17854699999999998,0.790194,-0.5949329999999999
1629894294480,-0.17934,0.791597,-0.596275
1629894294490,-0.178608,0.7911699999999999,-0.595116
1629894294499,-0.177815,0.792512,-0.595055
1629894294509,-0.177083,0.792268,-0.593469
1629894294518,-0.176656,0.792512,-0.591395
1629894294528,-0.175436,0.792146,-0.5909679999999999
1629894294538,-0.175009,0.792695,-0.5897479999999999
1629894294547,-0.173667,0.792817,-0.58804
1629894294557,-0.174704,0.792268,-0.5857829999999999
1629894294566,-0.175131,0.791597,-0.583282
1629894294576,-0.176656,0.792451,-0.582245
1629894294586,-0.177266,0.792451,-0.581391
1629894294595,-0.177815,0.792939,-0.581574
1629894294605,-0.177876,0.794525,-0.582428
1629894294614,-0.178425,0.79544,-0.584746
1629894294624,-0.17976699999999998,0.796111,-0.586942
1629894294634,-0.180438,0.797209,-0.5891379999999999
1629894294643,-0.181414,0.796477,-0.590114
1629894294653,-0.183244,0.796904,-0.5924929999999999
1629894294662,-0.183427,0.797636,-0.594567
1629894294672,-0.183366,0.79727,-0.595726
1629894294682,-0.18361,0.796172,-0.597129
1629894294691,-0.183122,0.794403,-0.59597
1629894294701,-0.18287799999999999,0.792756,-0.594384
1629894294710,-0.183,0.792329,-0.5917
1629894294720,-0.182329,0.791292,-0.590541
1629894294730,-0.181719,0.791902,-0.5900529999999999
1629894294739,-0.181536,0.792024,-0.58926
1629894294749,-0.181597,0.793061,-0.590236
1629894294758,-0.179645,0.794952,-0.592127
1629894294768,-0.178913,0.795806,-0.593286
1629894294778,-0.177266,0.794464,-0.590846
1629894294787,-0.178608,0.795196,-0.5917
1629894294797,-0.177144,0.793122,-0.591944
1629894294806,-0.17763199999999998,0.7875099999999999,-0.59109
1629894294816,-0.177998,0.788364,-0.594079
1629894294826,-0.177998,0.791292,-0.598776
1629894294835,-0.176534,0.791658,-0.600118
1629894294845,-0.176351,0.791231,-0.59719
1629894294854,-0.175436,0.790926,-0.593591
1629894294864,-0.17702199999999998,0.791963,-0.592066
1629894294874,-0.175436,0.794403,-0.5952379999999999
1629894294883,-0.172203,0.795562,-0.596641
1629894294893,-0.171532,0.796172,-0.598593
1629894294902,-0.169763,0.796599,-0.597739
1629894294912,-0.169519,0.795745,-0.596092
1629894294922,-0.167262,0.79544,-0.593347
1629894294931,-0.16775,0.795745,-0.589016
1629894294941,-0.168665,0.795135,-0.586149
1629894294950,-0.169031,0.794586,-0.5842579999999999
1629894294960,-0.167994,0.795135,-0.586027
1629894294970,-0.169519,0.795562,-0.5879179999999999
1629894294979,-0.167628,0.796904,-0.589199
1629894294989,-0.167018,0.79849,-0.589504
1629894294998,-0.167323,0.7984289999999999,-0.5900529999999999
1629894295008,-0.16622499999999998,0.798307,-0.588162
1629894295018,-0.166896,0.7987339999999999,-0.58804
1629894295027,-0.16713999999999998,0.798856,-0.58804
1629894295037,-0.167872,0.798673,-0.5879179999999999
1629894295046,-0.168726,0.7987339999999999,-0.5885279999999999
1629894295056,-0.168665,0.799161,-0.589016
1629894295066,-0.168787,0.7984289999999999,-0.587796
1629894295075,-0.167262,0.795318,-0.58682
1629894295085,-0.166774,0.79544,-0.5876129999999999
1629894295094,-0.168665,0.795623,-0.586759
1629894295104,-0.169153,0.794464,-0.5879179999999999
1629894295114,-0.168848,0.794098,-0.5866979999999999
1629894295123,-0.170312,0.794342,-0.582733
1629894295133,-0.172142,0.794769,-0.580903
1629894295142,-0.171898,0.797697,-0.582611
1629894295152,-0.17055599999999999,0.800137,-0.586759
1629894295162,-0.167872,0.8023939999999999,-0.591517
1629894295171,-0.166957,0.802028,-0.593896
1629894295181,-0.166164,0.8026989999999999,-0.594262
1629894295190,-0.165127,0.8020889999999999,-0.594811
1629894295200,-0.165554,0.800686,-0.5921879999999999
1629894295210,-0.16561499999999998,0.798185,-0.5897479999999999
1629894295219,-0.165859,0.79727,-0.588894
1629894295229,-0.16591999999999998,0.796172,-0.586881
1629894295238,-0.166713,0.795989,-0.5857829999999999
1629894295248,-0.166347,0.797148,-0.5863929999999999
1629894295258,-0.165859,0.798856,-0.587125
1629894295267,-0.164883,0.80154,-0.587979
1629894295277,-0.163785,0.8030039999999999,-0.58804
1629894295286,-0.163419,0.8048339999999999,-0.586332
1629894295296,-0.162809,0.804956,-0.585905
1629894295306,-0.16287,0.8051389999999999,-0.585417
1629894295315,-0.162443,0.805261,-0.585722
1629894295325,-0.164151,0.804956,-0.58621
1629894295334,-0.165127,0.803492,-0.58621
1629894295344,-0.165554,0.8011739999999999,-0.585966
1629894295354,-0.166164,0.799588,-0.5857829999999999
1629894295363,-0.167079,0.7984289999999999,-0.585722
1629894295373,-0.166042,0.797453,-0.587491
1629894295382,-0.167201,0.797758,-0.587857
1629894295392,-0.16652999999999998,0.796538,-0.587857
1629894295402,-0.166347,0.797209,-0.5891379999999999
1629894295411,-0.16683499999999998,0.796904,-0.5891379999999999
1629894295421,-0.166408,0.796904,-0.589504
1629894295430,-0.166774,0.796477,-0.589016
1629894295440,-0.167628,0.795806,-0.589504
1629894295450,-0.166591,0.794891,-0.587735
1629894295459,-0.166408,0.795684,-0.587857
1629894295469,-0.166774,0.796233,-0.587064
1629894295478,-0.166469,0.796294,-0.586881
1629894295488,-0.166103,0.796965,-0.586942
1629894295498,-0.165676,0.798368,-0.588467
1629894295507,-0.165188,0.798917,-0.589077
1629894295517,-0.165737,0.7999539999999999,-0.589016
1629894295526,-0.164639,0.798856,-0.588284
1629894295536,-0.163541,0.800076,-0.587369
1629894295546,-0.16348,0.799161,-0.586027
1629894295555,-0.164517,0.798978,-0.586454
1629894295565,-0.16408999999999999,0.799222,-0.589382
1629894295574,-0.163846,0.800198,-0.5894429999999999
1629894295584,-0.165249,0.798368,-0.58987
1629894295594,-0.163968,0.798551,-0.58926
1629894295603,-0.164944,0.797819,-0.588406
1629894295613,-0.16500499999999999,0.7984289999999999,-0.5885279999999999
1629894295622,-0.164212,0.799222,-0.589382
1629894295632,-0.163663,0.7990389999999999,-0.5894429999999999
1629894295642,-0.164822,0.798795,-0.589199
1629894295651,-0.165249,0.798368,-0.5891379999999999
1629894295661,-0.16530999999999998,0.798185,-0.588284
1629894295670,-0.165066,0.798246,-0.587979
1629894295680,-0.164578,0.798856,-0.5897479999999999
1629894295690,-0.164639,0.7993439999999999,-0.5888329999999999
1629894295699,-0.166408,0.798368,-0.58926
1629894295709,-0.165676,0.797575,-0.58804
1629894295718,-0.166652,0.798978,-0.588162
1629894295728,-0.167079,0.799893,-0.58804
1629894295738,-0.168055,0.800503,-0.588284
1629894295747,-0.168238,0.801601,-0.588589
1629894295757,-0.167567,0.800686,-0.589321
1629894295766,-0.169885,0.799771,-0.59048
1629894295776,-0.170678,0.799222,-0.591395
1629894295786,-0.170739,0.800015,-0.591944
1629894295795,-0.171227,0.795684,-0.590785
1629894295805,-0.17238599999999998,0.794952,-0.587491
1629894295814,-0.172508,0.794037,-0.586759
1629894295824,-0.172447,0.791597,-0.588467
1629894295834,-0.171898,0.789523,-0.588955
1629894295843,-0.172447,0.792878,-0.591029
1629894295853,-0.173789,0.793183,-0.592005
1629894295862,-0.174399,0.793854,-0.593591
1629894295872,-0.173545,0.796416,-0.591151
1629894295882,-0.172752,0.797575,-0.588772
1629894295891,-0.17263,0.798978,-0.5885279999999999
1629894295901,-0.170129,0.7999539999999999,-0.5900529999999999
1629894295910,-0.169702,0.800442,-0.592615
1629894295920,-0.170434,0.798673,-0.592859
1629894295930,-0.169275,0.79788,-0.591395
1629894295939,-0.16994599999999999,0.795928,-0.58926
1629894295949,-0.172264,0.793915,-0.588162
1629894295958,-0.17238599999999998,0.79544,-0.586637
1629894295968,-0.171837,0.795867,-0.584746
1629894295978,-0.170373,0.797453,-0.584136
1629894295987,-0.168665,0.798124,-0.585661
1629894295997,-0.169824,0.7984289999999999,-0.587064
1629894296006,-0.170312,0.797148,-0.588772
1629894296016,-0.171227,0.795928,-0.590114
1629894296026,-0.171959,0.793366,-0.5912729999999999
1629894296035,-0.172325,0.793488,-0.591029
1629894296045,-0.172264,0.793366,-0.592066
1629894296054,-0.17202,0.793366,-0.591456
1629894296064,-0.171898,0.796111,-0.592432
1629894296074,-0.171959,0.797758,-0.593164
1629894296083,-0.17238599999999998,0.796904,-0.591639
1629894296093,-0.17086099999999999,0.795135,-0.59231
1629894296102,-0.170617,0.794281,-0.594262
1629894296112,-0.170739,0.79361,-0.597495
1629894296122,-0.171532,0.793244,-0.597312
1629894296131,-0.170678,0.791414,-0.598105
1629894296141,-0.171288,0.789523,-0.592615
1629894296150,-0.173667,0.787998,-0.589199
1629894296160,-0.173789,0.789828,-0.589382
1629894296170,-0.17269099999999998,0.791963,-0.592066
1629894296179,-0.17202,0.793671,-0.5952379999999999
1629894296189,-0.17141,0.795501,-0.5978
1629894296198,-0.16994599999999999,0.796599,-0.598776
1629894296208,-0.171349,0.796904,-0.5970679999999999
1629894296218,-0.171532,0.795684,-0.594445
1629894296227,-0.17208099999999998,0.795745,-0.5937129999999999
1629894296237,-0.171654,0.794952,-0.5921879999999999
1629894296246,-0.17263,0.793244,-0.5918829999999999
1629894296256,-0.173789,0.791902,-0.5918829999999999
1629894296266,-0.174582,0.791658,-0.591761
1629894296275,-0.175131,0.790621,-0.593957
1629894296285,-0.175375,0.791292,-0.594689
1629894296294,-0.176168,0.792268,-0.59597
1629894296304,-0.17610699999999999,0.792695,-0.595116
1629894296314,-0.176778,0.791841,-0.5943229999999999
1629894296323,-0.177815,0.79239,-0.593469
1629894296333,-0.177144,0.792634,-0.592249
1629894296342,-0.177998,0.793305,-0.5917
1629894296352,-0.179096,0.79361,-0.591029
1629894296362,-0.17812,0.793122,-0.590724
1629894296371,-0.178425,0.793427,-0.591212
1629894296381,-0.177388,0.793976,-0.591029
1629894296390,-0.177998,0.794098,-0.5921879999999999
1629894296400,-0.177998,0.793976,-0.592005
1629894296410,-0.178181,0.793427,-0.59231
1629894296419,-0.178059,0.792634,-0.59109
1629894296429,-0.179218,0.792146,-0.59109
1629894296438,-0.17946199999999998,0.79239,-0.591151
1629894296448,-0.178974,0.791292,-0.5915779999999999
1629894296458,-0.17824199999999998,0.791902,-0.5912729999999999
1629894296467,-0.178669,0.791963,-0.592737
1629894296477,-0.178364,0.792024,-0.5927979999999999
1629894296486,-0.178059,0.792329,-0.591944
1629894296496,-0.17751,0.79361,-0.591944
1629894296506,-0.175497,0.795196,-0.5918829999999999
1629894296515,-0.174094,0.795318,-0.592066
1629894296525,-0.174887,0.795379,-0.591334
1629894296534,-0.173484,0.795318,-0.5900529999999999
1629894296544,-0.173972,0.796233,-0.5894429999999999
1629894296554,-0.172874,0.795379,-0.589809
1629894296563,-0.174277,0.795318,-0.5891379999999999
1629894296573,-0.174399,0.795501,-0.5885279999999999
1629894296582,-0.174399,0.795684,-0.588772
1629894296592,-0.174094,0.795989,-0.5882229999999999
1629894296602,-0.174277,0.795989,-0.587796
1629894296611,-0.174765,0.796111,-0.589077
1629894296621,-0.174582,0.795989,-0.589504
1629894296630,-0.175436,0.796233,-0.590602
1629894296640,-0.176351,0.79605,-0.591151
1629894296650,-0.17763199999999998,0.795196,-0.591456
1629894296659,-0.178425,0.79483,-0.591761
1629894296669,-0.179706,0.793732,-0.591456
1629894296678,-0.17995,0.792756,-0.591212
1629894296688,-0.180011,0.792573,-0.591517
1629894296698,-0.179645,0.793,-0.5921879999999999
1629894296707,-0.180255,0.793244,-0.592249
1629894296717,-0.179584,0.793366,-0.5918829999999999
1629894296726,-0.180072,0.792695,-0.5917
1629894296736,-0.181048,0.792878,-0.591395
1629894296746,-0.180743,0.792878,-0.592676
1629894296755,-0.181658,0.793183,-0.592615
1629894296765,-0.18178,0.79239,-0.594262
1629894296774,-0.18239,0.7914749999999999,-0.593469
1629894296784,-0.18257299999999999,0.791292,-0.595421
1629894296794,-0.183061,0.790926,-0.595909
1629894296803,-0.18239,0.790621,-0.5949329999999999
1629894296813,-0.182512,0.7899499999999999,-0.5955429999999999
1629894296822,-0.182634,0.788669,-0.597312
1629894296832,-0.182451,0.784338,-0.596031
1629894296842,-0.182207,0.783057,-0.598288
1629894296851,-0.18239,0.785558,-0.601338
1629894296861,-0.180987,0.787388,-0.602497
1629894296870,-0.17995,0.786168,-0.599142
1629894296880,-0.179645,0.785436,-0.59292
1629894296890,-0.180194,0.786717,-0.5903579999999999
1629894296899,-0.17976699999999998,0.7896449999999999,-0.591944
1629894296909,-0.17763199999999998,0.793,-0.595909
1629894296918,-0.17732699999999998,0.794098,-0.598654
1629894296928,-0.17641199999999999,0.794586,-0.598715
1629894296938,-0.17629,0.79483,-0.598776
1629894296947,-0.176778,0.793915,-0.5964579999999999
1629894296957,-0.177815,0.791963,-0.5943229999999999
1629894296966,-0.17824199999999998,0.790499,-0.592005
1629894296976,-0.179706,0.789706,-0.5918829999999999
1629894296986,-0.17915699999999998,0.788669,-0.592005
1629894296995,-0.179706,0.7878149999999999,-0.593225
1629894297005,-0.17934,0.787571,-0.594689
1629894297014,-0.178608,0.788364,-0.596519
1629894297024,-0.178608,0.787937,-0.597129
1629894297034,-0.178669,0.7878149999999999,-0.596824
1629894297043,-0.178608,0.7887299999999999,-0.597434
1629894297053,-0.178608,0.7890349999999999,-0.597312
1629894297062,-0.17824199999999998,0.789157,-0.597861
1629894297072,-0.179401,0.790072,-0.597861
1629894297082,-0.179035,0.790987,-0.59902
1629894297091,-0.178425,0.791536,-0.598532
1629894297101,-0.17854699999999998,0.790682,-0.5970679999999999
1629894297110,-0.17885199999999998,0.788974,-0.59902
1629894297120,-0.178303,0.789279,-0.601155
1629894297130,-0.177876,0.788303,-0.601643
1629894297139,-0.177388,0.7872049999999999,-0.602985
1629894297149,-0.178303,0.785192,-0.600545
1629894297158,-0.17793699999999998,0.784582,-0.595421
1629894297168,-0.17934,0.7847649999999999,-0.593957
1629894297178,-0.17873,0.785436,-0.59536
1629894297187,-0.177388,0.786778,-0.59719
1629894297197,-0.176534,0.789584,-0.599081
1629894297206,-0.17507,0.791048,-0.600728
1629894297216,-0.17507,0.790804,-0.602192
1629894297226,-0.174155,0.792939,-0.601765
1629894297235,-0.173789,0.792512,-0.598715
1629894297245,-0.173484,0.791597,-0.596946
1629894297254,-0.174948,0.7899499999999999,-0.596946
1629894297264,-0.176046,0.789401,-0.596336
1629894297274,-0.17641199999999999,0.787998,-0.59719
1629894297283,-0.176046,0.7881199999999999,-0.597861
1629894297293,-0.165432,0.789401,-0.600057
1629894297302,-0.18483,0.787449,-0.597556
1629894297312,-0.175558,0.789218,-0.598532
1629894297322,-0.17330099999999998,0.789584,-0.599874
1629894297331,-0.174094,0.788852,-0.598532
1629894297341,-0.173972,0.789218,-0.599142
1629894297350,-0.174399,0.789096,-0.59841
1629894297360,-0.175558,0.789279,-0.598166
1629894297370,-0.176046,0.788242,-0.598288
1629894297379,-0.17641199999999999,0.788486,-0.599508
1629894297389,-0.177144,0.788242,-0.599752
1629894297398,-0.176351,0.7875099999999999,-0.601216
1629894297408,-0.17629,0.787144,-0.601887
1629894297418,-0.17751,0.786168,-0.602131
1629894297427,-0.176961,0.785619,-0.601765
1629894297437,-0.177205,0.784094,-0.601887
1629894297446,-0.177144,0.782752,-0.601094
1629894297456,-0.176229,0.781532,-0.601277
1629894297466,-0.177266,0.782386,-0.601277
1629894297475,-0.17629,0.782447,-0.601765
1629894297485,-0.17629,0.783606,-0.601643
1629894297494,-0.175863,0.784094,-0.601094
1629894297504,-0.17507,0.784887,-0.601948
1629894297514,-0.173545,0.786351,-0.601948
1629894297523,-0.17324,0.787144,-0.601338
1629894297533,-0.172203,0.787022,-0.600484
1629894297542,-0.172264,0.788364,-0.599386
1629894297552,-0.17202,0.7884249999999999,-0.599142
1629894297562,-0.17086099999999999,0.790316,-0.598288
1629894297571,-0.170922,0.7893399999999999,-0.598654
1629894297581,-0.170007,0.789828,-0.599264
1629894297590,-0.170434,0.790133,-0.599142
1629894297600,-0.171105,0.789706,-0.599325
1629894297610,-0.170983,0.788913,-0.600118
1629894297619,-0.17019,0.789096,-0.599691
1629894297629,-0.170007,0.790438,-0.599752
1629894297638,-0.170495,0.789523,-0.599508
1629894297648,-0.17055599999999999,0.789462,-0.601155
1629894297658,-0.171654,0.789096,-0.600301
1629894297667,-0.172142,0.788852,-0.600423
1629894297677,-0.17269099999999998,0.787937,-0.599142
1629894297686,-0.172325,0.787876,-0.599325
1629894297696,-0.172447,0.788669,-0.599752
1629894297706,-0.17299599999999998,0.789767,-0.600606
1629894297715,-0.17263,0.789584,-0.601277
1629894297725,-0.173057,0.789706,-0.600179
1629894297734,-0.172813,0.789096,-0.599203
1629894297744,-0.17263,0.7893399999999999,-0.598288
1629894297754,-0.173972,0.787876,-0.597861
1629894297763,-0.175192,0.7884249999999999,-0.598715
1629894297773,-0.174582,0.787998,-0.599813
1629894297782,-0.175192,0.787144,-0.601643
1629894297792,-0.176229,0.786412,-0.601826
1629894297802,-0.176473,0.786107,-0.602619
1629894297811,-0.176351,0.786107,-0.601338
1629894297821,-0.17732699999999998,0.786046,-0.600606
1629894297830,-0.176595,0.783972,-0.602741
1629894297840,-0.17629,0.7807999999999999,-0.601887
1629894297850,-0.17763199999999998,0.780373,-0.60329
1629894297859,-0.177815,0.7811049999999999,-0.60573
1629894297869,-0.175741,0.783423,-0.607316
1629894297878,-0.174643,0.784399,-0.603229
1629894297888,-0.174155,0.7844599999999999,-0.596031
1629894297898,-0.175863,0.784826,-0.593042
1629894297907,-0.175558,0.7875099999999999,-0.5949329999999999
1629894297917,-0.175558,0.790194,-0.598471
1629894297926,-0.173972,0.791963,-0.601643
1629894297936,-0.172752,0.79239,-0.602314
1629894297946,-0.172813,0.793244,-0.602558
1629894297955,-0.172935,0.792695,-0.600972
1629894297965,-0.172813,0.792268,-0.598898
1629894297974,-0.174094,0.7911699999999999,-0.595482
1629894297984,-0.174216,0.789096,-0.593896
1629894297994,-0.17446,0.788547,-0.59414
1629894298003,-0.174887,0.787388,-0.5958479999999999
1629894298013,-0.174887,0.7872049999999999,-0.596946
1629894298022,-0.17385,0.787144,-0.599935
1629894298032,-0.173728,0.787327,-0.600911
1629894298042,-0.173667,0.788242,-0.59963
1629894298051,-0.173484,0.789462,-0.599752
1629894298061,-0.173179,0.789523,-0.600911
1629894298070,-0.173118,0.7896449999999999,-0.600606
1629894298080,-0.172264,0.790316,-0.601094
1629894298090,-0.172264,0.7905599999999999,-0.599874
1629894298099,-0.17147099999999998,0.791963,-0.598837
1629894298109,-0.17025099999999999,0.791658,-0.598166
1629894298118,-0.169824,0.790804,-0.599386
1629894298128,-0.16994599999999999,0.789889,-0.600667
1629894298138,-0.170495,0.788974,-0.601521
1629894298147,-0.17019,0.7881199999999999,-0.602497
1629894298157,-0.169336,0.786656,-0.600118
1629894298166,-0.1708,0.7868999999999999,-0.59536
1629894298176,-0.17177599999999998,0.786412,-0.593347
1629894298186,-0.17177599999999998,0.787022,-0.594445
1629894298195,-0.171715,0.787937,-0.598105
1629894298205,-0.170312,0.789828,-0.601094
1629894298214,-0.16958,0.792207,-0.603534
1629894298224,-0.168909,0.791597,-0.605425
1629894298234,-0.170434,0.792268,-0.605791
1629894298243,-0.171349,0.7911699999999999,-0.60268
1629894298253,-0.171837,0.788913,-0.59963
1629894298262,-0.172508,0.788059,-0.598349
1629894298272,-0.173057,0.7875099999999999,-0.599264
1629894298282,-0.172874,0.7859849999999999,-0.59963
1629894298291,-0.173667,0.785863,-0.59963
1629894298301,-0.174033,0.7853749999999999,-0.60085
1629894298310,-0.173728,0.785802,-0.599935
1629894298320,-0.17330099999999998,0.785924,-0.599935
1629894298330,-0.173423,0.787083,-0.60024
1629894298339,-0.174155,0.787876,-0.598898
1629894298349,-0.173972,0.7887299999999999,-0.598471
1629894298358,-0.173789,0.788486,-0.598654
1629894298368,-0.174704,0.789096,-0.598654
1629894298378,-0.17629,0.788242,-0.599142
1629894298387,-0.17580199999999999,0.7878149999999999,-0.599813
1629894298397,-0.174826,0.788486,-0.601399
1629894298406,-0.175985,0.787327,-0.600545
1629894298416,-0.176595,0.786412,-0.601826
1629894298426,-0.176595,0.786961,-0.602741
1629894298435,-0.177083,0.786534,-0.602741
1629894298445,-0.176656,0.787022,-0.603473
1629894298454,-0.176351,0.786351,-0.60207
1629894298464,-0.176046,0.787083,-0.601948
1629894298474,-0.175985,0.7862899999999999,-0.600789
1629894298483,-0.175619,0.7865949999999999,-0.600545
1629894298493,-0.174887,0.787022,-0.600423
1629894298502,-0.174948,0.7884249999999999,-0.600362
1629894298512,-0.174704,0.788547,-0.600667
1629894298522,-0.17324,0.789096,-0.600545
1629894298531,-0.17269099999999998,0.789523,-0.599874
1629894298541,-0.173728,0.789767,-0.599752
1629894298550,-0.172508,0.789462,-0.600362
1629894298560,-0.17141,0.788852,-0.599935
1629894298570,-0.171959,0.788608,-0.599752
1629894298579,-0.172508,0.788974,-0.599508
1629894298589,-0.17263,0.788486,-0.599203
1629894298598,-0.172508,0.787876,-0.598837
1629894298608,-0.172142,0.787266,-0.597861
1629894298618,-0.173118,0.787937,-0.5978
1629894298627,-0.17238599999999998,0.788669,-0.598715
1629894298637,-0.172813,0.788852,-0.598898
1629894298646,-0.172813,0.788852,-0.599691
1629894298656,-0.173545,0.788852,-0.600057
1629894298666,-0.174338,0.7884249999999999,-0.600179
1629894298675,-0.175436,0.787937,-0.600179
1629894298685,-0.175253,0.787754,-0.60146
1629894298694,-0.17610699999999999,0.787144,-0.601094
1629894298704,-0.176595,0.7856799999999999,-0.600057
1629894298714,-0.177205,0.7856799999999999,-0.60024
1629894298723,-0.176656,0.784521,-0.600423
1629894298733,-0.17702199999999998,0.784948,-0.601094
1629894298742,-0.17732699999999998,0.7850699999999999,-0.601094
1629894298752,-0.176656,0.785497,-0.601216
1629894298762,-0.177083,0.786107,-0.601826
1629894298771,-0.177876,0.786046,-0.600911
1629894298781,-0.17793699999999998,0.786229,-0.60085
1629894298790,-0.177449,0.787449,-0.601948
1629894298800,-0.177693,0.787693,-0.60268
1629894298810,-0.177876,0.787144,-0.603595
1629894298819,-0.177998,0.786534,-0.604388
1629894298829,-0.17934,0.785436,-0.603961
1629894298838,-0.179035,0.782386,-0.600057
1629894298848,-0.179218,0.782386,-0.600606
1629894298858,-0.17885199999999998,0.781532,-0.601643
1629894298867,-0.178486,0.778726,-0.602375
1629894298877,-0.177266,0.780983,-0.604571
1629894298886,-0.176534,0.784094,-0.606279
1629894298896,-0.175375,0.784948,-0.605608
1629894298906,-0.175131,0.786778,-0.602558
1629894298915,-0.17580199999999999,0.7881199999999999,-0.598532
1629894298925,-0.175009,0.789889,-0.597617
1629894298934,-0.174399,0.792817,-0.601521
1629894298944,-0.17263,0.793488,-0.604266
1629894298954,-0.170983,0.792146,-0.604632
1629894298963,-0.1708,0.792146,-0.603168
1629894298973,-0.170373,0.791353,-0.602192
1629894298982,-0.171044,0.788242,-0.599752
1629894298992,-0.172325,0.786961,-0.596885
1629894299002,-0.172874,0.785802,-0.5943229999999999
1629894299011,-0.173972,0.7850699999999999,-0.59414
1629894299021,-0.173911,0.784521,-0.595604
1629894299030,-0.17269099999999998,0.786229,-0.597739
1629894299040,-0.171227,0.787144,-0.598593
1629894299050,-0.171044,0.787876,-0.598959
1629894299059,-0.171593,0.789767,-0.59902
1629894299069,-0.171837,0.789889,-0.5978
1629894299078,-0.17269099999999998,0.790072,-0.599325
1629894299088,-0.172874,0.790682,-0.600484
1629894299098,-0.172935,0.791231,-0.601155
1629894299107,-0.173362,0.790072,-0.601887
1629894299117,-0.173179,0.7914749999999999,-0.60024
1629894299126,-0.172874,0.789157,-0.599203
1629894299136,-0.172264,0.787693,-0.600362
1629894299146,-0.17269099999999998,0.789218,-0.601948
1629894299155,-0.172447,0.7887299999999999,-0.60268
1629894299165,-0.17202,0.787083,-0.604754
1629894299174,-0.1708,0.785863,-0.601094
1629894299184,-0.17269099999999998,0.785253,-0.595421
1629894299194,-0.173362,0.785131,-0.594567
1629894299203,-0.172264,0.787632,-0.596214
1629894299213,-0.17086099999999999,0.789401,-0.598715
1629894299222,-0.169885,0.792573,-0.60146
1629894299232,-0.169336,0.793915,-0.601887
1629894299242,-0.168482,0.794159,-0.602436
1629894299251,-0.16897,0.793427,-0.601765
1629894299261,-0.170068,0.792024,-0.599508
1629894299270,-0.170678,0.790987,-0.597678
1629894299280,-0.17147099999999998,0.7893399999999999,-0.596214
1629894299290,-0.17202,0.788364,-0.595604
1629894299299,-0.171593,0.787632,-0.596275
1629894299309,-0.17269099999999998,0.787998,-0.5978
1629894299318,-0.171349,0.7887299999999999,-0.598471
1629894299328,-0.171715,0.789462,-0.599081
1629894299338,-0.17238599999999998,0.791414,-0.598349
1629894299347,-0.172508,0.792024,-0.5970679999999999
1629894299357,-0.172142,0.791536,-0.596519
1629894299366,-0.172447,0.7911699999999999,-0.596275
1629894299376,-0.174094,0.792207,-0.5961529999999999
1629894299386,-0.174094,0.7911699999999999,-0.595116
1629894299395,-0.174277,0.790682,-0.595116
1629894299405,-0.174094,0.7905599999999999,-0.59536
1629894299414,-0.173789,0.791536,-0.5961529999999999
1629894299424,-0.174094,0.791536,-0.59719
1629894299434,-0.174643,0.791109,-0.597922
1629894299443,-0.174582,0.790316,-0.598288
1629894299453,-0.17507,0.790133,-0.598227
1629894299462,-0.174155,0.789828,-0.5978
1629894299472,-0.173972,0.789828,-0.598044
1629894299482,-0.174582,0.790682,-0.597739
1629894299491,-0.173484,0.790682,-0.597739
1629894299501,-0.172325,0.791353,-0.597556
1629894299510,-0.17202,0.792146,-0.597922
1629894299520,-0.17086099999999999,0.79239,-0.597922
1629894299530,-0.169824,0.792756,-0.597678
1629894299539,-0.169336,0.792329,-0.596946
1629894299549,-0.169336,0.792756,-0.597434
1629894299558,-0.167689,0.792207,-0.597007
1629894299568,-0.167567,0.793,-0.59597
1629894299578,-0.166469,0.792817,-0.5964579999999999
1629894299587,-0.166408,0.792695,-0.595482
1629894299597,-0.166774,0.79239,-0.595482
1629894299606,-0.16652999999999998,0.792634,-0.5946279999999999
1629894299616,-0.166347,0.792756,-0.595604
1629894299626,-0.166286,0.79239,-0.5952379999999999
1629894299635,-0.166347,0.792207,-0.595665
1629894299645,-0.166164,0.792329,-0.59658
1629894299654,-0.166713,0.791414,-0.5958479999999999
1629894299664,-0.166042,0.792329,-0.5964579999999999
1629894299674,-0.167079,0.792573,-0.597312
1629894299683,-0.167567,0.79239,-0.597251
1629894299693,-0.167811,0.792634,-0.598532
1629894299702,-0.168482,0.792146,-0.599203
1629894299712,-0.169031,0.791414,-0.601155
1629894299722,-0.169092,0.790682,-0.600972
1629894299731,-0.170678,0.789584,-0.601094
1629894299741,-0.17202,0.7875099999999999,-0.599813
1629894299750,-0.171837,0.787083,-0.601094
1629894299760,-0.170922,0.7853749999999999,-0.602741
1629894299770,-0.17147099999999998,0.7814099999999999,-0.601399
1629894299779,-0.172203,0.781288,-0.602741
1629894299789,-0.171288,0.783972,-0.605547
1629894299798,-0.171898,0.786534,-0.606584
1629894299808,-0.171044,0.785619,-0.605242
1629894299818,-0.171105,0.786107,-0.600057
1629894299827,-0.172203,0.787754,-0.596946
1629894299837,-0.171837,0.7896449999999999,-0.599264
1629894299846,-0.170007,0.790316,-0.601887
1629894299856,-0.168726,0.791292,-0.603656
1629894299866,-0.168299,0.790804,-0.604144
1629894299875,-0.168421,0.792024,-0.604144
1629894299885,-0.169214,0.7905599999999999,-0.602192
1629894299894,-0.169641,0.788974,-0.600301
1629894299904,-0.170739,0.7878149999999999,-0.598654
1629894299914,-0.171227,0.786961,-0.597495
1629894299923,-0.170312,0.785314,-0.598532
1629894299933,-0.170495,0.785558,-0.59963
1629894299942,-0.169214,0.7859849999999999,-0.60085
1629894299952,-0.169702,0.785802,-0.601094
1629894299962,-0.169641,0.785924,-0.601826
1629894299971,-0.170068,0.786839,-0.603534
1629894299981,-0.169031,0.7872049999999999,-0.603351
1629894299990,-0.168604,0.787693,-0.603778
1629894300000,-0.168177,0.787083,-0.604388
1629894300010,-0.168848,0.787632,-0.603778
1629894300019,-0.168116,0.789462,-0.603778
1629894300029,-0.168543,0.7887299999999999,-0.603046
1629894300038,-0.167262,0.785497,-0.602985
1629894300048,-0.166713,0.7862899999999999,-0.605303
1629894300058,-0.167506,0.786046,-0.607194
1629894300067,-0.166774,0.785314,-0.608048
1629894300077,-0.166408,0.784704,-0.60634
1629894300086,-0.166591,0.782996,-0.601033
1629894300096,-0.168543,0.783606,-0.596519
1629894300106,-0.169824,0.784826,-0.597007
1629894300115,-0.168177,0.786351,-0.600057
1629894300125,-0.167689,0.788303,-0.60268
1629894300134,-0.165737,0.789767,-0.604815
1629894300144,-0.164883,0.792146,-0.606584
1629894300154,-0.165127,0.7917799999999999,-0.607072
1629894300163,-0.166713,0.7902549999999999,-0.605608
1629894300173,-0.167262,0.789096,-0.602985
1629894300182,-0.167994,0.7868999999999999,-0.601704
1629894300192,-0.170129,0.784399,-0.601216
1629894300202,-0.170495,0.783911,-0.601094
1629894300211,-0.17086099999999999,0.784277,-0.601826
1629894300221,-0.17025099999999999,0.7847649999999999,-0.603229
1629894300230,-0.170007,0.785741,-0.604205
1629894300240,-0.169092,0.7862899999999999,-0.603717
1629894300250,-0.168665,0.787571,-0.603595
1629894300259,-0.168421,0.787876,-0.602924
1629894300269,-0.169458,0.7887299999999999,-0.601155
1629894300278,-0.169336,0.788242,-0.601155
1629894300288,-0.170495,0.787876,-0.600728
1629894300298,-0.17141,0.787266,-0.600362
1629894300307,-0.171654,0.7875099999999999,-0.601094
1629894300317,-0.170983,0.787571,-0.601704
1629894300326,-0.170983,0.787327,-0.602192
1629894300336,-0.1708,0.787144,-0.60268
1629894300346,-0.17086099999999999,0.787144,-0.604388
1629894300355,-0.17202,0.787083,-0.603656
1629894300365,-0.171837,0.7859849999999999,-0.603656
1629894300374,-0.171715,0.786656,-0.603168
1629894300384,-0.1708,0.786717,-0.603534
1629894300394,-0.170922,0.787266,-0.603473
1629894300403,-0.169397,0.7875099999999999,-0.602924
1629894300413,-0.168726,0.787693,-0.602192
1629894300422,-0.168116,0.787632,-0.601948
1629894300432,-0.167384,0.7887299999999999,-0.600972
1629894300442,-0.166408,0.789157,-0.601704
1629894300451,-0.165676,0.788913,-0.60146
1629894300461,-0.16530999999999998,0.790438,-0.601094
1629894300470,-0.164761,0.7899499999999999,-0.601033
1629894300480,-0.164578,0.790133,-0.599996
1629894300490,-0.164334,0.7905599999999999,-0.599569
1629894300499,-0.164883,0.790438,-0.600667
1629894300509,-0.164212,0.790133,-0.601582
1629894300518,-0.163663,0.7896449999999999,-0.600179
1629894300528,-0.164639,0.789584,-0.599996
1629894300538,-0.164883,0.789218,-0.600484
1629894300547,-0.165249,0.789584,-0.60085
1629894300557,-0.165066,0.788974,-0.601399
1629894300566,-0.165676,0.788974,-0.600606
1629894300576,-0.165066,0.7887299999999999,-0.60024
1629894300586,-0.165127,0.790133,-0.601338
1629894300595,-0.166286,0.789462,-0.600911
1629894300605,-0.165859,0.788242,-0.600057
1629894300614,-0.166408,0.788852,-0.599752
1629894300624,-0.166469,0.789828,-0.599874
1629894300634,-0.166286,0.7893399999999999,-0.600545
1629894300643,-0.168055,0.789157,-0.602131
1629894300653,-0.168238,0.788364,-0.603351
1629894300662,-0.168726,0.7884249999999999,-0.603961
1629894300672,-0.16958,0.787327,-0.605486
1629894300682,-0.16958,0.786412,-0.604632
1629894300691,-0.169397,0.7865949999999999,-0.603412
1629894300701,-0.168482,0.785558,-0.60512
1629894300710,-0.16958,0.781898,-0.603717
1629894300720,-0.169824,0.780007,-0.604327
1629894300730,-0.170129,0.780922,-0.606523
1629894300739,-0.169214,0.783728,-0.609756
1629894300749,-0.167384,0.784826,-0.606767
1629894300758,-0.167018,0.784094,-0.599691
1629894300768,-0.169885,0.784643,-0.59475
1629894300778,-0.169336,0.787571,-0.596214
1629894300787,-0.167689,0.790682,-0.600667
1629894300797,-0.16775,0.791414,-0.603717
1629894300806,-0.166774,0.792207,-0.604937
1629894300816,-0.166042,0.792207,-0.604693
1629894300826,-0.16713999999999998,0.793183,-0.603839
1629894300835,-0.168116,0.792146,-0.601277
1629894300845,-0.169153,0.791109,-0.598959
1629894300854,-0.17055599999999999,0.788974,-0.5978
1629894300864,-0.170373,0.787327,-0.597617
1629894300874,-0.170007,0.786656,-0.598715
1629894300883,-0.16994599999999999,0.786534,-0.600606
1629894300893,-0.168787,0.786839,-0.60207
1629894300902,-0.168726,0.787083,-0.602924
1629894300912,-0.168909,0.786107,-0.603107
1629894300922,-0.16836,0.787083,-0.602802
1629894300931,-0.168238,0.787449,-0.603229
1629894300941,-0.16836,0.787144,-0.602985
1629894300950,-0.16836,0.788059,-0.602497
1629894300960,-0.16775,0.789157,-0.602497
1629894300970,-0.166469,0.790499,-0.602131
1629894300979,-0.165798,0.790072,-0.600972
1629894300989,-0.165127,0.789706,-0.602192
1629894300998,-0.164334,0.7893399999999999,-0.604144
1629894301008,-0.165432,0.7905599999999999,-0.604327
1629894301018,-0.16530999999999998,0.788181,-0.604388
1629894301027,-0.165371,0.787327,-0.601399
1629894301037,-0.165493,0.786046,-0.596336
1629894301046,-0.167262,0.785619,-0.595055
1629894301056,-0.167018,0.7868999999999999,-0.597129
1629894301066,-0.16683499999999998,0.787937,-0.599508
1629894301075,-0.165676,0.789706,-0.602375
1629894301085,-0.165676,0.7905599999999999,-0.604388
1629894301094,-0.165798,0.791292,-0.605425
1629894301104,-0.166042,0.790194,-0.604571
1629894301114,-0.166957,0.789401,-0.603717
1629894301123,-0.168238,0.789096,-0.601887
1629894301133,-0.169153,0.788181,-0.600606
1629894301142,-0.170617,0.786961,-0.600057
1629894301152,-0.170617,0.786351,-0.601094
1629894301162,-0.171044,0.787388,-0.601277
1629894301171,-0.170617,0.7862899999999999,-0.600484
1629894301181,-0.17086099999999999,0.787876,-0.600606
1629894301190,-0.17116599999999998,0.789462,-0.600057
1629894301200,-0.171044,0.790377,-0.599752
1629894301210,-0.171044,0.790682,-0.601033
1629894301219,-0.170922,0.790804,-0.601704
1629894301229,-0.171837,0.790194,-0.600484
1629894301238,-0.171898,0.789584,-0.600423
1629894301248,-0.172752,0.789462,-0.600179
1629894301258,-0.172935,0.789096,-0.602192
1629894301267,-0.173484,0.787998,-0.602009
1629894301277,-0.173667,0.787266,-0.602314
1629894301286,-0.172752,0.787266,-0.602924
1629894301296,-0.173118,0.786717,-0.603534
1629894301306,-0.17238599999999998,0.7865949999999999,-0.60268
1629894301315,-0.171654,0.787937,-0.603778
1629894301325,-0.170922,0.787266,-0.602741
1629894301334,-0.169275,0.787266,-0.603778
1629894301344,-0.167872,0.788181,-0.603107
1629894301354,-0.167933,0.788486,-0.602314
1629894301363,-0.167262,0.788364,-0.602192
1629894301373,-0.166103,0.788486,-0.60146
1629894301382,-0.166286,0.787998,-0.601277
1629894301392,-0.164761,0.788486,-0.600972
1629894301402,-0.163846,0.787937,-0.601948
1629894301411,-0.163175,0.7884249999999999,-0.600179
1629894301421,-0.163541,0.7881199999999999,-0.599752
1629894301430,-0.163602,0.788974,-0.599691
1629894301440,-0.163175,0.790072,-0.601338
1629894301450,-0.162748,0.789767,-0.600301
1629894301459,-0.163236,0.789157,-0.60146
1629894301469,-0.162443,0.7896449999999999,-0.601033
1629894301478,-0.162199,0.789096,-0.601887
1629894301488,-0.161894,0.789462,-0.601643
1629894301498,-0.162931,0.789462,-0.601399
1629894301507,-0.162809,0.7890349999999999,-0.602131
1629894301517,-0.163297,0.788852,-0.602253
1629894301526,-0.163358,0.7887299999999999,-0.602497
1629894301536,-0.162931,0.788242,-0.602192
1629894301546,-0.163175,0.788974,-0.601216
1629894301555,-0.163419,0.7887299999999999,-0.60146
1629894301565,-0.163419,0.7893399999999999,-0.601155
1629894301574,-0.162992,0.788791,-0.600484
1629894301584,-0.163358,0.789584,-0.599142
1629894301594,-0.16469999999999999,0.7899499999999999,-0.599752
1629894301603,-0.164944,0.790133,-0.600301
1629894301613,-0.164517,0.7899499999999999,-0.602131
1629894301622,-0.165859,0.788791,-0.602436
1629894301632,-0.166896,0.789096,-0.603839
1629894301642,-0.167994,0.789218,-0.605791
1629894301651,-0.167628,0.787937,-0.60329
1629894301661,-0.168482,0.7878149999999999,-0.601643
1629894301670,-0.168787,0.785741,-0.602924
1629894301680,-0.168909,0.782386,-0.603412
1629894301690,-0.17025099999999999,0.780312,-0.603351
1629894301699,-0.170312,0.782142,-0.606279
1629894301709,-0.169275,0.7847649999999999,-0.607865
1629894301718,-0.16775,0.786534,-0.60512
1629894301728,-0.168299,0.787144,-0.598654
1629894301738,-0.169763,0.788669,-0.59353
1629894301747,-0.16958,0.790499,-0.594872
1629894301757,-0.169458,0.793427,-0.599325
1629894301766,-0.168238,0.794952,-0.602192
1629894301776,-0.168238,0.795623,-0.602131
1629894301786,-0.167384,0.795196,-0.601155
1629894301795,-0.168421,0.79422,-0.600728
1629894301805,-0.168848,0.792268,-0.600057
1629894301814,-0.169641,0.790987,-0.5970679999999999
1629894301824,-0.170739,0.789523,-0.594872
1629894301834,-0.170678,0.787754,-0.594445
1629894301843,-0.169885,0.786534,-0.596824
1629894301853,-0.169397,0.786656,-0.596946
1629894301862,-0.169275,0.786656,-0.597312
1629894301872,-0.168482,0.788242,-0.59902
1629894301882,-0.168177,0.788974,-0.599508
1629894301891,-0.167628,0.788059,-0.599508
1629894301901,-0.168604,0.790133,-0.601277
1629894301910,-0.167994,0.790743,-0.602314
1629894301920,-0.167506,0.7920849999999999,-0.603046
1629894301930,-0.168299,0.791597,-0.602497
1629894301939,-0.167994,0.79239,-0.600362
1629894301949,-0.167201,0.791109,-0.598959
1629894301958,-0.167079,0.790621,-0.599386
1629894301968,-0.165981,0.7908649999999999,-0.60207
1629894301978,-0.166286,0.789889,-0.603595
1629894301987,-0.167567,0.788364,-0.603595
1629894301997,-0.167384,0.787083,-0.599996
1629894302006,-0.168543,0.786839,-0.59597
1629894302016,-0.16994599999999999,0.787632,-0.595055
1629894302026,-0.16744499999999998,0.788913,-0.598288
1629894302035,-0.167567,0.789462,-0.600667
1629894302045,-0.167262,0.7914749999999999,-0.602985
1629894302054,-0.165554,0.793244,-0.604632
1629894302064,-0.165859,0.793427,-0.605486
1629894302074,-0.16530999999999998,0.793549,-0.605059
1629894302083,-0.166347,0.792146,-0.60268
1629894302093,-0.167079,0.7890349999999999,-0.598776
1629894302102,-0.167323,0.787998,-0.597495
1629894302112,-0.167628,0.787266,-0.597007
1629894302122,-0.167628,0.787571,-0.598044
1629894302131,-0.166408,0.787449,-0.599508
1629894302141,-0.16652999999999998,0.788486,-0.600179
1629894302150,-0.166408,0.789401,-0.600362
1629894302160,-0.165981,0.790011,-0.599325
1629894302170,-0.165432,0.790926,-0.598166
1629894302179,-0.165554,0.791536,-0.598898
1629894302189,-0.166469,0.792573,-0.598959
1629894302198,-0.165981,0.792573,-0.598166
1629894302208,-0.166347,0.791841,-0.598593
1629894302218,-0.166957,0.791414,-0.599081
1629894302227,-0.16744499999999998,0.791414,-0.599752
1629894302237,-0.16744499999999998,0.790926,-0.599874
1629894302246,-0.16775,0.790072,-0.599935
1629894302256,-0.167262,0.790316,-0.600362
1629894302266,-0.166713,0.7905599999999999,-0.601399
1629894302275,-0.167201,0.7908649999999999,-0.599935
1629894302285,-0.166957,0.7902549999999999,-0.59963
1629894302294,-0.166652,0.789828,-0.599935
1629894302304,-0.166347,0.789767,-0.599081
1629894302314,-0.164883,0.7902549999999999,-0.599874
1629894302323,-0.164639,0.790499,-0.601094
1629894302333,-0.165249,0.7908649999999999,-0.601277
1629894302342,-0.164273,0.7896449999999999,-0.601765
1629894302352,-0.163358,0.789523,-0.601216
1629894302362,-0.161955,0.788608,-0.600545
1629894302371,-0.162138,0.7899499999999999,-0.600423
1629894302381,-0.160796,0.788974,-0.59902
1629894302390,-0.16043,0.789401,-0.599264
1629894302400,-0.159271,0.790316,-0.597983
1629894302410,-0.15914899999999998,0.7917799999999999,-0.59902
1629894302419,-0.15823399999999999,0.7914749999999999,-0.598715
1629894302429,-0.158417,0.793549,-0.598166
1629894302438,-0.158905,0.793244,-0.597922
1629894302448,-0.159576,0.79361,-0.596946
1629894302458,-0.161162,0.793854,-0.595909
1629894302467,-0.161528,0.794342,-0.595421
1629894302477,-0.161345,0.794464,-0.595909
1629894302486,-0.160796,0.794403,-0.596824
1629894302496,-0.160857,0.794891,-0.598288
1629894302506,-0.160552,0.793366,-0.598288
1629894302515,-0.162016,0.793793,-0.598532
1629894302525,-0.163297,0.793854,-0.598288
1629894302534,-0.162443,0.793366,-0.598471
1629894302544,-0.16226,0.793061,-0.599752
1629894302554,-0.162748,0.792146,-0.599569
1629894302563,-0.163175,0.7917799999999999,-0.599752
1629894302573,-0.16408999999999999,0.7908649999999999,-0.602009
1629894302582,-0.164883,0.790377,-0.602558
1629894302592,-0.164944,0.788059,-0.60146
1629894302602,-0.165554,0.7859849999999999,-0.599386
1629894302611,-0.165676,0.786351,-0.598654
1629894302621,-0.164578,0.7850699999999999,-0.600972
1629894302630,-0.163907,0.782813,-0.601216
1629894302640,-0.163114,0.784582,-0.603961
1629894302650,-0.163907,0.7865949999999999,-0.605181
1629894302659,-0.16348,0.788059,-0.60512
1629894302669,-0.16348,0.7902549999999999,-0.602619
1629894302678,-0.16348,0.790926,-0.597922
1629894302688,-0.162809,0.793305,-0.596824
1629894302698,-0.16104,0.795257,-0.600301
1629894302707,-0.15982,0.795745,-0.603351
1629894302717,-0.159271,0.79483,-0.604693
1629894302726,-0.159698,0.793732,-0.603534
1629894302736,-0.160613,0.791109,-0.60146
1629894302746,-0.160613,0.790316,-0.599142
1629894302755,-0.161162,0.788913,-0.597495
1629894302765,-0.16165,0.789096,-0.595726
1629894302774,-0.16097899999999998,0.789096,-0.594567
1629894302784,-0.161162,0.790377,-0.595909
1629894302794,-0.159942,0.790621,-0.599203
1629894302803,-0.159515,0.790987,-0.599325
1629894302813,-0.159637,0.791963,-0.599203
1629894302822,-0.159393,0.793549,-0.598654
1629894302832,-0.16006399999999998,0.793183,-0.599935
1629894302842,-0.160308,0.793732,-0.601338
1629894302851,-0.15982,0.794891,-0.601155
1629894302861,-0.159942,0.795318,-0.602192
1629894302870,-0.160186,0.794708,-0.601643
1629894302880,-0.15982,0.793305,-0.601216
1629894302890,-0.159942,0.7905599999999999,-0.600972
1629894302899,-0.160003,0.790011,-0.603961
1629894302909,-0.16036899999999998,0.7899499999999999,-0.604693
1629894302918,-0.159637,0.788608,-0.604388
1629894302928,-0.158966,0.788364,-0.604022
1629894302938,-0.159515,0.7862899999999999,-0.59719
1629894302947,-0.161772,0.786351,-0.59414
1629894302957,-0.161833,0.786778,-0.5949329999999999
1629894302966,-0.160735,0.789523,-0.597373
1629894302976,-0.160735,0.791048,-0.600972
1629894302986,-0.160308,0.793244,-0.604266
1629894302995,-0.15945399999999998,0.794159,-0.604815
1629894303005,-0.160186,0.793915,-0.604144
1629894303014,-0.161467,0.792634,-0.602436
1629894303024,-0.163236,0.791231,-0.601521
1629894303034,-0.164517,0.789096,-0.600789
1629894303043,-0.164456,0.787693,-0.600667
1629894303053,-0.16500499999999999,0.787327,-0.60024
1629894303062,-0.164578,0.787876,-0.601399
1629894303072,-0.16561499999999998,0.7868999999999999,-0.601521
1629894303082,-0.16591999999999998,0.786717,-0.601765
1629894303091,-0.165798,0.786961,-0.602924
1629894303101,-0.167506,0.788608,-0.602802
1629894303110,-0.16713999999999998,0.7887299999999999,-0.602375
1629894303120,-0.165798,0.788974,-0.601399
1629894303130,-0.166774,0.789889,-0.600179
1629894303139,-0.167506,0.790072,-0.599508
1629894303149,-0.16775,0.791048,-0.599996
1629894303158,-0.167628,0.790194,-0.601643
1629894303168,-0.168604,0.789157,-0.601338
1629894303178,-0.168604,0.7890349999999999,-0.601582
1629894303187,-0.16836,0.7890349999999999,-0.602802
1629894303197,-0.169763,0.788364,-0.603412
1629894303206,-0.169885,0.787876,-0.6039
1629894303216,-0.169519,0.7868999999999999,-0.604327
1629894303226,-0.169214,0.785802,-0.603351
1629894303235,-0.169275,0.786168,-0.602558
1629894303245,-0.169092,0.786534,-0.604693
1629894303254,-0.167262,0.786412,-0.604449
1629894303264,-0.166957,0.786961,-0.604144
1629894303274,-0.166286,0.786656,-0.604083
1629894303283,-0.165859,0.786961,-0.604754
1629894303293,-0.164456,0.787022,-0.602619
1629894303302,-0.164761,0.786656,-0.602009
1629894303312,-0.163907,0.786717,-0.602375
1629894303322,-0.163724,0.787022,-0.602192
1629894303331,-0.163602,0.787022,-0.602497
1629894303341,-0.162321,0.786961,-0.603168
1629894303350,-0.162077,0.7875099999999999,-0.603656
1629894303360,-0.161162,0.787693,-0.603717
1629894303370,-0.160857,0.787022,-0.604144
1629894303379,-0.160857,0.786839,-0.603534
1629894303389,-0.160735,0.7875099999999999,-0.604571
1629894303398,-0.161589,0.786351,-0.604327
1629894303408,-0.162626,0.786961,-0.604205
1629894303418,-0.163419,0.786107,-0.604083
1629894303427,-0.163846,0.7859849999999999,-0.605242
1629894303437,-0.163541,0.786168,-0.604632
1629894303446,-0.164456,0.7872049999999999,-0.603778
1629894303456,-0.165066,0.788364,-0.604022
1629894303466,-0.165066,0.787266,-0.602863
1629894303475,-0.166042,0.787754,-0.602192
1629894303485,-0.165798,0.787083,-0.60207
1629894303494,-0.166164,0.788181,-0.601399
1629894303504,-0.16744499999999998,0.7881199999999999,-0.60268
1629894303514,-0.167628,0.7884249999999999,-0.6039
1629894303523,-0.169275,0.787998,-0.606218
1629894303533,-0.169519,0.7884249999999999,-0.605913
1629894303542,-0.16994599999999999,0.7875099999999999,-0.606828
1629894303552,-0.169824,0.7853749999999999,-0.605181
1629894303562,-0.170312,0.785436,-0.604144
1629894303571,-0.171105,0.7835449999999999,-0.605364
1629894303581,-0.17238599999999998,0.779031,-0.603839
1629894303590,-0.172447,0.778482,-0.606279
1629894303600,-0.171715,0.780434,-0.609878
1629894303610,-0.171837,0.782752,-0.6119519999999999
1629894303619,-0.170739,0.782874,-0.6076819999999999
1629894303629,-0.17086099999999999,0.782752,-0.601094
1629894303638,-0.171959,0.783423,-0.598105
1629894303648,-0.17208099999999998,0.787937,-0.599142
1629894303658,-0.169824,0.789767,-0.603168
1629894303667,-0.169641,0.790804,-0.604998
1629894303677,-0.168421,0.790682,-0.605547
1629894303686,-0.168177,0.791841,-0.604693
1629894303696,-0.168421,0.791109,-0.603351
1629894303706,-0.169885,0.790377,-0.601887
1629894303715,-0.17086099999999999,0.788608,-0.600057
1629894303725,-0.171532,0.787327,-0.599081
1629894303734,-0.172203,0.7856799999999999,-0.599203
1629894303744,-0.172508,0.784887,-0.601582
1629894303754,-0.172203,0.784704,-0.603046
1629894303763,-0.172264,0.785009,-0.6039
1629894303773,-0.172447,0.785009,-0.604388
1629894303782,-0.171105,0.784826,-0.605425
1629894303792,-0.171044,0.785314,-0.604144
1629894303802,-0.170739,0.785131,-0.604632
1629894303811,-0.170678,0.785558,-0.604083
1629894303821,-0.169885,0.7865949999999999,-0.604205
1629894303830,-0.170129,0.787571,-0.604937
1629894303840,-0.169824,0.788547,-0.604083
1629894303850,-0.16836,0.786961,-0.603229
1629894303859,-0.168543,0.786717,-0.604144
1629894303869,-0.167994,0.787693,-0.607194
1629894303878,-0.167994,0.787022,-0.608414
1629894303888,-0.168238,0.7850699999999999,-0.607926
1629894303898,-0.167628,0.784582,-0.60268
1629894303907,-0.16897,0.783362,-0.598166
1629894303917,-0.169214,0.7835449999999999,-0.596336
1629894303926,-0.170312,0.785253,-0.599874
1629894303936,-0.168604,0.786229,-0.604083
1629894303946,-0.168604,0.7872049999999999,-0.607316
1629894303955,-0.16836,0.7875099999999999,-0.609329
1629894303965,-0.168177,0.7884249999999999,-0.609695
1629894303974,-0.169519,0.786778,-0.609634
1629894303984,-0.17025099999999999,0.786351,-0.60756
1629894303994,-0.17141,0.784704,-0.604632
1629894304003,-0.17208099999999998,0.7835449999999999,-0.605059
1629894304013,-0.171959,0.782874,-0.605425
1629894304022,-0.172508,0.781898,-0.604693
1629894304032,-0.172325,0.7820199999999999,-0.604754
1629894304042,-0.171837,0.784094,-0.604022
1629894304051,-0.171715,0.7844599999999999,-0.604571
1629894304061,-0.171654,0.786839,-0.604388
1629894304070,-0.170495,0.787388,-0.603778
1629894304080,-0.170617,0.787266,-0.603046
1629894304090,-0.170678,0.788059,-0.60207
1629894304099,-0.171105,0.787693,-0.602375
1629894304109,-0.171593,0.786778,-0.60146
1629894304118,-0.172752,0.786656,-0.602741
1629894304128,-0.17360599999999998,0.786534,-0.603534
1629894304138,-0.173789,0.7850699999999999,-0.603595
1629894304147,-0.173911,0.785619,-0.604937
1629894304157,-0.17324,0.7847649999999999,-0.604876
1629894304166,-0.173423,0.784094,-0.605669
1629894304176,-0.172935,0.784338,-0.604998
1629894304186,-0.172142,0.785802,-0.605181
1629894304195,-0.17177599999999998,0.786107,-0.6039
1629894304205,-0.171227,0.786107,-0.60451
1629894304214,-0.171227,0.787083,-0.603656
1629894304224,-0.169519,0.786717,-0.603168
1629894304234,-0.169092,0.788181,-0.603168
1629894304243,-0.167628,0.787998,-0.60268
1629894304253,-0.16775,0.788852,-0.602009
1629894304262,-0.166286,0.788303,-0.601704
1629894304272,-0.165798,0.788242,-0.60146
1629894304282,-0.165554,0.788059,-0.599996
1629894304291,-0.165371,0.7893399999999999,-0.600423
1629894304301,-0.16500499999999999,0.789279,-0.600972
1629894304310,-0.16500499999999999,0.788303,-0.600362
1629894304320,-0.164944,0.7881199999999999,-0.600972
1629894304330,-0.164944,0.788974,-0.600789
1629894304339,-0.165859,0.788364,-0.601277
1629894304349,-0.165493,0.788486,-0.601277
1629894304358,-0.166286,0.7884249999999999,-0.601094
1629894304368,-0.166957,0.787693,-0.602375
1629894304378,-0.16683499999999998,0.787266,-0.60268
1629894304387,-0.167872,0.786778,-0.603778
1629894304397,-0.167872,0.7872049999999999,-0.603778
1629894304406,-0.167323,0.787083,-0.603778
1629894304416,-0.168604,0.7878149999999999,-0.603229
1629894304426,-0.169153,0.788059,-0.602436
1629894304435,-0.169519,0.787266,-0.602619
1629894304445,-0.169763,0.7872049999999999,-0.602985
1629894304454,-0.169702,0.7878149999999999,-0.603351
1629894304464,-0.169885,0.788059,-0.602741
1629894304474,-0.168909,0.788181,-0.60207
1629894304483,-0.169397,0.7881199999999999,-0.601948
1629894304493,-0.169702,0.788059,-0.600667
1629894304502,-0.169885,0.787754,-0.601887
1629894304512,-0.170312,0.7884249999999999,-0.601216
1629894304522,-0.169702,0.788486,-0.60207
1629894304531,-0.171044,0.787937,-0.604083
1629894304541,-0.170129,0.7875099999999999,-0.604876
1629894304550,-0.170739,0.787449,-0.60512
1629894304560,-0.170129,0.787022,-0.604022
1629894304570,-0.170617,0.786534,-0.603839
1629894304579,-0.169702,0.785436,-0.605547
1629894304589,-0.169763,0.781044,-0.604266
1629894304598,-0.170068,0.780373,-0.60573
1629894304608,-0.169214,0.7826299999999999,-0.6076819999999999
1629894304618,-0.169214,0.7841549999999999,-0.6101219999999999
1629894304627,-0.16683499999999998,0.784704,-0.604205
1629894304637,-0.167384,0.7850699999999999,-0.598044
1629894304646,-0.168726,0.785253,-0.59536
1629894304656,-0.167018,0.789157,-0.598898
1629894304666,-0.16591999999999998,0.791048,-0.602924
1629894304675,-0.166347,0.793122,-0.605425
1629894304685,-0.166164,0.792634,-0.605608
1629894304694,-0.165432,0.793427,-0.604388
1629894304704,-0.166469,0.792939,-0.603229
1629894304714,-0.166896,0.791902,-0.600667
1629894304723,-0.168116,0.790072,-0.599386
1629894304733,-0.169824,0.788303,-0.598288
1629894304742,-0.169275,0.786534,-0.598959
1629894304752,-0.16994599999999999,0.7859849999999999,-0.600911
1629894304762,-0.169092,0.784826,-0.602802
1629894304771,-0.16897,0.784521,-0.60451
1629894304781,-0.169214,0.784399,-0.60451
1629894304790,-0.169458,0.784521,-0.60451
1629894304800,-0.168482,0.785192,-0.604815
1629894304810,-0.16836,0.7856799999999999,-0.605059
1629894304819,-0.167811,0.7868999999999999,-0.604632
1629894304829,-0.167933,0.787571,-0.604449
1629894304838,-0.166591,0.788852,-0.604449
1629894304848,-0.166652,0.7893399999999999,-0.603961
1629894304858,-0.16530999999999998,0.7881199999999999,-0.602985
1629894304867,-0.164944,0.787632,-0.604022
1629894304877,-0.165554,0.787754,-0.605547
1629894304886,-0.164944,0.7872049999999999,-0.605974
1629894304896,-0.164883,0.7844599999999999,-0.606523
1629894304906,-0.16530999999999998,0.783667,-0.60207
1629894304915,-0.166103,0.782691,-0.597434
1629894304925,-0.166896,0.784277,-0.5967629999999999
1629894304934,-0.166286,0.784399,-0.600484
1629894304944,-0.165737,0.786717,-0.602741
1629894304954,-0.165554,0.7890349999999999,-0.60512
1629894304963,-0.164456,0.790438,-0.60756
1629894304973,-0.164334,0.790987,-0.607926
1629894304982,-0.16500499999999999,0.790682,-0.607438
1629894304992,-0.165554,0.7896449999999999,-0.604754
1629894305002,-0.165676,0.7890349999999999,-0.604388
1629894305011,-0.167384,0.786839,-0.602253
1629894305021,-0.167567,0.784826,-0.601887
1629894305030,-0.167933,0.783423,-0.601765
1629894305040,-0.167872,0.7838499999999999,-0.601277
1629894305050,-0.168238,0.7841549999999999,-0.601704
1629894305059,-0.168482,0.7847649999999999,-0.601521
1629894305069,-0.168238,0.787083,-0.602009
1629894305078,-0.168238,0.788242,-0.602863
1629894305088,-0.169336,0.788791,-0.601643
1629894305098,-0.169214,0.7896449999999999,-0.601704
1629894305107,-0.16897,0.789584,-0.602253
1629894305117,-0.170373,0.789279,-0.602253
1629894305126,-0.171227,0.787998,-0.602375
1629894305136,-0.171654,0.787449,-0.602497
1629894305146,-0.172203,0.786168,-0.603107
1629894305155,-0.173545,0.787022,-0.603839
1629894305165,-0.17263,0.786107,-0.604876
1629894305174,-0.172264,0.786168,-0.605913
1629894305184,-0.17202,0.785009,-0.606401
1629894305194,-0.171959,0.785558,-0.60573
1629894305203,-0.171044,0.785436,-0.604815
1629894305213,-0.17141,0.785802,-0.604205
1629894305222,-0.17177599999999998,0.786046,-0.604754
1629894305232,-0.169702,0.7862899999999999,-0.603595
1629894305242,-0.168543,0.786717,-0.603839
1629894305251,-0.167201,0.788059,-0.602375
1629894305261,-0.166469,0.7881199999999999,-0.602009
1629894305270,-0.16591999999999998,0.788486,-0.601033
1629894305280,-0.164944,0.787998,-0.601155
1629894305290,-0.164944,0.789218,-0.60085
1629894305299,-0.164029,0.789584,-0.601948
1629894305309,-0.16348,0.789157,-0.602131
1629894305318,-0.163663,0.788791,-0.601704
1629894305328,-0.164273,0.788303,-0.601582
1629894305338,-0.163236,0.787754,-0.601277
1629894305347,-0.162504,0.788364,-0.601338
1629894305357,-0.163114,0.788852,-0.602802
1629894305366,-0.16226,0.7881199999999999,-0.602863
1629894305376,-0.162626,0.789401,-0.601887
1629894305386,-0.162809,0.789889,-0.601216
1629894305395,-0.162016,0.789157,-0.600667
1629894305405,-0.163053,0.788852,-0.600728
1629894305414,-0.163358,0.7893399999999999,-0.601338
1629894305424,-0.162931,0.790377,-0.601704
1629894305434,-0.16287,0.789584,-0.602009
1629894305443,-0.164517,0.789096,-0.602192
1629894305453,-0.162992,0.788913,-0.60268
1629894305462,-0.16500499999999999,0.788852,-0.60207
1629894305472,-0.165493,0.788913,-0.602009
1629894305482,-0.166408,0.787998,-0.602619
1629894305491,-0.16591999999999998,0.787876,-0.601887
1629894305501,-0.166774,0.787754,-0.602192
1629894305510,-0.16622499999999998,0.787266,-0.60146
1629894305520,-0.166042,0.787388,-0.601155
1629894305530,-0.165981,0.7881199999999999,-0.60207
1629894305539,-0.165676,0.790377,-0.603046
1629894305549,-0.16561499999999998,0.790682,-0.602619
1629894305558,-0.165493,0.791353,-0.602741
1629894305568,-0.165188,0.7905599999999999,-0.602314
1629894305578,-0.165432,0.790438,-0.602802
1629894305587,-0.166103,0.7911699999999999,-0.60329
1629894305597,-0.167201,0.790682,-0.602192
1629894305606,-0.16683499999999998,0.788303,-0.603168
1629894305616,-0.167567,0.785314,-0.600545
1629894305626,-0.168238,0.786046,-0.601399
1629894305635,-0.16622499999999998,0.783728,-0.602131
1629894305645,-0.166164,0.781288,-0.600667
1629894305654,-0.164883,0.783972,-0.602497
1629894305664,-0.165676,0.787693,-0.604632
1629894305674,-0.165981,0.787327,-0.60512
1629894305683,-0.165249,0.788974,-0.602009
1629894305693,-0.164822,0.789584,-0.597556
1629894305702,-0.166164,0.792146,-0.59841
1629894305712,-0.163907,0.795318,-0.603473
1629894305722,-0.161406,0.795684,-0.604327
1629894305731,-0.161406,0.795135,-0.604876
1629894305741,-0.161101,0.793183,-0.604632
1629894305750,-0.162138,0.7911699999999999,-0.601582
1629894305760,-0.162016,0.790682,-0.599081
1629894305770,-0.162138,0.789096,-0.59719
1629894305779,-0.162077,0.787998,-0.594811
1629894305789,-0.162504,0.7875099999999999,-0.594811
1629894305798,-0.161711,0.787998,-0.59536
1629894305808,-0.160613,0.788852,-0.597129
1629894305818,-0.158966,0.790743,-0.598044
1629894305827,-0.159088,0.790987,-0.598654
1629894305837,-0.158478,0.792695,-0.59902
1629894305846,-0.15975899999999998,0.792268,-0.598654
1629894305856,-0.160857,0.792207,-0.598776
1629894305866,-0.161101,0.792573,-0.599325
1629894305875,-0.16226,0.792268,-0.601582
1629894305885,-0.162687,0.792878,-0.602558
1629894305894,-0.16226,0.793732,-0.601765
1629894305904,-0.162077,0.7908649999999999,-0.601216
1629894305914,-0.161589,0.7899499999999999,-0.602375
1629894305923,-0.162016,0.789889,-0.604022
1629894305933,-0.162504,0.789218,-0.605059
1629894305942,-0.162382,0.788913,-0.605242
1629894305952,-0.161528,0.7878149999999999,-0.600118
1629894305962,-0.163236,0.7868999999999999,-0.5955429999999999
1629894305971,-0.162504,0.787998,-0.595604
1629894305981,-0.162504,0.789706,-0.59963
1629894305990,-0.161589,0.792207,-0.601399
1629894306000,-0.160796,0.793427,-0.604571
1629894306010,-0.159515,0.793976,-0.605303
1629894306019,-0.161406,0.793366,-0.604144
1629894306029,-0.16128399999999998,0.792512,-0.601582
1629894306038,-0.162748,0.790621,-0.599386
1629894306048,-0.163114,0.789096,-0.599325
1629894306058,-0.163724,0.787754,-0.598837
1629894306067,-0.164029,0.786778,-0.599752
1629894306077,-0.164273,0.787022,-0.60024
1629894306086,-0.164578,0.7881199999999999,-0.600728
1629894306096,-0.163968,0.788791,-0.60085
1629894306106,-0.16530999999999998,0.789157,-0.601765
1629894306115,-0.165066,0.790499,-0.600484
1629894306125,-0.165493,0.790926,-0.600789
1629894306134,-0.16561499999999998,0.791963,-0.599447
1629894306144,-0.16591999999999998,0.791414,-0.598959
1629894306154,-0.16652999999999998,0.791841,-0.597556
1629894306163,-0.165493,0.790621,-0.598654
1629894306173,-0.166408,0.791109,-0.598959
1629894306182,-0.166103,0.7911699999999999,-0.599569
1629894306192,-0.166896,0.790743,-0.600301
1629894306202,-0.166957,0.7896449999999999,-0.600606
1629894306211,-0.167018,0.790194,-0.601216
1629894306221,-0.168238,0.789462,-0.601765
1629894306230,-0.167628,0.7890349999999999,-0.601704
1629894306240,-0.167384,0.788913,-0.602192
1629894306250,-0.168238,0.789523,-0.60268
1629894306259,-0.16836,0.789096,-0.601582
1629894306269,-0.167994,0.7890349999999999,-0.600911
1629894306278,-0.167689,0.788852,-0.601094
1629894306288,-0.166652,0.789706,-0.601582
1629894306298,-0.165249,0.790987,-0.60207
1629894306307,-0.165493,0.791414,-0.600362
1629894306317,-0.164944,0.791841,-0.600179
1629894306326,-0.163297,0.791597,-0.598532
1629894306336,-0.163785,0.791536,-0.598898
1629894306346,-0.162992,0.790621,-0.598471
1629894306355,-0.16348,0.791414,-0.598166
1629894306365,-0.162443,0.790987,-0.597129
1629894306374,-0.162687,0.7908649999999999,-0.597678
1629894306384,-0.162382,0.791048,-0.597495
1629894306394,-0.161772,0.791536,-0.597312
1629894306403,-0.162138,0.791292,-0.59841
1629894306413,-0.162077,0.791536,-0.598654
1629894306422,-0.161894,0.791353,-0.599386
1629894306432,-0.16287,0.791902,-0.599935
1629894306442,-0.163419,0.791048,-0.599081
1629894306451,-0.163114,0.790621,-0.599508
1629894306461,-0.162748,0.7911699999999999,-0.599325
1629894306470,-0.163419,0.7908649999999999,-0.600118
1629894306480,-0.163358,0.790682,-0.600179
1629894306490,-0.163236,0.789889,-0.599996
1629894306499,-0.164212,0.789157,-0.599813
1629894306509,-0.164151,0.790743,-0.59963
1629894306518,-0.163724,0.790621,-0.599996
1629894306528,-0.165371,0.790072,-0.600667
1629894306538,-0.16500499999999999,0.789218,-0.601704
1629894306547,-0.165798,0.789706,-0.601704
1629894306557,-0.16652999999999998,0.789218,-0.60207
1629894306566,-0.165127,0.7878149999999999,-0.601094
1629894306576,-0.16652999999999998,0.788913,-0.601033
1629894306586,-0.167323,0.787998,-0.60085
1629894306595,-0.166591,0.788303,-0.601155
1629894306605,-0.16744499999999998,0.788303,-0.60146
1629894306614,-0.166957,0.788364,-0.602009
1629894306624,-0.167384,0.788852,-0.601216
1629894306634,-0.167567,0.789706,-0.601277
1629894306643,-0.166713,0.7899499999999999,-0.600911
1629894306653,-0.167262,0.790072,-0.601033
1629894306662,-0.167079,0.791536,-0.601887
1629894306672,-0.167567,0.790682,-0.602619
1629894306682,-0.167628,0.790011,-0.603351
1629894306691,-0.167872,0.789828,-0.602802
1629894306701,-0.169031,0.787754,-0.602436
1629894306710,-0.169336,0.785802,-0.600362
1629894306720,-0.16958,0.785497,-0.600484
1629894306730,-0.168116,0.784826,-0.602497
1629894306739,-0.168848,0.780556,-0.602436
1629894306749,-0.168238,0.782752,-0.604815
1629894306758,-0.168055,0.7872049999999999,-0.607499
1629894306768,-0.168238,0.786961,-0.60634
1629894306778,-0.168421,0.786168,-0.600484
1629894306787,-0.168848,0.787327,-0.597678
1629894306797,-0.169397,0.7896449999999999,-0.59902
1629894306806,-0.166652,0.792451,-0.603656
1629894306816,-0.165737,0.793427,-0.605791
1629894306826,-0.165737,0.792268,-0.606096
1629894306835,-0.16622499999999998,0.792573,-0.604205
1629894306845,-0.166042,0.7914749999999999,-0.602131
1629894306854,-0.16775,0.789828,-0.599752
1629894306864,-0.167689,0.789279,-0.59658
1629894306874,-0.169153,0.7878149999999999,-0.594994
1629894306883,-0.168177,0.789096,-0.5955429999999999
1629894306893,-0.168238,0.788974,-0.596519
1629894306902,-0.167323,0.789706,-0.596519
1629894306912,-0.167567,0.7902549999999999,-0.598166
1629894306922,-0.16713999999999998,0.790438,-0.599447
1629894306931,-0.16683499999999998,0.790926,-0.598837
1629894306941,-0.167567,0.791353,-0.599569
1629894306950,-0.167506,0.790743,-0.599325
1629894306960,-0.168299,0.790682,-0.600362
1629894306970,-0.16775,0.7899499999999999,-0.600606
1629894306979,-0.167994,0.791414,-0.60085
1629894306989,-0.168177,0.791658,-0.600972
1629894306998,-0.168543,0.7902549999999999,-0.599996
1629894307008,-0.166469,0.7881199999999999,-0.600789
1629894307018,-0.165981,0.789462,-0.603473
1629894307027,-0.166103,0.7893399999999999,-0.603107
1629894307037,-0.165676,0.788913,-0.603839
1629894307046,-0.164456,0.788242,-0.601521
1629894307056,-0.16622499999999998,0.7868999999999999,-0.593896
1629894307066,-0.167262,0.787083,-0.591212
1629894307075,-0.165981,0.789279,-0.594384
1629894307085,-0.164639,0.7908649999999999,-0.598776
1629894307094,-0.16408999999999999,0.79239,-0.601521
1629894307104,-0.163175,0.794098,-0.603351
1629894307114,-0.163541,0.794464,-0.603961
1629894307123,-0.164578,0.793183,-0.602009
1629894307133,-0.164883,0.792207,-0.601094
1629894307142,-0.165432,0.791048,-0.59902
1629894307152,-0.166408,0.7905599999999999,-0.598227
1629894307162,-0.167323,0.787937,-0.5978
1629894307171,-0.168238,0.787144,-0.598776
1629894307181,-0.168482,0.787022,-0.599203
1629894307190,-0.169458,0.787022,-0.599203
1629894307200,-0.168665,0.7881199999999999,-0.600118
1629894307210,-0.170617,0.789401,-0.601521
1629894307219,-0.169641,0.789889,-0.601033
1629894307229,-0.169275,0.790743,-0.601094
1629894307238,-0.170617,0.790682,-0.600057
1629894307248,-0.169641,0.790377,-0.600484
1629894307258,-0.170678,0.790377,-0.599386
1629894307267,-0.171959,0.789157,-0.599203
1629894307277,-0.172508,0.788913,-0.599752
1629894307286,-0.172752,0.788974,-0.600606
1629894307296,-0.172508,0.789401,-0.60085
1629894307306,-0.173179,0.788974,-0.601643
1629894307315,-0.17299599999999998,0.788059,-0.603473
1629894307325,-0.171837,0.7875099999999999,-0.604022
1629894307334,-0.171837,0.786839,-0.602619
1629894307344,-0.17202,0.786473,-0.602619
1629894307354,-0.17177599999999998,0.787266,-0.602375
1629894307363,-0.17202,0.786656,-0.602009
1629894307373,-0.171715,0.787632,-0.602192
1629894307382,-0.170312,0.787937,-0.602253
1629894307392,-0.169763,0.787876,-0.601765
1629894307402,-0.169458,0.7878149999999999,-0.601887
1629894307411,-0.168604,0.788242,-0.602253
1629894307421,-0.169153,0.787632,-0.601277
1629894307430,-0.167872,0.788364,-0.601277
1629894307440,-0.167994,0.788547,-0.601338
1629894307450,-0.16713999999999998,0.788547,-0.600484
1629894307459,-0.16775,0.788486,-0.600484
1629894307469,-0.167872,0.788974,-0.600179
1629894307478,-0.16775,0.788669,-0.600545
1629894307488,-0.16775,0.7887299999999999,-0.60024
1629894307498,-0.16775,0.788974,-0.600301
1629894307507,-0.166957,0.788303,-0.600728
1629894307517,-0.168116,0.788791,-0.600606
1629894307526,-0.168726,0.788364,-0.601948
1629894307536,-0.169092,0.788303,-0.602192
1629894307546,-0.168726,0.787754,-0.601765
1629894307555,-0.169641,0.787937,-0.601887
1629894307565,-0.169702,0.7868999999999999,-0.602192
1629894307574,-0.170373,0.7865949999999999,-0.602924
1629894307584,-0.170129,0.786839,-0.602375
1629894307594,-0.17116599999999998,0.786168,-0.602863
1629894307603,-0.171349,0.785497,-0.602924
1629894307613,-0.172752,0.785802,-0.602192
1629894307622,-0.172874,0.785192,-0.602436
1629894307632,-0.17238599999999998,0.7853749999999999,-0.602619
1629894307642,-0.17238599999999998,0.786046,-0.602924
1629894307651,-0.171837,0.7859849999999999,-0.603351
1629894307661,-0.171898,0.7853749999999999,-0.602619
1629894307670,-0.17238599999999998,0.7872049999999999,-0.602131
1629894307680,-0.172752,0.787388,-0.601582
1629894307690,-0.172264,0.787754,-0.602558
1629894307699,-0.172203,0.787449,-0.602863
1629894307709,-0.172325,0.787449,-0.603534
1629894307718,-0.17324,0.787388,-0.603961
1629894307728,-0.173911,0.7872049999999999,-0.604266
1629894307738,-0.17324,0.785619,-0.603351
1629894307747,-0.172447,0.7853749999999999,-0.602314
1629894307757,-0.172325,0.784826,-0.605486
1629894307766,-0.172264,0.780434,-0.60512
1629894307776,-0.172569,0.7783599999999999,-0.605059
1629894307786,-0.17263,0.781044,-0.607072
1629894307795,-0.171837,0.7844599999999999,-0.608963
1629894307805,-0.170922,0.784826,-0.605913
1629894307814,-0.171532,0.783972,-0.598105
1629894307824,-0.171837,0.785436,-0.59597
1629894307834,-0.170739,0.787754,-0.599691
1629894307843,-0.169031,0.791353,-0.603717
1629894307853,-0.168116,0.791719,-0.606584
1629894307862,-0.168482,0.792207,-0.60512
1629894307872,-0.168055,0.792146,-0.603656
1629894307882,-0.169214,0.7920849999999999,-0.602192
1629894307891,-0.17055599999999999,0.790682,-0.60024
1629894307901,-0.17086099999999999,0.789828,-0.598776
1629894307910,-0.171654,0.787754,-0.597251
1629894307920,-0.171288,0.786229,-0.597739
1629894307930,-0.171349,0.785436,-0.600301
1629894307939,-0.171898,0.7862899999999999,-0.602192
1629894307949,-0.17116599999999998,0.786412,-0.603412
1629894307958,-0.171044,0.786534,-0.602497
1629894307968,-0.17086099999999999,0.786229,-0.603107
1629894307978,-0.17055599999999999,0.787022,-0.603229
1629894307987,-0.170434,0.7865949999999999,-0.603534
1629894307997,-0.170373,0.787388,-0.603473
1629894308006,-0.170068,0.786473,-0.604754
1629894308016,-0.169702,0.7872049999999999,-0.604205
1629894308026,-0.169702,0.788364,-0.603107
1629894308035,-0.16775,0.787388,-0.602741
1629894308045,-0.168116,0.786229,-0.60268
1629894308054,-0.166774,0.786656,-0.605974
1629894308064,-0.167262,0.786961,-0.606767
1629894308074,-0.167933,0.785802,-0.60634
1629894308083,-0.166713,0.784094,-0.603961
1629894308093,-0.168238,0.782691,-0.597739
1629894308102,-0.17025099999999999,0.782996,-0.5955429999999999
1629894308112,-0.169763,0.784643,-0.598044
1629894308122,-0.168177,0.7865949999999999,-0.601582
1629894308131,-0.166774,0.788608,-0.604876
1629894308141,-0.165859,0.790072,-0.607499
1629894308150,-0.167018,0.790682,-0.60878
1629894308160,-0.168238,0.789889,-0.607865
1629894308170,-0.169275,0.7887299999999999,-0.605303
1629894308179,-0.170068,0.787083,-0.603168
1629894308189,-0.17086099999999999,0.785863,-0.602314
1629894308198,-0.171227,0.784704,-0.602558
1629894308208,-0.17147099999999998,0.784338,-0.60329
1629894308218,-0.17202,0.784582,-0.602802
1629894308227,-0.171288,0.784094,-0.603412
1629894308237,-0.171593,0.785192,-0.602924
1629894308246,-0.17202,0.787083,-0.602497
1629894308256,-0.171654,0.787449,-0.602863
1629894308266,-0.171593,0.788486,-0.602497
1629894308275,-0.171654,0.788547,-0.602802
1629894308285,-0.172447,0.788608,-0.603717
1629894308294,-0.172264,0.788059,-0.602985
1629894308304,-0.173362,0.7865949999999999,-0.603046
1629894308314,-0.173911,0.785436,-0.602802
1629894308323,-0.174094,0.786107,-0.603534
1629894308333,-0.175436,0.785314,-0.604083
1629894308342,-0.174826,0.785436,-0.604937
1629894308352,-0.174704,0.784948,-0.604754
1629894308362,-0.173911,0.784582,-0.60573
1629894308371,-0.174277,0.784399,-0.606218
1629894308381,-0.173728,0.784033,-0.604876
1629894308390,-0.17324,0.784277,-0.604937
1629894308400,-0.173484,0.7844599999999999,-0.604754
1629894308410,-0.172935,0.784887,-0.603961
1629894308419,-0.171898,0.785192,-0.604083
1629894308429,-0.171227,0.785253,-0.604693
1629894308438,-0.170922,0.785558,-0.604266
1629894308448,-0.168909,0.786046,-0.60451
1629894308458,-0.169336,0.7865949999999999,-0.603412
1629894308467,-0.169214,0.785802,-0.603168
1629894308477,-0.169519,0.786229,-0.6039
1629894308486,-0.168543,0.786656,-0.602192
1629894308496,-0.168482,0.786473,-0.602985
1629894308506,-0.168055,0.787571,-0.602802
1629894308515,-0.167872,0.786168,-0.602314
1629894308525,-0.168543,0.786717,-0.602924
1629894308534,-0.168848,0.787022,-0.602741
1629894308544,-0.168482,0.787144,-0.602192
1629894308554,-0.168177,0.786961,-0.602375
1629894308563,-0.168726,0.787449,-0.602863
1629894308573,-0.169336,0.787144,-0.602131
1629894308582,-0.169214,0.787327,-0.603351
1629894308592,-0.170129,0.787266,-0.604144
1629894308602,-0.169885,0.786473,-0.605242
1629894308611,-0.17086099999999999,0.786046,-0.605059
1629894308621,-0.170922,0.785436,-0.604815
1629894308630,-0.170678,0.785192,-0.604205
1629894308640,-0.171532,0.7853749999999999,-0.60451
1629894308650,-0.171654,0.786107,-0.603595
1629894308659,-0.170922,0.7853749999999999,-0.604449
1629894308669,-0.170739,0.784643,-0.604022
1629894308678,-0.172508,0.784216,-0.604937
1629894308688,-0.17177599999999998,0.784887,-0.604632
1629894308698,-0.171837,0.785314,-0.604388
1629894308707,-0.17208099999999998,0.785436,-0.603656
1629894308717,-0.171837,0.7853749999999999,-0.602131
1629894308726,-0.172264,0.7856799999999999,-0.602802
1629894308736,-0.172569,0.7853749999999999,-0.602314
1629894308746,-0.173362,0.7859849999999999,-0.601704
1629894308755,-0.172935,0.786046,-0.603046
1629894308765,-0.17263,0.786534,-0.604083
1629894308774,-0.174155,0.7856799999999999,-0.605303
1629894308784,-0.173911,0.7856799999999999,-0.604754
1629894308794,-0.174582,0.785131,-0.60512
1629894308803,-0.173362,0.7856799999999999,-0.604449
1629894308813,-0.173545,0.7856799999999999,-0.604876
1629894308822,-0.17263,0.7841549999999999,-0.607316
1629894308832,-0.173362,0.781654,-0.606218
1629894308842,-0.173484,0.7795799999999999,-0.607316
1629894308851,-0.173362,0.780617,-0.609451
1629894308861,-0.172447,0.782386,-0.6107319999999999
1629894308870,-0.170373,0.7829349999999999,-0.60573
1629894308880,-0.170922,0.782874,-0.59719
1629894308890,-0.172203,0.783606,-0.5949329999999999
1629894308899,-0.171715,0.786656,-0.597983
1629894308909,-0.170434,0.7893399999999999,-0.604205
1629894308918,-0.170312,0.791353,-0.606706
1629894308928,-0.169763,0.79239,-0.606828
1629894308938,-0.169824,0.7917799999999999,-0.605059
1629894308947,-0.169702,0.791536,-0.603534
1629894308957,-0.171837,0.790804,-0.601582
1629894308966,-0.17202,0.788242,-0.598715
1629894308976,-0.172508,0.7872049999999999,-0.598166
1629894308986,-0.17360599999999998,0.786534,-0.59963
1629894308995,-0.173423,0.785436,-0.601582
1629894309005,-0.173728,0.784094,-0.602375
1629894309014,-0.173667,0.7841549999999999,-0.603961
1629894309024,-0.17330099999999998,0.7838499999999999,-0.605303
1629894309034,-0.173118,0.784826,-0.605059
1629894309043,-0.171837,0.784887,-0.604998
1629894309053,-0.171959,0.785802,-0.605242
1629894309062,-0.171288,0.786229,-0.604876
1629894309072,-0.171959,0.7856799999999999,-0.604144
1629894309082,-0.171044,0.786351,-0.604266
1629894309091,-0.171044,0.7865949999999999,-0.603717
1629894309101,-0.169458,0.787327,-0.602741
1629894309110,-0.169397,0.785558,-0.603473
1629894309120,-0.168299,0.7859849999999999,-0.605425
1629894309130,-0.169031,0.788059,-0.606035
1629894309139,-0.169336,0.784948,-0.607804
1629894309149,-0.168482,0.784094,-0.604266
1629894309158,-0.169458,0.782813,-0.59841
1629894309168,-0.17055599999999999,0.782264,-0.5955429999999999
1629894309178,-0.171105,0.783728,-0.598532
1629894309187,-0.169702,0.785619,-0.602253
1629894309197,-0.16994599999999999,0.787388,-0.60634
1629894309206,-0.16897,0.790072,-0.608109
1629894309216,-0.169153,0.790072,-0.60939
1629894309226,-0.169214,0.788852,-0.608414
1629894309235,-0.171044,0.787754,-0.606584
1629894309245,-0.170983,0.7859849999999999,-0.604876
1629894309254,-0.172508,0.786168,-0.602131
1629894309264,-0.172935,0.783606,-0.602192
1629894309274,-0.173362,0.7835449999999999,-0.602924
1629894309283,-0.17324,0.783362,-0.603656
1629894309293,-0.17360599999999998,0.784216,-0.604937
1629894309302,-0.17330099999999998,0.784704,-0.603839
1629894309312,-0.17299599999999998,0.785436,-0.603046
1629894309322,-0.17299599999999998,0.787083,-0.60268
1629894309331,-0.172874,0.786961,-0.60268
1629894309341,-0.17299599999999998,0.786107,-0.601582
1629894309350,-0.173545,0.7868999999999999,-0.601521
1629894309360,-0.17324,0.787022,-0.602009
1629894309370,-0.174582,0.785924,-0.602802
1629894309379,-0.175436,0.7862899999999999,-0.602985
1629894309389,-0.175924,0.786107,-0.603656
1629894309398,-0.176839,0.785009,-0.603717
1629894309408,-0.175985,0.785558,-0.604815
1629894309418,-0.17580199999999999,0.784582,-0.605852
1629894309427,-0.176046,0.784887,-0.604815
1629894309437,-0.174765,0.7844599999999999,-0.604266
1629894309446,-0.175375,0.784338,-0.605486
1629894309456,-0.175192,0.784948,-0.605059
1629894309466,-0.174033,0.784643,-0.603351
1629894309475,-0.17385,0.785436,-0.604144
1629894309485,-0.172874,0.785863,-0.603656
1629894309494,-0.172325,0.786656,-0.603412
1629894309504,-0.171898,0.7865949999999999,-0.602436
1629894309514,-0.171288,0.787449,-0.60268
1629894309523,-0.171044,0.787144,-0.601704
1629894309533,-0.170495,0.787632,-0.602375
1629894309542,-0.169458,0.788059,-0.601216
1629894309552,-0.170312,0.7881199999999999,-0.601155
1629894309562,-0.16958,0.788974,-0.601826
1629894309571,-0.169641,0.788303,-0.601765
1629894309581,-0.17025099999999999,0.787876,-0.601033
1629894309590,-0.170007,0.787937,-0.600484
1629894309600,-0.170312,0.788059,-0.602009
1629894309610,-0.169214,0.788303,-0.601765
1629894309619,-0.169153,0.788608,-0.601277
1629894309629,-0.169397,0.787632,-0.601216
1629894309638,-0.170312,0.7868999999999999,-0.601155
1629894309648,-0.17086099999999999,0.7868999999999999,-0.601338
1629894309658,-0.1708,0.787693,-0.601765
1629894309667,-0.171044,0.786778,-0.602985
1629894309677,-0.170373,0.786656,-0.602985
1629894309686,-0.17208099999999998,0.786229,-0.602863
1629894309696,-0.17177599999999998,0.7868999999999999,-0.602497
1629894309706,-0.172935,0.786656,-0.602802
1629894309715,-0.172508,0.786656,-0.601765
1629894309725,-0.173545,0.786046,-0.602497
1629894309734,-0.172447,0.786473,-0.602314
1629894309744,-0.172874,0.7859849999999999,-0.601216
1629894309754,-0.17238599999999998,0.786839,-0.602924
1629894309763,-0.172508,0.785924,-0.601704
1629894309773,-0.17324,0.7872049999999999,-0.601948
1629894309782,-0.172874,0.787754,-0.601643
1629894309792,-0.173362,0.787632,-0.602741
1629894309802,-0.173423,0.787632,-0.602863
1629894309811,-0.172508,0.788303,-0.604266
1629894309821,-0.17360599999999998,0.7884249999999999,-0.604144
1629894309830,-0.174216,0.787876,-0.604388
1629894309840,-0.174765,0.785497,-0.602802
1629894309850,-0.174155,0.784277,-0.601948
1629894309859,-0.173118,0.784216,-0.603961
1629894309869,-0.17324,0.780983,-0.602314
1629894309878,-0.173423,0.780251,-0.602558
1629894309888,-0.172935,0.784033,-0.605364
1629894309898,-0.172142,0.787144,-0.608109
1629894309907,-0.17147099999999998,0.786473,-0.604449
1629894309917,-0.171837,0.787083,-0.599203
1629894309926,-0.17208099999999998,0.788608,-0.597434
1629894309936,-0.170739,0.792329,-0.600667
1629894309946,-0.168665,0.793427,-0.604205
1629894309955,-0.167933,0.793427,-0.605303
1629894309965,-0.168909,0.792146,-0.605486
1629894309974,-0.168238,0.7911699999999999,-0.604876
1629894309984,-0.167933,0.7902549999999999,-0.602375
1629894309994,-0.169153,0.788791,-0.599508
1629894310003,-0.170007,0.7872049999999999,-0.596092
1629894310013,-0.170373,0.786168,-0.595604
1629894310022,-0.170007,0.785131,-0.59536
1629894310032,-0.17025099999999999,0.785802,-0.596641
1629894310042,-0.169092,0.7868999999999999,-0.598959
1629894310051,-0.168848,0.787632,-0.600423
1629894310061,-0.168665,0.7887299999999999,-0.599386
1629894310070,-0.168116,0.790438,-0.59902
1629894310080,-0.167567,0.790621,-0.599996
1629894310090,-0.168726,0.7911699999999999,-0.600728
1629894310099,-0.169641,0.791109,-0.600789
1629894310109,-0.169824,0.790987,-0.602741
1629894310118,-0.169458,0.790926,-0.602558
1629894310128,-0.169702,0.790438,-0.601948
1629894310138,-0.168238,0.787571,-0.60146
1629894310147,-0.168299,0.787388,-0.60268
1629894310157,-0.169214,0.788242,-0.604449
1629894310166,-0.169153,0.787144,-0.605181
1629894310176,-0.167994,0.786107,-0.60451
1629894310186,-0.16836,0.784643,-0.599813
1629894310195,-0.170434,0.784521,-0.595177
1629894310205,-0.169885,0.786534,-0.595726
1629894310214,-0.168665,0.7875099999999999,-0.598837
1629894310224,-0.16775,0.789706,-0.601948
1629894310234,-0.168055,0.7914749999999999,-0.604266
1629894310243,-0.166164,0.793122,-0.605974
1629894310253,-0.166591,0.79239,-0.604693
1629894310262,-0.168604,0.7905599999999999,-0.60329
1629894310272,-0.169336,0.7884249999999999,-0.60024
1629894310282,-0.170312,0.787571,-0.598959
1629894310291,-0.170617,0.786473,-0.598837
1629894310301,-0.171532,0.786473,-0.599081
1629894310310,-0.171044,0.786229,-0.60024
1629894310320,-0.170617,0.786412,-0.601338
1629894310330,-0.172752,0.786534,-0.602924
1629894310339,-0.172325,0.787571,-0.602924
1629894310349,-0.172264,0.788974,-0.602253
1629894310358,-0.172142,0.7896449999999999,-0.602375
1629894310368,-0.172935,0.790133,-0.601216
1629894310378,-0.173484,0.789096,-0.600667
1629894310387,-0.17385,0.790011,-0.600118
1629894310397,-0.173911,0.7893399999999999,-0.600118
1629894310406,-0.174033,0.788974,-0.600789
1629894310416,-0.173484,0.787693,-0.601643
1629894310426,-0.174155,0.787754,-0.601338
1629894310435,-0.173972,0.787266,-0.602192
1629894310445,-0.174277,0.787632,-0.602863
1629894310454,-0.17299599999999998,0.786961,-0.603534
1629894310464,-0.17330099999999998,0.787083,-0.603717
1629894310474,-0.17299599999999998,0.787388,-0.603961
1629894310483,-0.173118,0.786229,-0.602924
1629894310493,-0.172325,0.786107,-0.603534
1629894310502,-0.172813,0.785436,-0.603839
1629894310512,-0.171898,0.785924,-0.602863
1629894310522,-0.171532,0.786168,-0.602192
1629894310531,-0.17025099999999999,0.787022,-0.603534
1629894310541,-0.170068,0.7865949999999999,-0.60268
1629894310550,-0.169458,0.786717,-0.602375
1629894310560,-0.16897,0.786717,-0.601948
1629894310570,-0.167933,0.787998,-0.600728
1629894310579,-0.16713999999999998,0.7872049999999999,-0.599874
1629894310589,-0.16713999999999998,0.787754,-0.599752
1629894310598,-0.166957,0.789096,-0.599081
1629894310608,-0.167018,0.787998,-0.600118
1629894310618,-0.166286,0.7884249999999999,-0.600789
1629894310627,-0.167262,0.787937,-0.600484
1629894310637,-0.166713,0.788242,-0.600728
1629894310646,-0.16744499999999998,0.787571,-0.60085
1629894310656,-0.167994,0.787388,-0.60146
1629894310666,-0.168299,0.787693,-0.601582
1629894310675,-0.168238,0.7872049999999999,-0.60085
1629894310685,-0.168665,0.787388,-0.600789
1629894310694,-0.169275,0.7872049999999999,-0.601277
1629894310704,-0.169214,0.788059,-0.601765
1629894310714,-0.169763,0.788791,-0.60146
1629894310723,-0.17055599999999999,0.788486,-0.60146
1629894310733,-0.170068,0.7887299999999999,-0.601338
1629894310742,-0.169458,0.7896449999999999,-0.601765
1629894310752,-0.170739,0.7899499999999999,-0.601521
1629894310762,-0.17055599999999999,0.790499,-0.601948
1629894310771,-0.1708,0.790194,-0.603351
1629894310781,-0.171044,0.790316,-0.604632
1629894310790,-0.172569,0.789523,-0.60451
1629894310800,-0.172325,0.788059,-0.603046
1629894310810,-0.17360599999999998,0.7856799999999999,-0.602436
1629894310819,-0.174216,0.784948,-0.600728
1629894310829,-0.173545,0.7853749999999999,-0.602558
1629894310838,-0.172813,0.783179,-0.603961
1629894310848,-0.17299599999999998,0.779519,-0.603534
1629894310858,-0.172264,0.782386,-0.60634
1629894310867,-0.17299599999999998,0.784826,-0.6076819999999999
1629894310877,-0.17299599999999998,0.784399,-0.605547
1629894310886,-0.17269099999999998,0.784582,-0.600667
1629894310896,-0.173789,0.786168,-0.597739
1629894310906,-0.17324,0.788608,-0.599264
1629894310915,-0.170434,0.790682,-0.604022
1629894310925,-0.16994599999999999,0.792146,-0.606828
1629894310934,-0.17116599999999998,0.790621,-0.605974
1629894310944,-0.17116599999999998,0.788791,-0.604327
1629894310954,-0.172142,0.787998,-0.603656
1629894310963,-0.172752,0.787754,-0.603046
1629894310973,-0.17385,0.787022,-0.600911
1629894310982,-0.174643,0.786046,-0.598898
1629894310992,-0.174887,0.784582,-0.599325
1629894311002,-0.173789,0.784704,-0.60024
1629894311011,-0.17385,0.784399,-0.601765
1629894311021,-0.173789,0.784338,-0.601826
1629894311030,-0.172813,0.784582,-0.601765
1629894311040,-0.172752,0.785436,-0.601643
1629894311050,-0.173362,0.786412,-0.602192
1629894311059,-0.172508,0.787144,-0.602253
1629894311069,-0.172447,0.786839,-0.60329
1629894311078,-0.172508,0.7875099999999999,-0.604327
1629894311088,-0.174094,0.787632,-0.604937
1629894311098,-0.173728,0.788181,-0.603961
1629894311107,-0.17385,0.7859849999999999,-0.603168
1629894311117,-0.172813,0.785802,-0.604815
1629894311126,-0.17208099999999998,0.787144,-0.606462
1629894311136,-0.17330099999999998,0.7862899999999999,-0.607926
1629894311146,-0.17202,0.784948,-0.6076819999999999
1629894311155,-0.17147099999999998,0.783484,-0.601826
1629894311165,-0.17360599999999998,0.783728,-0.596214
1629894311174,-0.173728,0.783606,-0.596275
1629894311184,-0.17177599999999998,0.786168,-0.599569
1629894311194,-0.17086099999999999,0.786961,-0.602375
1629894311203,-0.1708,0.788486,-0.60451
1629894311213,-0.170434,0.789828,-0.606828
1629894311222,-0.170617,0.790133,-0.605486
1629894311232,-0.17238599999999998,0.789401,-0.603351
1629894311242,-0.17238599999999998,0.787754,-0.601765
1629894311251,-0.172874,0.787449,-0.600911
1629894311261,-0.173789,0.785314,-0.601521
1629894311270,-0.174338,0.784338,-0.602192
1629894311280,-0.175436,0.784399,-0.603534
1629894311290,-0.175009,0.784216,-0.603961
1629894311299,-0.175192,0.784521,-0.604266
1629894311309,-0.174704,0.785131,-0.604083
1629894311318,-0.175924,0.785009,-0.602741
1629894311328,-0.174521,0.786168,-0.602131
1629894311338,-0.175314,0.786717,-0.602253
1629894311347,-0.175375,0.787571,-0.601521
1629894311357,-0.17568,0.787327,-0.602009
1629894311366,-0.175619,0.787327,-0.602131
1629894311376,-0.176839,0.7865949999999999,-0.601948
1629894311386,-0.177144,0.786534,-0.602314
1629894311395,-0.17671699999999999,0.786229,-0.602924
1629894311405,-0.176351,0.786473,-0.603656
1629894311414,-0.176534,0.785314,-0.603168
1629894311424,-0.175497,0.785436,-0.604815
1629894311434,-0.175741,0.785619,-0.604388
1629894311443,-0.175558,0.784643,-0.603778
1629894311453,-0.17580199999999999,0.785741,-0.604571
1629894311462,-0.176168,0.785314,-0.604449
1629894311472,-0.175192,0.784948,-0.604266
1629894311482,-0.174521,0.785009,-0.603412
1629894311491,-0.172935,0.785619,-0.603229
1629894311501,-0.17299599999999998,0.786412,-0.603046
1629894311510,-0.171898,0.7872049999999999,-0.602436
1629894311520,-0.17147099999999998,0.787632,-0.601704
1629894311530,-0.170983,0.787998,-0.602619
1629894311539,-0.171044,0.787937,-0.601521
1629894311549,-0.169702,0.788181,-0.601338
1629894311558,-0.170007,0.7884249999999999,-0.601277
1629894311568,-0.169336,0.788181,-0.601155
1629894311578,-0.170068,0.788791,-0.600911
1629894311587,-0.169397,0.7899499999999999,-0.601094
1629894311597,-0.169824,0.789401,-0.600301
1629894311606,-0.169519,0.787998,-0.600789
1629894311616,-0.169824,0.7878149999999999,-0.601887
1629894311626,-0.17116599999999998,0.787693,-0.602009
1629894311635,-0.171593,0.787571,-0.603168
1629894311645,-0.171593,0.787144,-0.602924
1629894311654,-0.172264,0.787266,-0.602924
1629894311664,-0.172935,0.7862899999999999,-0.602314
1629894311674,-0.17299599999999998,0.786229,-0.602192
1629894311683,-0.172752,0.785619,-0.602436
1629894311693,-0.173362,0.786107,-0.60329
1629894311702,-0.17385,0.786534,-0.603778
1629894311712,-0.17324,0.786839,-0.602619
1629894311722,-0.173972,0.786046,-0.600972
1629894311731,-0.173972,0.786107,-0.599813
1629894311741,-0.175192,0.7868999999999999,-0.600972
1629894311750,-0.17446,0.786229,-0.601521
1629894311760,-0.17507,0.787022,-0.60268
1629894311770,-0.175985,0.786656,-0.603717
1629894311779,-0.176168,0.7868999999999999,-0.60451
1629894311789,-0.177266,0.785558,-0.604022
1629894311798,-0.177083,0.784887,-0.603778
1629894311808,-0.17671699999999999,0.7844599999999999,-0.603412
1629894311818,-0.176229,0.783423,-0.606584
1629894311827,-0.17629,0.779336,-0.604937
1629894311837,-0.177205,0.777628,-0.604998
1629894311846,-0.17580199999999999,0.780434,-0.608353
1629894311856,-0.176229,0.782874,-0.61122
1629894311866,-0.174094,0.7826299999999999,-0.60573
1629894311875,-0.174094,0.7826299999999999,-0.598593
1629894311885,-0.175253,0.7832399999999999,-0.5961529999999999
1629894311894,-0.175131,0.787327,-0.599691
1629894311904,-0.17324,0.789157,-0.603961
1629894311914,-0.17238599999999998,0.789767,-0.606706
1629894311923,-0.17360599999999998,0.791048,-0.606828
1629894311933,-0.17330099999999998,0.790926,-0.605913
1629894311942,-0.174155,0.789584,-0.603961
1629894311952,-0.174887,0.789889,-0.602009
1629894311962,-0.17568,0.788791,-0.599996
1629894311971,-0.176351,0.786656,-0.598898
1629894311981,-0.176229,0.7850699999999999,-0.599691
1629894311990,-0.176473,0.784094,-0.601948
1629894312000,-0.175863,0.783606,-0.603473
1629894312010,-0.174155,0.783728,-0.604205
1629894312019,-0.17507,0.784033,-0.604632
1629894312029,-0.175436,0.783728,-0.604388
1629894312038,-0.175009,0.783789,-0.604388
1629894312048,-0.174948,0.784643,-0.605547
1629894312058,-0.173728,0.784948,-0.605425
1629894312067,-0.174399,0.784704,-0.605791
1629894312077,-0.173423,0.785253,-0.605852
1629894312086,-0.174521,0.786046,-0.605608
1629894312096,-0.172874,0.784826,-0.60451
1629894312106,-0.17269099999999998,0.783118,-0.604632
1629894312115,-0.172508,0.7847649999999999,-0.60695
1629894312125,-0.172264,0.785131,-0.608658
1629894312134,-0.172508,0.782996,-0.6095119999999999
1629894312144,-0.17177599999999998,0.781959,-0.606096
1629894312154,-0.173728,0.7807999999999999,-0.599813
1629894312163,-0.175741,0.780007,-0.598288
1629894312173,-0.175375,0.7814099999999999,-0.600789
1629894312182,-0.174094,0.783179,-0.605059
1629894312192,-0.17360599999999998,0.7847649999999999,-0.607255
1629894312202,-0.172874,0.785924,-0.608719
1629894312211,-0.17299599999999998,0.7868999999999999,-0.609268
1629894312221,-0.17385,0.786473,-0.60817
1629894312230,-0.174338,0.7856799999999999,-0.606462
1629894312240,-0.175009,0.7850699999999999,-0.604815
1629894312250,-0.176046,0.783118,-0.603839
1629894312259,-0.175924,0.782874,-0.6039
1629894312269,-0.176229,0.781471,-0.604998
1629894312278,-0.176534,0.782203,-0.604632
1629894312288,-0.177266,0.781898,-0.604876
1629894312298,-0.1769,0.782752,-0.605059
1629894312307,-0.176778,0.784277,-0.604693
1629894312317,-0.17671699999999999,0.785009,-0.603839
1629894312326,-0.177266,0.784948,-0.604083
1629894312336,-0.1769,0.785741,-0.603717
1629894312346,-0.178181,0.785863,-0.603595
1629894312355,-0.177815,0.785314,-0.603717
1629894312365,-0.17915699999999998,0.784582,-0.604144
1629894312374,-0.178791,0.785314,-0.604327
1629894312384,-0.178608,0.783911,-0.60512
1629894312394,-0.17885199999999998,0.7844599999999999,-0.604388
1629894312403,-0.178974,0.7838499999999999,-0.604937
1629894312413,-0.17885199999999998,0.783972,-0.606035
1629894312422,-0.17812,0.783362,-0.605608
1629894312432,-0.178303,0.783667,-0.606645
1629894312442,-0.177266,0.783728,-0.606096
1629894312451,-0.17751,0.783972,-0.605852
1629894312461,-0.176961,0.783606,-0.605303
1629894312470,-0.17629,0.7832399999999999,-0.604754
1629894312480,-0.175131,0.783728,-0.604449
1629894312490,-0.17446,0.784643,-0.604144
1629894312499,-0.173667,0.784338,-0.604937
1629894312509,-0.172447,0.7844599999999999,-0.604449
1629894312518,-0.172752,0.784826,-0.603534
1629894312528,-0.172142,0.784948,-0.603351
1629894312538,-0.171837,0.785253,-0.603778
1629894312547,-0.172569,0.785314,-0.603168
1629894312557,-0.171349,0.785192,-0.6039
1629894312566,-0.17055599999999999,0.785497,-0.603656
1629894312576,-0.171288,0.7856799999999999,-0.603473
1629894312586,-0.170922,0.785253,-0.603961
1629894312595,-0.17202,0.785314,-0.603595
1629894312605,-0.17208099999999998,0.785253,-0.604876
1629894312614,-0.172813,0.785558,-0.603473
1629894312624,-0.172447,0.785741,-0.604449
1629894312634,-0.17238599999999998,0.785619,-0.605303
1629894312643,-0.173911,0.784704,-0.604998
1629894312653,-0.17360599999999998,0.7844599999999999,-0.604754
1629894312662,-0.173972,0.784704,-0.605486
1629894312672,-0.174704,0.784216,-0.606218
1629894312682,-0.175314,0.783179,-0.606462
1629894312691,-0.174643,0.782386,-0.606828
1629894312701,-0.17446,0.783423,-0.606706
1629894312710,-0.175924,0.782874,-0.606035
1629894312720,-0.17610699999999999,0.783911,-0.604571
1629894312730,-0.176595,0.7838499999999999,-0.606401
1629894312739,-0.176229,0.785253,-0.605669
1629894312749,-0.175131,0.783972,-0.605364
1629894312758,-0.175619,0.783789,-0.604205
1629894312768,-0.175253,0.7844599999999999,-0.604205
1629894312778,-0.176046,0.7844599999999999,-0.604205
1629894312787,-0.17568,0.783911,-0.603961
1629894312797,-0.17610699999999999,0.783606,-0.605608
1629894312806,-0.177266,0.7829349999999999,-0.606828
1629894312816,-0.178425,0.782508,-0.606218
1629894312826,-0.178486,0.782996,-0.607499
1629894312835,-0.17763199999999998,0.782203,-0.606462
1629894312845,-0.17751,0.783423,-0.60634
1629894312854,-0.176351,0.7826299999999999,-0.608658
1629894312864,-0.17610699999999999,0.777872,-0.607865
1629894312874,-0.177693,0.7774449999999999,-0.60817
1629894312883,-0.177449,0.778726,-0.610915
1629894312893,-0.175436,0.780983,-0.61244
1629894312902,-0.174948,0.780922,-0.608475
1629894312912,-0.175436,0.7811049999999999,-0.600057
1629894312922,-0.177205,0.782264,-0.595665
1629894312931,-0.176534,0.7853749999999999,-0.599752
1629894312941,-0.175314,0.788486,-0.604876
1629894312950,-0.174887,0.789523,-0.607316
1629894312960,-0.174826,0.789462,-0.608109
1629894312970,-0.17507,0.788974,-0.607011
1629894312979,-0.175985,0.789218,-0.605059
1629894312989,-0.176168,0.788242,-0.60207
1629894312998,-0.176839,0.7868999999999999,-0.600728
1629894313008,-0.17763199999999998,0.785558,-0.600423
1629894313018,-0.177754,0.784399,-0.600606
1629894313027,-0.179035,0.782752,-0.602497
1629894313037,-0.178669,0.781898,-0.605974
1629894313046,-0.17873,0.782264,-0.60695
1629894313056,-0.178181,0.781227,-0.606706
1629894313066,-0.178181,0.782081,-0.607316
1629894313075,-0.177144,0.781837,-0.607133
1629894313085,-0.17702199999999998,0.782447,-0.606401
1629894313094,-0.176595,0.782813,-0.607194
1629894313104,-0.176168,0.783728,-0.605974
1629894313114,-0.176534,0.784338,-0.606645
1629894313123,-0.174765,0.785558,-0.605364
1629894313133,-0.174155,0.784704,-0.605242
1629894313142,-0.174277,0.783118,-0.60512
1629894313152,-0.172874,0.783484,-0.607926
1629894313162,-0.173423,0.783057,-0.60878
1629894313171,-0.17324,0.781471,-0.609634
1629894313181,-0.17385,0.780312,-0.607438
1629894313190,-0.174033,0.778543,-0.602192
1629894313200,-0.176229,0.778848,-0.599325
1629894313210,-0.175924,0.779397,-0.601704
1629894313219,-0.175436,0.7811049999999999,-0.605242
1629894313229,-0.174582,0.782996,-0.60878
1629894313238,-0.173362,0.784033,-0.609878
1629894313248,-0.17360599999999998,0.785436,-0.611098
1629894313258,-0.174948,0.786046,-0.610854
1629894313267,-0.175192,0.7847649999999999,-0.609146
1629894313277,-0.175192,0.784643,-0.607377
1629894313286,-0.175863,0.782691,-0.606462
1629894313296,-0.1769,0.780922,-0.605364
1629894313306,-0.177998,0.781776,-0.606401
1629894313315,-0.177449,0.780556,-0.60695
1629894313325,-0.177998,0.7814099999999999,-0.60695
1629894313334,-0.177693,0.781349,-0.606279
1629894313344,-0.178303,0.783423,-0.606584
1629894313354,-0.177083,0.783606,-0.606279
1629894313363,-0.177205,0.784643,-0.606157
1629894313373,-0.177388,0.784826,-0.604937
1629894313382,-0.177388,0.784704,-0.603778
1629894313392,-0.177449,0.784582,-0.604998
1629894313402,-0.179096,0.784643,-0.605486
1629894313411,-0.179035,0.783362,-0.605547
1629894313421,-0.179584,0.782691,-0.607133
1629894313430,-0.17934,0.782142,-0.607072
1629894313440,-0.17885199999999998,0.781654,-0.607499
1629894313450,-0.178974,0.781044,-0.607316
1629894313459,-0.178486,0.780861,-0.6092069999999999
1629894313469,-0.17854699999999998,0.780983,-0.608963
1629894313478,-0.178364,0.780922,-0.607926
1629894313488,-0.177266,0.781593,-0.608231
1629894313498,-0.17641199999999999,0.780983,-0.607621
1629894313507,-0.17507,0.780678,-0.608048
1629894313517,-0.175253,0.7814099999999999,-0.60817
1629894313526,-0.174887,0.7820199999999999,-0.607072
1629894313536,-0.173911,0.782569,-0.607194
1629894313546,-0.17330099999999998,0.782569,-0.605486
1629894313555,-0.17269099999999998,0.782447,-0.606523
1629894313565,-0.172752,0.782691,-0.605913
1629894313574,-0.17238599999999998,0.783362,-0.604876
1629894313584,-0.17208099999999998,0.7841549999999999,-0.604876
1629894313594,-0.17116599999999998,0.784338,-0.604571
1629894313603,-0.17147099999999998,0.783606,-0.605608
1629894313613,-0.172935,0.783362,-0.605547
1629894313622,-0.17269099999999998,0.7838499999999999,-0.60512
1629894313632,-0.17208099999999998,0.7835449999999999,-0.605059
1629894313642,-0.17269099999999998,0.783667,-0.605669
1629894313651,-0.17324,0.7835449999999999,-0.605669
1629894313661,-0.173423,0.783789,-0.607133
1629894313670,-0.173728,0.7844599999999999,-0.60634
1629894313680,-0.174338,0.784643,-0.60634
1629894313690,-0.174582,0.783484,-0.605913
1629894313699,-0.176046,0.783362,-0.606645
1629894313709,-0.176046,0.7835449999999999,-0.6076819999999999
1629894313718,-0.176168,0.783118,-0.607255
1629894313728,-0.175924,0.782264,-0.60756
1629894313738,-0.176961,0.7820199999999999,-0.606523
1629894313747,-0.177998,0.781898,-0.606523
1629894313757,-0.17854699999999998,0.7814099999999999,-0.60634
1629894313766,-0.177998,0.782203,-0.606706
1629894313776,-0.178059,0.782386,-0.606828
1629894313786,-0.17812,0.782447,-0.607194
1629894313795,-0.177876,0.782386,-0.6076819999999999
1629894313805,-0.177754,0.782874,-0.606218
1629894313814,-0.1769,0.782203,-0.605608
1629894313824,-0.17812,0.782386,-0.604876
1629894313834,-0.178364,0.782874,-0.604388
1629894313843,-0.17793699999999998,0.7823249999999999,-0.605974
1629894313853,-0.178181,0.782752,-0.606523
1629894313862,-0.17885199999999998,0.781776,-0.606828
1629894313872,-0.17854699999999998,0.782691,-0.608658
1629894313882,-0.178974,0.782874,-0.6085969999999999
1629894313891,-0.178181,0.781898,-0.606828
1629894313901,-0.179218,0.782203,-0.606279
1629894313910,-0.177876,0.780983,-0.608048
1629894313920,-0.178364,0.776591,-0.606706
1629894313930,-0.17873,0.775981,-0.606096
1629894313939,-0.178913,0.779336,-0.609146
1629894313949,-0.177815,0.7820199999999999,-0.612623
1629894313958,-0.17702199999999998,0.781898,-0.6079869999999999
1629894313968,-0.177266,0.7820199999999999,-0.600667
1629894313978,-0.17763199999999998,0.783911,-0.59963
1629894313987,-0.176656,0.787144,-0.603046
1629894313997,-0.175558,0.788608,-0.60756
1629894314006,-0.175009,0.789218,-0.609024
1629894314016,-0.174582,0.789157,-0.60878
1629894314026,-0.174277,0.788059,-0.608414
1629894314035,-0.175131,0.787449,-0.606218
1629894314045,-0.175741,0.786168,-0.603473
1629894314054,-0.176778,0.784094,-0.601582
1629894314064,-0.17641199999999999,0.782874,-0.600667
1629894314074,-0.176534,0.781166,-0.60146
1629894314083,-0.176473,0.781166,-0.602192
1629894314093,-0.175985,0.781532,-0.603778
1629894314102,-0.175009,0.782203,-0.604876
1629894314112,-0.175009,0.783972,-0.60512
1629894314122,-0.175436,0.784704,-0.605547
1629894314131,-0.174826,0.7847649999999999,-0.605486
1629894314141,-0.174826,0.785497,-0.604876
1629894314150,-0.175314,0.785741,-0.605974
1629894314160,-0.175985,0.785619,-0.606523
1629894314170,-0.175741,0.786046,-0.606584
1629894314179,-0.174338,0.786412,-0.606096
1629894314189,-0.17385,0.783179,-0.605547
1629894314198,-0.174704,0.7823249999999999,-0.607377
1629894314208,-0.174216,0.7826299999999999,-0.608414
1629894314218,-0.174277,0.781654,-0.609695
1629894314227,-0.173118,0.780922,-0.6092069999999999
1629894314237,-0.173423,0.7786649999999999,-0.603778
1629894314246,-0.174704,0.778421,-0.599142
1629894314256,-0.17446,0.779946,-0.598776
1629894314266,-0.173667,0.781837,-0.602924
1629894314275,-0.17324,0.783179,-0.605486
1629894314285,-0.171349,0.7850699999999999,-0.607621
1629894314294,-0.17202,0.786778,-0.609085
1629894314304,-0.171532,0.7878149999999999,-0.6089019999999999
