timestamp,ax,ay,az
1629894748584,-0.833077,-0.723033,0.640805
1629894748594,-0.898896,-0.778421,0.678747
1629894748604,-0.898286,-0.797758,0.683566
1629894748613,-0.845338,-0.778299,0.6840539999999999
1629894748623,-0.836859,-0.777811,0.731268
1629894748632,-0.922198,-0.846314,0.8133739999999999
1629894748642,-0.990762,-0.907314,0.842959
1629894748652,-0.970388,-0.880108,0.812398
1629894748661,-0.930433,-0.803797,0.7872049999999999
1629894748671,-0.9222589999999999,-0.752984,0.796111
1629894748680,-0.903044,-0.706014,0.79544
1629894748690,-0.784094,-0.58987,0.738161
1629894748700,-0.646539,-0.43663799999999997,0.687958
1629894748709,-0.596885,-0.349713,0.694912
1629894748719,-0.573339,-0.309697,0.700768
1629894748728,-0.524356,-0.25668799999999997,0.699121
1629894748738,-0.556991,-0.26291,0.749202
1629894748748,-0.643123,-0.338184,0.810202
1629894748757,-0.676673,-0.392108,0.825635
1629894748767,-0.662277,-0.400038,0.791597
1629894748776,-0.618601,-0.374723,0.741699
1629894748786,-0.585356,-0.346419,0.70943
1629894748796,-0.576877,-0.332328,0.69479
1629894748805,-0.573156,-0.325252,0.68381
1629894748815,-0.573888,-0.32635,0.675636
1629894748824,-0.568886,-0.327143,0.659044
1629894748834,-0.552355,-0.32391,0.636474
1629894748844,-0.529236,-0.318359,0.612013
1629894748853,-0.506849,-0.311283,0.593225
1629894748863,-0.489647,-0.311527,0.575962
1629894748872,-0.48373,-0.318969,0.565775
1629894748882,-0.479582,-0.32878999999999997,0.551562
1629894733569,-0.472201,-0.327326,0.532957
1629894733579,-0.46677199999999996,-0.323422,0.514962
1629894733589,-0.46463699999999997,-0.322385,0.496784
1629894733598,-0.463234,-0.326289,0.483669
1629894733608,-0.465918,-0.331779,0.475251
1629894733617,-0.472445,-0.339648,0.472811
1629894733627,-0.48678,-0.355752,0.475983
1629894733637,-0.505568,-0.37637,0.48501099999999997
1629894733646,-0.528992,-0.399916,0.493368
1629894733656,-0.547414,-0.419253,0.498492
1629894733665,-0.561566,-0.436516,0.500322
1629894733675,-0.575047,-0.450546,0.499529
1629894733685,-0.591517,-0.463478,0.504592
1629894733694,-0.603351,-0.47641,0.508801
1629894733704,-0.606584,-0.484035,0.512949
1629894733713,-0.607926,-0.48623099999999997,0.52094
1629894733723,-0.609146,-0.487268,0.53314
1629894733733,-0.608048,-0.48836599999999997,0.547963
1629894733742,-0.611708,-0.48861,0.563518
1629894733752,-0.615063,-0.484889,0.568215
1629894733761,-0.613355,-0.47756899999999997,0.562115
1629894733771,-0.62708,-0.48287599999999997,0.564433
1629894733781,-0.673684,-0.516304,0.59353
1629894733790,-0.7154079999999999,-0.557052,0.617259
1629894733800,-0.714676,-0.564006,0.62708
1629894733809,-0.731756,-0.576877,0.649345
1629894733819,-0.782264,-0.6177469999999999,0.690337
1629894733829,-0.830454,-0.658678,0.722911
1629894733838,-0.8337479999999999,-0.664046,0.722789
1629894733848,-0.813313,-0.6466,0.718336
1629894733857,-0.83753,-0.660874,0.768173
1629894733867,-0.944707,-0.7394419999999999,0.862296
1629894733877,-1.010465,-0.815692,0.912438
1629894733886,-0.972828,-0.828685,0.88755
1629894733896,-0.881145,-0.801906,0.828136
1629894733905,-0.793976,-0.772687,0.793671
1629894733915,-0.700646,-0.7391369999999999,0.749568
1629894733925,-0.547292,-0.664534,0.676429
1629894733934,-0.396805,-0.588894,0.631045
1629894733944,-0.328363,-0.563396,0.659044
1629894733953,-0.387716,-0.62952,0.755729
1629894733963,-0.432978,-0.694851,0.8161189999999999
1629894733973,-0.438712,-0.71309,0.835822
1629894733982,-0.416386,-0.68808,0.820145
1629894733992,-0.385764,-0.636047,0.7759199999999999
1629894734001,-0.376309,-0.612806,0.727791
1629894734011,-0.362889,-0.601948,0.6828339999999999
1629894734021,-0.338062,-0.578219,0.647515
1629894734030,-0.346968,-0.579744,0.636352
1629894734040,-0.383934,-0.60268,0.640195
1629894734049,-0.410774,-0.611098,0.6341559999999999
1629894734059,-0.412421,-0.5888329999999999,0.614026
1629894734069,-0.396195,-0.542107,0.587552
1629894734078,-0.376126,-0.491782,0.5638839999999999
1629894734088,-0.36941599999999997,-0.451583,0.550098
1629894734097,-0.374784,-0.421632,0.541253
1629894734107,-0.385947,-0.40211199999999997,0.529724
1629894734117,-0.396195,-0.393999,0.5152059999999999
1629894734126,-0.40394199999999997,-0.390339,0.497394
1629894734136,-0.40638199999999997,-0.389912,0.476227
1629894734145,-0.412177,-0.390461,0.4636
1629894734155,-0.421571,-0.39314499999999997,0.460123
1629894734165,-0.432734,-0.395829,0.461465
1629894734174,-0.43663799999999997,-0.39466999999999997,0.45975699999999997
1629894734184,-0.435601,-0.388631,0.455548
1629894734193,-0.429745,-0.384849,0.450607
1629894734203,-0.424987,-0.38265299999999997,0.44712999999999997
1629894734213,-0.42919599999999997,-0.384544,0.451217
1629894734222,-0.440786,-0.395158,0.461404
1629894734232,-0.456402,-0.40748,0.47756899999999997
1629894734241,-0.475861,-0.420717,0.48928099999999997
1629894734251,-0.49580799999999997,-0.43633299999999997,0.501542
1629894734261,-0.513925,-0.456463,0.515633
1629894734270,-0.5383249999999999,-0.487878,0.539179
1629894734280,-0.553636,-0.520818,0.559309
1629894734289,-0.557601,-0.541741,0.571021
1629894734299,-0.5657139999999999,-0.556991,0.578219
1629894734309,-0.6162219999999999,-0.600301,0.5970679999999999
1629894734318,-0.697535,-0.671305,0.625189
1629894734328,-0.729499,-0.697535,0.613843
1629894734337,-0.705221,-0.67527,0.573583
1629894734347,-0.700951,-0.662033,0.560041
1629894734357,-0.77226,-0.703879,0.607804
1629894734366,-0.842593,-0.739808,0.655201
1629894734376,-0.845887,-0.731329,0.6691699999999999
1629894734385,-0.831491,-0.707661,0.699914
1629894734395,-0.8951749999999999,-0.744261,0.786107
1629894734405,-1.006439,-0.826672,0.87291
1629894734414,-1.067561,-0.882182,0.902922
1629894734424,-1.070672,-0.871812,0.877607
1629894734433,-1.035048,-0.806908,0.82411
1629894734443,-0.978135,-0.705282,0.766465
1629894734453,-0.863028,-0.557113,0.69296
1629894734462,-0.71492,-0.378505,0.629276
1629894734472,-0.642574,-0.256444,0.630801
1629894734481,-0.660386,-0.228872,0.678503
1629894734491,-0.671976,-0.223809,0.72102
1629894734501,-0.699426,-0.245159,0.770247
1629894734510,-0.771345,-0.314943,0.8255129999999999
1629894734520,-0.83021,-0.40638199999999997,0.8479
1629894734529,-0.8328329999999999,-0.453657,0.82289
1629894734539,-0.786534,-0.43255099999999996,0.7610359999999999
1629894734549,-0.748348,-0.384239,0.71065
1629894734558,-0.722728,-0.340136,0.671
1629894734568,-0.697474,-0.307684,0.643977
1629894734577,-0.685945,-0.295118,0.6402559999999999
1629894734587,-0.671976,-0.299144,0.633973
1629894734597,-0.6384259999999999,-0.30414599999999997,0.621346
1629894734606,-0.598288,-0.306403,0.606828
1629894734616,-0.557357,-0.307928,0.5917
1629894734625,-0.5225259999999999,-0.310429,0.574864
1629894734635,-0.492575,-0.313235,0.558638
1629894734645,-0.46921199999999996,-0.318481,0.541558
1629894734654,-0.44712999999999997,-0.31982299999999997,0.5210009999999999
1629894734664,-0.43163599999999996,-0.316285,0.502884
1629894734673,-0.41992399999999996,-0.315431,0.487512
1629894734683,-0.417423,-0.320494,0.48092399999999996
1629894734693,-0.419436,-0.32909499999999997,0.48061899999999996
1629894734702,-0.423462,-0.34019699999999997,0.481839
1629894734712,-0.426024,-0.34831,0.481168
1629894734721,-0.427427,-0.353617,0.480436
1629894734731,-0.42767099999999997,-0.35831399999999997,0.480802
1629894734741,-0.43005,-0.363194,0.484523
1629894734750,-0.43816299999999997,-0.369294,0.49044
1629894734760,-0.455304,-0.38003,0.500566
1629894734769,-0.479216,-0.393877,0.513315
1629894734779,-0.499651,-0.404186,0.526674
1629894734789,-0.517463,-0.41297,0.538264
1629894734798,-0.533628,-0.419802,0.547658
1629894734808,-0.553636,-0.43041599999999997,0.565165
1629894734817,-0.575047,-0.440786,0.583587
1629894734827,-0.5909679999999999,-0.439505,0.59902
1629894734837,-0.5894429999999999,-0.441335,0.601399
1629894734846,-0.602497,-0.43938299999999997,0.607499
1629894734856,-0.659227,-0.470005,0.6566649999999999
1629894734865,-0.706441,-0.518805,0.691862
1629894734875,-0.719373,-0.539606,0.702964
1629894734885,-0.714676,-0.542351,0.709735
1629894734894,-0.74481,-0.5629689999999999,0.7379169999999999
1629894734904,-0.808982,-0.613538,0.786107
1629894734913,-0.86132,-0.663558,0.822951
1629894734923,-0.862235,-0.67222,0.82472
1629894734933,-0.820511,-0.6402559999999999,0.813313
1629894734942,-0.785741,-0.609451,0.823439
1629894734952,-0.828929,-0.631228,0.897798
1629894734961,-0.92354,-0.702232,0.978196
1629894734971,-0.918355,-0.7138829999999999,0.958981
1629894734981,-0.829295,-0.677466,0.885598
1629894734990,-0.7412719999999999,-0.652822,0.831491
1629894735000,-0.690032,-0.655506,0.810751
1629894735009,-0.594506,-0.62525,0.761524
1629894735019,-0.457744,-0.5611389999999999,0.698694
1629894735029,-0.362523,-0.524722,0.674904
1629894735038,-0.379481,-0.570777,0.722057
1629894735048,-0.48031399999999996,-0.676368,0.79605
1629894735057,-0.514352,-0.734379,0.81191
1629894735067,-0.468053,-0.716506,0.773846
1629894735077,-0.42370599999999997,-0.673501,0.737368
1629894735086,-0.397049,-0.632692,0.718702
1629894735096,-0.388082,-0.61183,0.713151
1629894735105,-0.373686,-0.600667,0.696925
1629894735115,-0.360022,-0.591639,0.681248
1629894735125,-0.37716299999999997,-0.606218,0.67405
1629894735134,-0.401441,-0.624213,0.669048
1629894735144,-0.41321399999999997,-0.623664,0.651297
1629894735153,-0.408517,-0.594079,0.622688
1629894735163,-0.39588999999999996,-0.5447299999999999,0.589565
1629894735173,-0.383629,-0.488854,0.559919
1629894735182,-0.38247,-0.451217,0.540887
1629894735192,-0.38978999999999997,-0.429989,0.5152059999999999
1629894735201,-0.41236,-0.408517,0.506239
1629894735211,-0.420168,-0.400709,0.478728
1629894735221,-0.426024,-0.395158,0.453108
1629894735230,-0.435662,-0.393938,0.435662
1629894735240,-0.441945,-0.39466999999999997,0.418765
1629894735249,-0.459696,-0.399001,0.41687399999999997
1629894735259,-0.47275,-0.401624,0.417545
1629894735269,-0.473726,-0.402173,0.414922
1629894735278,-0.476105,-0.388021,0.415898
1629894735288,-0.474031,-0.382592,0.417606
1629894735297,-0.468663,-0.383202,0.414495
1629894735307,-0.46890699999999996,-0.39039999999999997,0.424072
1629894735317,-0.474702,-0.40302699999999997,0.432734
1629894735326,-0.49111099999999996,-0.419497,0.448716
1629894735336,-0.508679,-0.438895,0.463356
1629894735345,-0.525027,-0.458964,0.479582
1629894735355,-0.5432049999999999,-0.480741,0.49763799999999997
1629894735365,-0.557052,-0.504531,0.5161209999999999
1629894735374,-0.565165,-0.520818,0.529236
1629894735384,-0.566812,-0.526796,0.531127
1629894735393,-0.584075,-0.5364949999999999,0.540704
1629894735403,-0.671488,-0.593896,0.599813
1629894735413,-0.75152,-0.6655099999999999,0.6365959999999999
1629894735422,-0.736453,-0.6849689999999999,0.617808
1629894735432,-0.703879,-0.663924,0.592005
1629894735441,-0.761402,-0.679967,0.622688
1629894735451,-0.856379,-0.73871,0.673501
1629894735461,-0.898103,-0.777689,0.691801
1629894735470,-0.862174,-0.76311,0.684725
1629894735480,-0.812093,-0.722728,0.692106
1629894735489,-0.8392379999999999,-0.729316,0.758779
1629894735499,-0.950014,-0.815936,0.846924
1629894735509,-1.012417,-0.87474,0.868884
1629894735518,-0.988749,-0.849059,0.829234
1629894735528,-0.950136,-0.780861,0.7920849999999999
1629894735537,-0.939339,-0.726693,0.789218
1629894735547,-0.8957849999999999,-0.655262,0.764269
1629894735557,-0.762195,-0.510387,0.6901539999999999
1629894735566,-0.656299,-0.365573,0.655323
1629894735576,-0.642452,-0.295606,0.674904
1629894735585,-0.624152,-0.260592,0.678808
1629894735595,-0.596519,-0.226066,0.679845
1629894735605,-0.647454,-0.255468,0.732366
1629894735614,-0.712297,-0.329522,0.781227
1629894735624,-0.728706,-0.371185,0.792695
1629894735633,-0.705282,-0.371002,0.764208
1629894735643,-0.664229,-0.34050199999999997,0.723826
1629894735653,-0.642757,-0.319335,0.700524
1629894735662,-0.630618,-0.314882,0.685396
1629894735672,-0.62464,-0.320677,0.68015
1629894735681,-0.623664,-0.335988,0.673867
1629894735691,-0.602863,-0.34019699999999997,0.651541
1629894735701,-0.56852,-0.330559,0.623054
1629894735710,-0.536861,-0.320189,0.599996
1629894735720,-0.513742,-0.320067,0.5851729999999999
1629894735729,-0.494283,-0.329644,0.573644
1629894735739,-0.487085,-0.348371,0.563762
1629894735749,-0.476593,-0.36356,0.547353
1629894735758,-0.458903,-0.36514599999999997,0.526918
1629894735768,-0.453291,-0.365512,0.512095
1629894735777,-0.45231499999999997,-0.37155099999999996,0.503616
1629894735787,-0.452376,-0.378139,0.496662
1629894735797,-0.454206,-0.384544,0.49105
1629894735806,-0.453962,-0.38887499999999997,0.483059
1629894735816,-0.455182,-0.392352,0.474702
1629894735825,-0.45872,-0.397232,0.467199
1629894735835,-0.462746,-0.401075,0.46036699999999997
1629894735845,-0.46787,-0.402295,0.458964
1629894735854,-0.481961,-0.409371,0.46646699999999996
1629894735864,-0.505568,-0.425963,0.477996
1629894735873,-0.532042,-0.449387,0.492514
1629894735883,-0.55083,-0.471591,0.500139
1629894735893,-0.561017,-0.479338,0.500688
1629894735902,-0.571265,-0.477447,0.503616
1629894735912,-0.583282,-0.478423,0.514047
1629894735921,-0.595787,-0.47756899999999997,0.525454
1629894735931,-0.601948,-0.47207899999999997,0.532225
1629894735941,-0.60817,-0.469456,0.539484
1629894735950,-0.632692,-0.48092399999999996,0.557357
1629894735960,-0.680577,-0.516975,0.588101
1629894735969,-0.728096,-0.56242,0.61122
1629894735979,-0.734379,-0.577182,0.613416
1629894735989,-0.742248,-0.582672,0.623176
1629894735998,-0.791963,-0.61854,0.654347
1629894736008,-0.8541219999999999,-0.672281,0.6840539999999999
1629894736017,-0.8851709999999999,-0.701561,0.6858839999999999
1629894736027,-0.871629,-0.692411,0.676673
1629894736037,-0.84241,-0.670146,0.684237
1629894736046,-0.856928,-0.674416,0.746396
1629894736056,-0.948001,-0.734989,0.82899
1629894736065,-0.9864919999999999,-0.787449,0.845826
1629894736075,-0.9563579999999999,-0.806481,0.813557
1629894736085,-0.902068,-0.802638,0.77409
1629894736094,-0.852475,-0.793122,0.74237
1629894736104,-0.7628659999999999,-0.748958,0.67588
1629894736113,-0.612501,-0.667523,0.580476
1629894736123,-0.48007,-0.596946,0.517524
1629894736133,-0.438956,-0.58377,0.5197809999999999
1629894736142,-0.510326,-0.650016,0.5721189999999999
1629894736152,-0.593164,-0.744871,0.6140869999999999
1629894736161,-0.6137819999999999,-0.7865949999999999,0.62525
1629894736171,-0.607926,-0.786961,0.62159
1629894736181,-0.586149,-0.767868,0.613416
1629894736190,-0.56059,-0.741516,0.598959
1629894736200,-0.529541,-0.71492,0.573461
1629894736209,-0.500139,-0.689971,0.543388
1629894736219,-0.49672299999999997,-0.6828339999999999,0.523075
1629894736229,-0.518439,-0.694851,0.50996
1629894736238,-0.531737,-0.694973,0.494466
1629894736248,-0.526735,-0.670329,0.472933
1629894736257,-0.504714,-0.629398,0.448289
1629894736267,-0.47397,-0.572546,0.424682
1629894736277,-0.449814,-0.521672,0.40546699999999997
1629894736286,-0.441335,-0.48470599999999997,0.393816
1629894736296,-0.445422,-0.463844,0.386069
1629894736305,-0.44743499999999997,-0.454816,0.375272
1629894736315,-0.44395799999999996,-0.446276,0.357948
1629894736325,-0.43798,-0.434503,0.339282
1629894736334,-0.438102,-0.426024,0.324154
1629894736344,-0.445727,-0.420717,0.316346
1629894736353,-0.456524,-0.41907,0.313601
1629894736363,-0.464149,-0.416813,0.312259
1629894736373,-0.464454,-0.413336,0.311832
1629894736382,-0.465064,-0.412726,0.313845
1629894736392,-0.468785,-0.41724,0.31768799999999997
1629894736401,-0.480558,-0.427732,0.325374
1629894736411,-0.5002,-0.44408,0.333731
1629894736421,-0.529236,-0.467199,0.346358
1629894736430,-0.563152,-0.495137,0.358497
1629894736440,-0.588772,-0.517768,0.367342
1629894736449,-0.600789,-0.532347,0.37393
1629894736459,-0.6198819999999999,-0.550952,0.38765499999999997
1629894736469,-0.648308,-0.577365,0.40199
1629894736478,-0.6609349999999999,-0.595787,0.40699199999999996
1629894736488,-0.6834439999999999,-0.612379,0.41473899999999997
1629894736497,-0.7278519999999999,-0.644343,0.427305
1629894736507,-0.795013,-0.689788,0.453596
1629894736517,-0.828014,-0.7284619999999999,0.451644
1629894736526,-0.783789,-0.724863,0.431575
1629894736536,-0.77104,-0.71736,0.422364
1629894736545,-0.8316129999999999,-0.755912,0.438895
1629894736555,-0.897066,-0.801845,0.453718
1629894736565,-0.905728,-0.812886,0.455487
1629894736574,-0.872544,-0.788303,0.459513
1629894736584,-0.844728,-0.75945,0.479643
1629894736593,-0.874862,-0.774456,0.530212
1629894736603,-0.9785619999999999,-0.853024,0.592981
1629894736613,-1.051152,-0.92903,0.618296
1629894736622,-1.040355,-0.934886,0.612135
1629894736632,-1.002596,-0.888404,0.605242
1629894736641,-0.974475,-0.833382,0.611586
1629894736651,-0.942572,-0.774883,0.612074
1629894736661,-0.856135,-0.678991,0.590907
1629894736670,-0.75579,-0.55388,0.582611
1629894736680,-0.709796,-0.454389,0.588406
1629894736689,-0.680638,-0.392779,0.582489
1629894736699,-0.6630699999999999,-0.353678,0.587247
1629894736709,-0.697596,-0.361303,0.615673
1629894736718,-0.760975,-0.411201,0.641659
1629894736728,-0.801906,-0.467931,0.648979
1629894736737,-0.798246,-0.49355099999999996,0.634644
1629894736747,-0.764208,-0.480375,0.61427
1629894736757,-0.735904,-0.446764,0.596641
1629894736766,-0.715591,-0.40516199999999997,0.57584
1629894736776,-0.7044279999999999,-0.370697,0.552904
1629894736785,-0.697596,-0.35221399999999997,0.525149
1629894736795,-0.677832,-0.340563,0.489952
1629894736805,-0.6445259999999999,-0.329156,0.454328
1629894736814,-0.6143919999999999,-0.32696,0.42828099999999997
1629894736824,-0.596092,-0.337391,0.410042
1629894736833,-0.581452,-0.354715,0.395402
1629894736843,-0.570411,-0.371978,0.38051799999999997
1629894736853,-0.561261,-0.387533,0.364109
1629894736862,-0.550891,-0.39497499999999997,0.34507699999999997
1629894736872,-0.546926,-0.397049,0.32817999999999997
1629894736881,-0.543876,-0.403454,0.316102
1629894736891,-0.541497,-0.413275,0.304695
1629894736901,-0.538447,-0.421144,0.297802
1629894736910,-0.533689,-0.429623,0.29517899999999997
1629894736920,-0.531066,-0.43816299999999997,0.298839
1629894736929,-0.533628,-0.446581,0.30750099999999997
1629894736939,-0.540582,-0.457988,0.318054
1629894736949,-0.55266,-0.474702,0.330132
1629894736958,-0.57096,-0.494832,0.341539
1629894736968,-0.589382,-0.518988,0.348188
1629894736977,-0.607011,-0.542351,0.350506
1629894736987,-0.621834,-0.56059,0.351787
1629894736997,-0.629764,-0.574925,0.35648399999999997
1629894737006,-0.6365959999999999,-0.584136,0.368379
1629894737016,-0.639768,-0.589504,0.381494
1629894737025,-0.642025,-0.5934079999999999,0.39466999999999997
1629894737035,-0.641964,-0.595116,0.40443
1629894737045,-0.648796,-0.59963,0.415288
1629894737054,-0.675819,-0.619394,0.423218
1629894737064,-0.721569,-0.659227,0.42675599999999997
1629894737073,-0.75274,-0.692045,0.422608
1629894737083,-0.7622559999999999,-0.7047329999999999,0.418826
1629894737093,-0.7868999999999999,-0.720593,0.425353
1629894737102,-0.845704,-0.762439,0.442494
1629894737112,-0.903532,-0.8174,0.461709
1629894737121,-0.933666,-0.846741,0.47665399999999997
1629894737131,-0.9256139999999999,-0.839482,0.491965
1629894737141,-0.9027999999999999,-0.808616,0.520513
1629894737150,-0.920551,-0.798124,0.570716
1629894737160,-0.9785619999999999,-0.826184,0.604266
1629894737169,-1.000461,-0.847534,0.60756
1629894737179,-0.970815,-0.856745,0.58621
1629894737189,-0.921832,-0.866749,0.56303
1629894737198,-0.868518,-0.867115,0.542046
1629894737208,-0.772565,-0.821365,0.508679
1629894737217,-0.632814,-0.7351719999999999,0.466223
1629894737227,-0.494771,-0.65087,0.438346
1629894737237,-0.431392,-0.618113,0.441091
1629894737246,-0.469517,-0.676063,0.46433199999999997
1629894737256,-0.555466,-0.773175,0.485987
1629894737265,-0.61732,-0.839299,0.496052
1629894737275,-0.638182,-0.850706,0.491355
1629894737285,-0.6171369999999999,-0.821975,0.48470599999999997
1629894737294,-0.580537,-0.775676,0.474946
1629894737304,-0.535641,-0.72834,0.457378
1629894737313,-0.49349,-0.688751,0.436272
1629894737323,-0.487573,-0.683932,0.422852
1629894737333,-0.520513,-0.712724,0.41534899999999997
1629894737342,-0.555405,-0.738344,0.405589
1629894737352,-0.564982,-0.732,0.392657
1629894737361,-0.5432049999999999,-0.690398,0.378261
1629894737371,-0.506178,-0.628788,0.36112
1629894737381,-0.474641,-0.5678489999999999,0.344955
1629894737390,-0.458659,-0.524783,0.332572
1629894737400,-0.45536499999999996,-0.498065,0.31951799999999997
1629894737409,-0.45688999999999996,-0.48122899999999996,0.30902599999999997
1629894737419,-0.45566999999999996,-0.472811,0.296033
1629894737429,-0.457378,-0.470615,0.28365
1629894737438,-0.463234,-0.46726,0.277977
1629894737448,-0.469639,-0.459086,0.274378
1629894737457,-0.473543,-0.449631,0.275415
1629894737467,-0.480131,-0.443287,0.280783
1629894737477,-0.48440099999999997,-0.437919,0.284504
1629894737486,-0.490379,-0.437309,0.290055
1629894737496,-0.497394,-0.440176,0.296826
1629894737505,-0.501725,-0.44712999999999997,0.302743
1629894737515,-0.508496,-0.455548,0.304878
1629894737525,-0.522953,-0.471652,0.306647
1629894737534,-0.5453399999999999,-0.49324599999999996,0.309697
1629894737544,-0.57035,-0.5182559999999999,0.30927
1629894737553,-0.5964579999999999,-0.545828,0.312747
1629894737563,-0.625067,-0.57218,0.320067
1629894737573,-0.650748,-0.596824,0.325496
1629894737582,-0.667828,-0.616161,0.32909499999999997
1629894737592,-0.686433,-0.637938,0.329827
1629894737601,-0.717177,-0.674538,0.34282
1629894737611,-0.798368,-0.74115,0.376797
1629894737621,-0.8565619999999999,-0.80642,0.398513
1629894737630,-0.844667,-0.8155089999999999,0.40119699999999997
1629894737640,-0.81984,-0.784521,0.402783
1629894737649,-0.871873,-0.798612,0.42584099999999997
1629894737659,-0.947452,-0.850889,0.455853
1629894737669,-0.9663619999999999,-0.873642,0.469029
1629894737678,-0.9587979999999999,-0.8601,0.49111099999999996
1629894737688,-1.012112,-0.8842559999999999,0.5410699999999999
1629894737697,-1.090314,-0.949099,0.5842579999999999
1629894737707,-1.121119,-0.974048,0.601094
1629894737717,-1.116178,-0.945622,0.599874
1629894737726,-1.086532,-0.883829,0.595116
1629894737736,-1.060424,-0.818193,0.5903579999999999
1629894737745,-0.9773419999999999,-0.714676,0.559248
1629894737755,-0.83082,-0.551379,0.528992
1629894737765,-0.724619,-0.404064,0.520818
1629894737774,-0.665754,-0.313052,0.513925
1629894737784,-0.614026,-0.248575,0.51179
1629894737793,-0.6095119999999999,-0.23033599999999999,0.529114
1629894737803,-0.681736,-0.287066,0.552904
1629894737813,-0.775859,-0.385459,0.567483
1629894737822,-0.833809,-0.470188,0.557906
1629894737832,-0.829905,-0.50203,0.533872
1629894737841,-0.794098,-0.487329,0.510692
1629894737851,-0.7561559999999999,-0.451766,0.494405
1629894737861,-0.732366,-0.420778,0.48617
1629894737870,-0.728218,-0.408822,0.47848399999999996
1629894737880,-0.721386,-0.40699199999999996,0.468785
1629894737889,-0.7038179999999999,-0.40272199999999997,0.45444999999999997
1629894737899,-0.67771,-0.397232,0.441579
1629894737909,-0.648918,-0.392901,0.431148
1629894737918,-0.623176,-0.393511,0.422669
1629894737928,-0.607133,-0.401685,0.410774
1629894737937,-0.5967629999999999,-0.41168899999999997,0.393267
1629894737947,-0.5839529999999999,-0.414373,0.36911099999999997
1629894737957,-0.567971,-0.40992,0.346724
1629894737966,-0.553087,-0.4026,0.327448
1629894737976,-0.541802,-0.395951,0.312259
1629894737985,-0.535946,-0.395768,0.302438
1629894737995,-0.532713,-0.40028199999999997,0.295728
1629894738005,-0.530029,-0.406626,0.29304399999999997
1629894738014,-0.532408,-0.415532,0.29304399999999997
1629894738024,-0.541131,-0.428098,0.295728
1629894738033,-0.558333,-0.446032,0.302255
1629894738043,-0.583038,-0.46829699999999996,0.30744
1629894738053,-0.608231,-0.489769,0.31024599999999997
1629894738062,-0.632692,-0.5133759999999999,0.313174
1629894738072,-0.652883,-0.536739,0.31829799999999997
1629894738081,-0.661606,-0.548329,0.32452
1629894738091,-0.6612399999999999,-0.5480849999999999,0.332267
1629894738101,-0.663009,-0.546072,0.339343
1629894738110,-0.665937,-0.545401,0.346419
1629894738120,-0.669536,-0.543388,0.35373899999999997
1629894738129,-0.6700849999999999,-0.539972,0.357277
1629894738139,-0.674782,-0.5398499999999999,0.359717
1629894738149,-0.704184,-0.55815,0.363438
1629894738158,-0.771406,-0.606096,0.377224
1629894738168,-0.824171,-0.657702,0.386435
1629894738177,-0.839604,-0.679418,0.395219
1629894738187,-0.854366,-0.694668,0.40809
1629894738197,-0.9076799999999999,-0.739198,0.42584099999999997
1629894738206,-0.967826,-0.795745,0.433527
1629894738216,-0.98088,-0.8236829999999999,0.437126
1629894738225,-0.954162,-0.813862,0.451522
1629894738235,-0.953064,-0.809043,0.48861
1629894738245,-1.020652,-0.850218,0.528992
1629894738254,-1.064938,-0.88755,0.547719
1629894738264,-1.059021,-0.911096,0.549915
1629894738273,-1.023946,-0.9272,0.55815
1629894738283,-0.979294,-0.938546,0.566263
1629894738293,-0.894138,-0.9176839999999999,0.550525
1629894738302,-0.75945,-0.855708,0.525088
1629894738312,-0.61061,-0.7811049999999999,0.503189
1629894738321,-0.509533,-0.728096,0.49715
1629894738331,-0.518622,-0.750849,0.510326
1629894738341,-0.580049,-0.819169,0.5170359999999999
1629894738350,-0.600423,-0.853756,0.517402
1629894738360,-0.585234,-0.845948,0.507337
1629894738369,-0.551196,-0.809897,0.494771
1629894738379,-0.517524,-0.778116,0.48257099999999997
1629894738389,-0.48251,-0.755912,0.464149
1629894738398,-0.450363,-0.735721,0.444324
1629894738408,-0.439627,-0.715835,0.429318
1629894738417,-0.45017999999999997,-0.704489,0.412848
1629894738427,-0.468053,-0.69601,0.397476
1629894738437,-0.473543,-0.669292,0.378444
1629894738446,-0.46055,-0.627934,0.357521
1629894738456,-0.434564,-0.570106,0.339282
1629894738465,-0.414312,-0.511729,0.326411
1629894738475,-0.408334,-0.47146899999999997,0.318359
1629894738485,-0.414556,-0.449509,0.313479
1629894738494,-0.42309599999999997,-0.440237,0.306342
1629894738504,-0.429745,-0.44029799999999997,0.299144
1629894738513,-0.438956,-0.444995,0.288896
1629894738523,-0.447496,-0.450546,0.279014
1629894738533,-0.454633,-0.45261999999999997,0.269986
1629894738542,-0.45200999999999997,-0.44469,0.262056
1629894738552,-0.448716,-0.434381,0.261629
1629894738561,-0.462868,-0.436516,0.274561
1629894738571,-0.499224,-0.45627999999999996,0.298046
1629894738581,-0.538264,-0.48739,0.320555
1629894738590,-0.5669339999999999,-0.517219,0.337635
1629894738600,-0.584502,-0.545279,0.3477
1629894738609,-0.598288,-0.569313,0.351177
1629894738619,-0.6122569999999999,-0.588955,0.353556
1629894738629,-0.626714,-0.602192,0.35624
1629894738638,-0.632814,-0.610915,0.357582
1629894738648,-0.629703,-0.6098169999999999,0.361974
1629894738657,-0.638853,-0.608414,0.374296
1629894738667,-0.659471,-0.622261,0.387838
1629894738677,-0.661667,-0.630801,0.39344999999999997
1629894738686,-0.672342,-0.637084,0.395829
1629894738696,-0.729194,-0.677405,0.415227
1629894738705,-0.818803,-0.754814,0.42523099999999997
1629894738715,-0.80947,-0.772382,0.410713
1629894738725,-0.7662209999999999,-0.74786,0.38917999999999997
1629894738734,-0.797697,-0.757864,0.391254
1629894738744,-0.8732759999999999,-0.809897,0.407846
1629894738753,-0.905484,-0.835029,0.416813
1629894738763,-0.8839509999999999,-0.816851,0.417728
1629894738773,-0.860893,-0.785802,0.43615
1629894738782,-0.9119499999999999,-0.811178,0.486902
1629894738792,-1.021689,-0.892796,0.53497
1629894738801,-1.086776,-0.950136,0.556686
1629894738811,-1.089521,-0.9438529999999999,0.55083
1629894738821,-1.062315,-0.896151,0.541253
1629894738830,-1.035048,-0.83997,0.535397
1629894738840,-0.9688019999999999,-0.756949,0.514352
1629894738849,-0.836371,-0.6156119999999999,0.480375
1629894738859,-0.717909,-0.47543399999999997,0.464149
1629894738869,-0.670878,-0.392474,0.466711
1629894738878,-0.649589,-0.344589,0.472872
1629894738888,-0.650565,-0.325679,0.49532
1629894738897,-0.703086,-0.357521,0.531249
1629894738907,-0.774334,-0.428525,0.559492
1629894738917,-0.825391,-0.506117,0.5721189999999999
1629894738926,-0.827221,-0.548695,0.557784
1629894738936,-0.789096,-0.534604,0.531676
1629894738945,-0.746823,-0.49916299999999997,0.508679
1629894738955,-0.715591,-0.462746,0.49172099999999996
1629894738965,-0.7065629999999999,-0.44060299999999997,0.48318099999999997
1629894738974,-0.708637,-0.435052,0.474275
1629894738984,-0.696498,-0.42889099999999997,0.461648
1629894738993,-0.665632,-0.416752,0.444934
1629894739003,-0.630557,-0.407358,0.432002
1629894739013,-0.598715,-0.4087,0.422364
1629894739022,-0.580415,-0.42212,0.412055
1629894739032,-0.571997,-0.441701,0.397781
1629894739041,-0.562603,-0.454877,0.37942
1629894739051,-0.548878,-0.45994,0.356728
1629894739061,-0.534604,-0.458659,0.333914
1629894739070,-0.522587,-0.457805,0.312747
1629894739080,-0.51484,-0.461526,0.29578899999999997
1629894739089,-0.510753,-0.469334,0.28487
1629894739099,-0.511607,-0.481351,0.281576
1629894739109,-0.515572,-0.500932,0.283101
1629894739118,-0.5185609999999999,-0.5210009999999999,0.286273
1629894739128,-0.521733,-0.532042,0.286456
1629894739137,-0.530273,-0.5398499999999999,0.287981
1629894739147,-0.548512,-0.548512,0.293837
1629894739157,-0.573949,-0.556869,0.299998
1629894739166,-0.597678,-0.558516,0.304207
1629894739176,-0.607743,-0.544852,0.30933099999999997
1629894739185,-0.606218,-0.517219,0.315187
1629894739195,-0.605608,-0.497211,0.325191
1629894739205,-0.6171369999999999,-0.503433,0.340014
1629894739214,-0.635864,-0.520818,0.358802
1629894739224,-0.653798,-0.5419849999999999,0.376126
1629894739233,-0.67405,-0.559431,0.394243
1629894739243,-0.706197,-0.588467,0.412116
1629894739253,-0.75579,-0.631228,0.428769
1629894739262,-0.800442,-0.670756,0.44151799999999997
1629894739272,-0.8112389999999999,-0.684908,0.45109499999999997
1629894739281,-0.80886,-0.688995,0.466833
1629894739291,-0.837164,-0.720105,0.493368
1629894739301,-0.889746,-0.775127,0.52155
1629894739310,-0.924272,-0.8078839999999999,0.535763
1629894739320,-0.913841,-0.798124,0.547048
1629894739329,-0.906887,-0.788608,0.577914
1629894739339,-0.966118,-0.839604,0.62769
1629894739349,-1.0276669999999999,-0.901519,0.654774
1629894739358,-1.02968,-0.9311039999999999,0.653737
1629894739368,-0.97844,-0.9250039999999999,0.63379
1629894739377,-0.890722,-0.884195,0.606828
1629894739387,-0.767258,-0.805261,0.565836
1629894739397,-0.615734,-0.705709,0.51484
1629894739406,-0.483303,-0.639219,0.480802
1629894739416,-0.424255,-0.637572,0.48495
1629894739425,-0.481412,-0.7287669999999999,0.515023
1629894739435,-0.566202,-0.8227679999999999,0.534543
1629894739445,-0.606828,-0.853634,0.545462
1629894739454,-0.613294,-0.847778,0.5438149999999999
1629894739464,-0.597861,-0.805688,0.5428999999999999
1629894739473,-0.574376,-0.762988,0.539484
1629894739483,-0.546438,-0.730353,0.523807
1629894739493,-0.514352,-0.70455,0.499285
1629894739502,-0.503128,-0.702598,0.474458
1629894739512,-0.5136809999999999,-0.720044,0.450973
1629894739521,-0.528626,-0.73139,0.430782
1629894739531,-0.534909,-0.7190679999999999,0.411262
1629894739541,-0.524783,-0.680333,0.394548
1629894739550,-0.501664,-0.621651,0.382165
1629894739560,-0.47756899999999997,-0.557784,0.37637
1629894739569,-0.46726,-0.51545,0.373625
1629894739579,-0.46921199999999996,-0.492087,0.37088
1629894739589,-0.47634899999999997,-0.481961,0.364902
1629894739598,-0.477142,-0.472201,0.352092
1629894739608,-0.469456,-0.457378,0.335439
1629894739617,-0.465308,-0.444446,0.320189
1629894739627,-0.470188,-0.437614,0.30933099999999997
1629894739637,-0.480558,-0.436577,0.303292
1629894739646,-0.484828,-0.43066,0.298778
1629894739656,-0.483364,-0.424865,0.29463
1629894739665,-0.481168,-0.42029,0.290604
1629894739675,-0.483425,-0.42151,0.291031
1629894739685,-0.490623,-0.427854,0.296948
1629894739694,-0.504775,-0.44151799999999997,0.30561
1629894739704,-0.524966,-0.463905,0.314699
1629894739713,-0.549305,-0.490989,0.32256799999999997
1629894739723,-0.571448,-0.51606,0.327082
1629894739733,-0.590602,-0.53497,0.330559
1629894739742,-0.613111,-0.558577,0.33794
1629894739752,-0.639219,-0.585417,0.348005
1629894739761,-0.653859,-0.60512,0.357338
1629894739771,-0.665449,-0.6214069999999999,0.366488
1629894739781,-0.698816,-0.6572749999999999,0.387533
1629894739790,-0.773663,-0.72651,0.415288
1629894739800,-0.803492,-0.767014,0.422181
1629894739809,-0.780434,-0.7598159999999999,0.415593
1629894739819,-0.773846,-0.748714,0.4148
1629894739829,-0.838811,-0.791841,0.430599
1629894739838,-0.914878,-0.853573,0.441701
1629894739848,-0.93452,-0.876814,0.440542
1629894739857,-0.912316,-0.8562569999999999,0.442006
1629894739867,-0.890234,-0.823744,0.463234
1629894739877,-0.923723,-0.838384,0.507276
1629894739886,-1.024861,-0.920856,0.554307
1629894739896,-1.084763,-0.978135,0.570472
1629894739905,-1.06811,-0.959225,0.561932
1629894739915,-1.038159,-0.904264,0.544608
1629894739925,-1.011868,-0.845216,0.528138
1629894739934,-0.967948,-0.77043,0.504348
1629894739944,-0.8608319999999999,-0.634949,0.459635
1629894739953,-0.74115,-0.478667,0.420351
1629894739963,-0.682712,-0.389607,0.401868
1629894739973,-0.663741,-0.349286,0.388387
1629894739982,-0.643062,-0.3111,0.390766
1629894739992,-0.67466,-0.333731,0.422852
1629894740001,-0.770796,-0.427732,0.46848
1629894740011,-0.843752,-0.511912,0.503006
1629894740021,-0.860405,-0.54961,0.5185
1629894740030,-0.8230729999999999,-0.530822,0.515694
1629894740040,-0.779153,-0.49227,0.510509
1629894740049,-0.756583,-0.464271,0.499285
1629894740059,-0.753045,-0.45170499999999997,0.482998
1629894740069,-0.7595109999999999,-0.451827,0.46055
1629894740078,-0.7564,-0.45078999999999997,0.43371
1629894740088,-0.732305,-0.442189,0.401868
1629894740097,-0.69418,-0.43224599999999996,0.374052
1629894740107,-0.665754,-0.43981,0.357033
1629894740117,-0.643672,-0.45994,0.343186
1629894740126,-0.623176,-0.465918,0.328912
1629894740136,-0.599264,-0.463051,0.312503
1629894740145,-0.5727289999999999,-0.455182,0.29395899999999997
1629894740155,-0.554734,-0.446093,0.278404
1629894740165,-0.545401,-0.441701,0.269071
1629894740174,-0.541802,-0.446642,0.264801
1629894740184,-0.5416799999999999,-0.45688999999999996,0.263398
1629894740193,-0.542107,-0.468846,0.267546
1629894740203,-0.543876,-0.481412,0.271572
1629894740213,-0.547048,-0.493124,0.277245
1629894740222,-0.543449,-0.500383,0.279746
1629894740232,-0.536678,-0.49959,0.282491
1629894740241,-0.53192,-0.496662,0.284565
1629894740251,-0.53497,-0.499651,0.28853
1629894740261,-0.5447299999999999,-0.509472,0.2928
1629894740270,-0.558943,-0.51789,0.299266
1629894740280,-0.57096,-0.523075,0.307318
1629894740289,-0.589626,-0.532713,0.319396
1629894740299,-0.614148,-0.546133,0.333121
1629894740309,-0.634644,-0.551562,0.347639
1629894740318,-0.652456,-0.551501,0.35929
1629894740328,-0.6661199999999999,-0.549183,0.371734
1629894740337,-0.693936,-0.5641889999999999,0.390644
1629894740347,-0.741394,-0.602558,0.410957
1629894740357,-0.7746999999999999,-0.630618,0.419863
1629894740366,-0.788913,-0.641415,0.42309599999999997
1629894740376,-0.8139839999999999,-0.653066,0.430904
1629894740385,-0.867908,-0.69235,0.4453
1629894740395,-0.9271389999999999,-0.743712,0.459025
1629894740405,-0.956114,-0.769271,0.469639
1629894740414,-0.95343,-0.768356,0.483242
1629894740424,-0.9368989999999999,-0.749751,0.50325
1629894740433,-0.937326,-0.738954,0.545889
1629894740443,-1.007842,-0.7835449999999999,0.604327
1629894740453,-1.089033,-0.858453,0.630008
1629894740462,-1.096597,-0.898408,0.621285
1629894740472,-1.0413919999999999,-0.897188,0.596946
1629894740481,-0.976854,-0.8781559999999999,0.577853
1629894740491,-0.903532,-0.842715,0.549122
1629894740501,-0.769637,-0.764818,0.499895
1629894740510,-0.61122,-0.674111,0.45353499999999997
1629894740520,-0.489464,-0.615429,0.43072099999999997
1629894740529,-0.447923,-0.616649,0.436821
1629894740539,-0.504592,-0.681492,0.46116
1629894740549,-0.5839529999999999,-0.756949,0.484218
1629894740558,-0.631777,-0.793915,0.503189
1629894740568,-0.64294,-0.794708,0.512705
1629894740577,-0.610061,-0.76067,0.508374
1629894740587,-0.566385,-0.720837,0.496052
1629894740597,-0.531615,-0.6898489999999999,0.474763
1629894740606,-0.51362,-0.677832,0.45566999999999996
1629894740616,-0.532103,-0.698145,0.445117
1629894740625,-0.569252,-0.727181,0.436821
1629894740635,-0.589565,-0.73139,0.424865
1629894740645,-0.580049,-0.699792,0.409798
1629894740654,-0.552782,-0.649406,0.39100999999999997
1629894740664,-0.5231359999999999,-0.590602,0.371734
1629894740673,-0.504531,-0.535763,0.355691
1629894740683,-0.496601,-0.500322,0.340868
1629894740693,-0.494222,-0.482388,0.32696
1629894740702,-0.489708,-0.471713,0.308965
1629894740712,-0.481534,-0.460611,0.290543
1629894740721,-0.476288,-0.45200999999999997,0.275537
1629894740731,-0.480741,-0.44956999999999997,0.266997
1629894740741,-0.494222,-0.451278,0.265899
1629894740750,-0.507825,-0.450546,0.26779
1629894740760,-0.518439,-0.445056,0.275293
1629894740769,-0.528138,-0.44743499999999997,0.288591
1629894740779,-0.536922,-0.451827,0.300364
1629894740789,-0.542778,-0.457256,0.306342
1629894740798,-0.541497,-0.458232,0.30597599999999997
1629894740808,-0.537227,-0.457866,0.301096
1629894740817,-0.536251,-0.456829,0.29761899999999997
1629894740827,-0.546743,-0.468724,0.29951
1629894740837,-0.565348,-0.486109,0.302499
1629894740846,-0.579317,-0.501725,0.309697
1629894740856,-0.59536,-0.522465,0.31964
1629894740865,-0.620065,-0.550647,0.330254
1629894740875,-0.643367,-0.579439,0.338062
1629894740885,-0.666791,-0.603595,0.341905
1629894740894,-0.713761,-0.6347659999999999,0.349042
1629894740904,-0.793427,-0.6861889999999999,0.35922899999999997
1629894740913,-0.839299,-0.724619,0.364292
1629894740923,-0.83692,-0.72346,0.365695
1629894740933,-0.840031,-0.71431,0.372954
1629894740942,-0.910791,-0.747677,0.39405999999999997
1629894740952,-0.9913109999999999,-0.80337,0.406199
1629894740961,-1.009001,-0.826794,0.40760199999999996
1629894740971,-0.97661,-0.80886,0.411872
1629894740981,-0.996313,-0.8152039999999999,0.430172
1629894740990,-1.081896,-0.863516,0.471713
1629894741000,-1.1776659999999999,-0.940132,0.464576
1629894741009,-1.194685,-0.951417,0.442494
1629894741019,-1.164429,-0.904081,0.42919599999999997
1629894741029,-1.141859,-0.846619,0.430172
1629894741038,-1.101904,-0.775737,0.427183
1629894741048,-0.989847,-0.650443,0.418826
1629894741057,-0.868335,-0.50691,0.419558
1629894741067,-0.792207,-0.401624,0.42401099999999997
1629894741077,-0.724192,-0.31842,0.433527
1629894741086,-0.69418,-0.278099,0.453901
1629894741096,-0.748531,-0.303658,0.48379099999999997
1629894741105,-0.841861,-0.387594,0.502762
1629894741115,-0.8979199999999999,-0.47329899999999997,0.511912
1629894741125,-0.902312,-0.524539,0.509045
1629894741134,-0.867542,-0.524417,0.498004
1629894741144,-0.819718,-0.495137,0.48251
1629894741153,-0.779824,-0.452742,0.46524699999999997
1629894741163,-0.747555,-0.412787,0.44895999999999997
1629894741173,-0.73383,-0.39466999999999997,0.432734
1629894741182,-0.722606,-0.395158,0.421083
1629894741192,-0.699304,-0.402539,0.409493
1629894741201,-0.664412,-0.406199,0.403576
1629894741211,-0.625189,-0.408456,0.397659
1629894741221,-0.594079,-0.412055,0.394548
1629894741230,-0.577121,-0.420778,0.390034
1629894741240,-0.566507,-0.430965,0.38051799999999997
1629894741249,-0.553453,-0.432856,0.36972099999999997
1629894741259,-0.536373,-0.430599,0.35258
1629894741269,-0.525698,-0.428159,0.339709
1629894741278,-0.523075,-0.430965,0.330742
1629894741288,-0.525393,-0.438224,0.325618
1629894741297,-0.528443,-0.447313,0.323178
1629894741307,-0.528748,-0.452376,0.323056
1629894741317,-0.530029,-0.454206,0.326228
1629894741326,-0.532957,-0.454023,0.330864
1629894741336,-0.540582,-0.457988,0.339953
1629894741345,-0.554551,-0.467199,0.348066
1629894741355,-0.57157,-0.480863,0.356911
1629894741365,-0.5937129999999999,-0.500627,0.362462
1629894741374,-0.6098169999999999,-0.516548,0.368867
1629894741384,-0.61549,-0.523624,0.373503
1629894741393,-0.615551,-0.521062,0.386008
1629894741403,-0.618906,-0.510021,0.404735
1629894741413,-0.632387,-0.509655,0.431819
1629894741422,-0.646905,-0.5145959999999999,0.45811
1629894741432,-0.671244,-0.523929,0.49044
1629894741441,-0.734074,-0.565348,0.529785
1629894741451,-0.803431,-0.63074,0.560102
1629894741461,-0.827587,-0.671,0.583404
1629894741470,-0.818193,-0.676734,0.600606
1629894741480,-0.830881,-0.693997,0.62525
1629894741489,-0.8799859999999999,-0.7415769999999999,0.640988
1629894741499,-0.9085949999999999,-0.7765299999999999,0.644038
1629894741509,-0.876753,-0.769454,0.628544
1629894741518,-0.798368,-0.722179,0.618784
1629894741528,-0.736819,-0.671915,0.6442209999999999
1629894741537,-0.7774449999999999,-0.691252,0.710589
1629894741547,-0.850828,-0.74542,0.748409
1629894741557,-0.826001,-0.749629,0.726449
1629894741566,-0.738161,-0.720044,0.6925939999999999
1629894741576,-0.638548,-0.6867989999999999,0.681431
1629894741585,-0.564311,-0.671305,0.6800889999999999
1629894741595,-0.471896,-0.644404,0.653371
1629894741605,-0.361059,-0.603046,0.62952
1629894741614,-0.36484099999999997,-0.6405609999999999,0.665754
1629894741624,-0.491538,-0.773236,0.739198
1629894741633,-0.570228,-0.8735809999999999,0.76433
1629894741643,-0.526125,-0.856928,0.725412
1629894741653,-0.45475499999999996,-0.790743,0.672586
1629894741662,-0.421388,-0.7406619999999999,0.655689
1629894741672,-0.439261,-0.736148,0.666486
1629894741681,-0.441701,-0.739198,0.659593
1629894741691,-0.43432,-0.736514,0.639402
1629894741701,-0.44773999999999997,-0.7418819999999999,0.623664
1629894741710,-0.471896,-0.7363919999999999,0.61427
1629894741720,-0.464576,-0.721996,0.588772
1629894741729,-0.456036,-0.662826,0.561322
1629894741739,-0.438712,-0.598166,0.534177
1629894741749,-0.40821199999999996,-0.536373,0.497577
1629894741758,-0.39009499999999997,-0.484767,0.47458
1629894741768,-0.384544,-0.457439,0.458232
1629894741777,-0.395341,-0.44956999999999997,0.451217
1629894741787,-0.40577199999999997,-0.448289,0.44029799999999997
1629894741797,-0.405406,-0.43968799999999997,0.422608
1629894741806,-0.400953,-0.42309599999999997,0.403576
1629894741816,-0.400221,-0.40607699999999997,0.394914
1629894741825,-0.405894,-0.394548,0.394182
1629894741835,-0.41785,-0.389546,0.399489
1629894741845,-0.431758,-0.387594,0.405101
1629894741854,-0.43938299999999997,-0.388021,0.408151
1629894741864,-0.444446,-0.390949,0.41053
1629894741873,-0.45109499999999997,-0.398391,0.412482
1629894741883,-0.457744,-0.402783,0.416447
1629894741893,-0.46280699999999997,-0.40565,0.419863
1629894741902,-0.47756899999999997,-0.415166,0.435174
1629894741912,-0.510448,-0.43859,0.45933
1629894741921,-0.540704,-0.462868,0.491233
1629894741931,-0.561078,-0.48531599999999997,0.5200859999999999
1629894741941,-0.583465,-0.511607,0.543388
1629894741950,-0.607316,-0.5441199999999999,0.562542
1629894741960,-0.607743,-0.559492,0.557845
1629894741969,-0.61366,-0.569801,0.548878
1629894741979,-0.6591049999999999,-0.600606,0.559675
1629894741989,-0.758169,-0.662277,0.603534
1629894741998,-0.8152039999999999,-0.724314,0.611464
1629894742008,-0.753899,-0.710101,0.569923
1629894742017,-0.744627,-0.694058,0.554978
1629894742027,-0.817583,-0.738588,0.5931029999999999
1629894742037,-0.878949,-0.789889,0.627934
1629894742046,-0.873947,-0.794525,0.631899
1629894742056,-0.85522,-0.775188,0.651846
1629894742065,-0.897371,-0.797819,0.7160179999999999
1629894742075,-0.980575,-0.853146,0.783606
1629894742085,-1.017053,-0.883829,0.809775
1629894742094,-0.997594,-0.856196,0.795623
1629894742104,-0.960689,-0.795928,0.782691
1629894742113,-0.9429379999999999,-0.7385269999999999,0.788974
1629894742123,-0.877607,-0.653615,0.770064
1629894742133,-0.734135,-0.497211,0.725168
1629894742142,-0.616344,-0.348066,0.712297
1629894742152,-0.562786,-0.265167,0.722911
1629894742161,-0.494954,-0.199531,0.716811
1629894742171,-0.483669,-0.180987,0.725473
1629894742181,-0.5891379999999999,-0.268644,0.7820199999999999
1629894742190,-0.698084,-0.381494,0.820023
1629894742200,-0.715225,-0.431148,0.79849
1629894742209,-0.679113,-0.42889099999999997,0.7442
1629894742219,-0.641903,-0.406748,0.69235
1629894742229,-0.632143,-0.390888,0.656299
1629894742238,-0.622749,-0.38064,0.625799
1629894742248,-0.623542,-0.383995,0.60634
1629894742257,-0.629581,-0.397354,0.588589
1629894742267,-0.616649,-0.39833,0.555588
1629894742277,-0.5927979999999999,-0.393999,0.520879
1629894742286,-0.571143,-0.3965,0.501298
1629894742296,-0.558455,-0.4026,0.49519799999999997
1629894742305,-0.545706,-0.408883,0.488793
1629894742315,-0.536129,-0.41297,0.48531599999999997
1629894742325,-0.51545,-0.40321,0.471408
1629894742334,-0.49702799999999997,-0.38795999999999997,0.455731
1629894742344,-0.487817,-0.37624799999999997,0.438102
1629894742353,-0.489952,-0.374845,0.43188
1629894742363,-0.485194,-0.38491,0.423279
1629894742373,-0.484828,-0.393938,0.420778
1629894742382,-0.483913,-0.404491,0.42151
1629894742392,-0.48836599999999997,-0.411018,0.430904
1629894742401,-0.495381,-0.417545,0.44456799999999996
1629894742411,-0.498004,-0.420107,0.457744
1629894742421,-0.505568,-0.425719,0.46848
1629894742430,-0.51972,-0.434991,0.480375
1629894742440,-0.536068,-0.44987499999999997,0.494771
1629894742449,-0.541314,-0.458659,0.50264
1629894742459,-0.529602,-0.452193,0.507398
1629894742469,-0.520452,-0.439749,0.517829
1629894742478,-0.5240509999999999,-0.437736,0.5389349999999999
1629894742488,-0.538264,-0.44834999999999997,0.564616
1629894742497,-0.547414,-0.456036,0.5885279999999999
1629894742507,-0.544669,-0.45505999999999996,0.601338
1629894742517,-0.5641889999999999,-0.465613,0.628178
1629894742526,-0.628239,-0.5124,0.684237
1629894742536,-0.698389,-0.583465,0.7348669999999999
1629894742545,-0.677588,-0.583404,0.736941
1629894742555,-0.670268,-0.571387,0.746152
1629894742565,-0.734806,-0.611891,0.791719
1629894742574,-0.792634,-0.665144,0.822036
1629894742584,-0.780373,-0.669048,0.8063589999999999
1629894742593,-0.7397469999999999,-0.641598,0.789889
1629894742603,-0.759755,-0.647515,0.83326
1629894742613,-0.860283,-0.71858,0.92415
1629894742622,-0.882914,-0.74481,0.9523929999999999
1629894742632,-0.856135,-0.735294,0.936106
1629894742641,-0.8174,-0.7373069999999999,0.916769
1629894742651,-0.782447,-0.753838,0.909022
1629894742661,-0.70333,-0.742858,0.865773
1629894742670,-0.570472,-0.687775,0.788242
1629894742680,-0.448899,-0.6384259999999999,0.726632
1629894742689,-0.367708,-0.607743,0.69357
1629894742699,-0.376187,-0.628056,0.718214
1629894742709,-0.423462,-0.681736,0.776164
1629894742718,-0.403759,-0.693265,0.792451
1629894742728,-0.363438,-0.666547,0.778604
1629894742737,-0.34599199999999997,-0.64477,0.767624
1629894742747,-0.328058,-0.624762,0.746152
1629894742757,-0.315004,-0.604937,0.721935
1629894742766,-0.315126,-0.594994,0.707661
1629894742776,-0.335622,-0.60024,0.705587
1629894742785,-0.37002599999999997,-0.620919,0.708271
1629894742795,-0.387228,-0.6186619999999999,0.702964
1629894742805,-0.383385,-0.592066,0.68503
1629894742814,-0.36844,-0.553758,0.664351
1629894742824,-0.351177,-0.513132,0.638182
1629894742833,-0.34538199999999997,-0.474946,0.621773
1629894742843,-0.345748,-0.447862,0.606645
1629894742853,-0.348737,-0.426695,0.5924929999999999
1629894742862,-0.350811,-0.412482,0.573644
1629894742872,-0.347883,-0.401868,0.548634
1629894742881,-0.349957,-0.395707,0.526491
1629894742891,-0.35868,-0.397232,0.5139859999999999
1629894742901,-0.367159,-0.39588999999999996,0.510143
1629894742910,-0.375028,-0.394426,0.508374
1629894742920,-0.379237,-0.388936,0.508313
1629894742929,-0.38295799999999997,-0.385398,0.51301
1629894742939,-0.388082,-0.383934,0.525393
1629894742949,-0.393816,-0.388448,0.53497
1629894742958,-0.39222999999999997,-0.390278,0.541619
1629894742968,-0.393206,-0.391071,0.543998
1629894742977,-0.40809,-0.402905,0.545462
1629894742987,-0.438346,-0.425048,0.555649
1629894742997,-0.468663,-0.450424,0.575596
1629894743006,-0.49105,-0.47512899999999997,0.591822
1629894743016,-0.499407,-0.486353,0.598044
1629894743025,-0.503555,-0.490074,0.598532
1629894743035,-0.517219,-0.500932,0.604449
1629894743045,-0.524722,-0.50874,0.602619
1629894743054,-0.545218,-0.5194759999999999,0.599264
1629894743064,-0.601582,-0.558455,0.622261
1629894743073,-0.68869,-0.627141,0.6642899999999999
1629894743083,-0.722423,-0.6682549999999999,0.672647
1629894743093,-0.711504,-0.668011,0.6430009999999999
1629894743102,-0.720959,-0.6688649999999999,0.626043
1629894743112,-0.8048339999999999,-0.7157129999999999,0.664351
1629894743121,-0.869067,-0.760914,0.696376
1629894743131,-0.8599169999999999,-0.753838,0.697413
1629894743141,-0.809653,-0.710589,0.694302
1629894743150,-0.814533,-0.706319,0.734989
1629894743160,-0.909266,-0.778909,0.8084939999999999
1629894743169,-0.98698,-0.844606,0.838079
1629894743179,-0.989115,-0.847229,0.812276
1629894743189,-0.94306,-0.788608,0.749873
1629894743198,-0.891454,-0.710406,0.696315
1629894743208,-0.833504,-0.61915,0.650687
1629894743217,-0.69418,-0.466223,0.578341
1629894743227,-0.575962,-0.314638,0.542046
1629894743237,-0.548207,-0.245342,0.566385
1629894743246,-0.578402,-0.249002,0.626348
1629894743256,-0.63684,-0.285846,0.701561
1629894743265,-0.723643,-0.359412,0.7746999999999999
1629894743275,-0.749141,-0.402783,0.794403
1629894743285,-0.728279,-0.408456,0.769759
1629894743294,-0.703269,-0.39344999999999997,0.726632
1629894743304,-0.686372,-0.367464,0.696437
1629894743313,-0.678869,-0.349103,0.679662
1629894743323,-0.682468,-0.345504,0.678259
1629894743333,-0.686738,-0.359351,0.677222
1629894743342,-0.668011,-0.36758599999999997,0.665327
1629894743352,-0.62769,-0.362035,0.642879
1629894743361,-0.585539,-0.351665,0.621895
1629894743371,-0.554429,-0.346175,0.610244
1629894743381,-0.531249,-0.349103,0.60146
1629894743390,-0.5130709999999999,-0.355203,0.59048
1629894743400,-0.49702799999999997,-0.354105,0.573583
1629894743409,-0.477203,-0.345748,0.551013
1629894743419,-0.455548,-0.334646,0.528748
1629894743429,-0.4392,-0.329827,0.510631
1629894743438,-0.435662,-0.333609,0.497516
1629894743448,-0.436394,-0.343003,0.48958599999999997
1629894743457,-0.435967,-0.34831,0.483364
1629894743467,-0.437309,-0.35434899999999997,0.479826
1629894743477,-0.443775,-0.361547,0.47824
1629894743486,-0.45231499999999997,-0.372344,0.479216
1629894743496,-0.460184,-0.379054,0.47946
1629894743505,-0.47116399999999997,-0.391254,0.481107
1629894743515,-0.49202599999999996,-0.407785,0.489159
1629894743525,-0.518927,-0.42950099999999997,0.499346
1629894743534,-0.5416799999999999,-0.448228,0.508252
1629894743544,-0.560163,-0.465674,0.517768
1629894743553,-0.5705939999999999,-0.473787,0.5210009999999999
1629894743563,-0.583587,-0.479521,0.529785
1629894743573,-0.60451,-0.488549,0.542412
1629894743582,-0.615673,-0.490562,0.549366
1629894743592,-0.620614,-0.48061899999999996,0.5480849999999999
1629894743601,-0.623298,-0.489403,0.55205
1629894743611,-0.639402,-0.511302,0.554978
1629894743621,-0.725046,-0.5641889999999999,0.630496
1629894743630,-0.748165,-0.59963,0.651541
1629894743640,-0.732976,-0.592066,0.653066
1629894743649,-0.762439,-0.611525,0.679113
1629894743659,-0.828502,-0.662582,0.727425
1629894743669,-0.863394,-0.694302,0.7515809999999999
1629894743678,-0.842349,-0.680211,0.7412719999999999
1629894743688,-0.802028,-0.648552,0.740113
1629894743697,-0.806542,-0.649528,0.7917799999999999
1629894743707,-0.8863909999999999,-0.711626,0.896639
1629894743717,-0.921588,-0.757864,0.950014
1629894743726,-0.874313,-0.750056,0.937021
1629894743736,-0.799222,-0.728096,0.900909
1629894743745,-0.752862,-0.724436,0.887062
1629894743755,-0.684176,-0.699853,0.847656
1629894743765,-0.552294,-0.621712,0.759572
1629894743774,-0.41626399999999997,-0.546682,0.680211
1629894743784,-0.328363,-0.507398,0.648552
1629894743793,-0.351787,-0.544547,0.70333
1629894743803,-0.428708,-0.625494,0.7911699999999999
1629894743813,-0.425048,-0.650138,0.822402
1629894743822,-0.395951,-0.635254,0.821731
1629894743832,-0.370514,-0.607743,0.8052
1629894743841,-0.350628,-0.576267,0.777994
1629894743851,-0.35282399999999997,-0.565775,0.747311
1629894743861,-0.350872,-0.56181,0.713029
1629894743870,-0.349408,-0.548024,0.68686
1629894743880,-0.378261,-0.561932,0.6837489999999999
1629894743889,-0.405711,-0.5657139999999999,0.69052
1629894743899,-0.388204,-0.55937,0.656482
1629894743909,-0.379542,-0.5124609999999999,0.645624
1629894743918,-0.367525,-0.465003,0.6381209999999999
1629894743928,-0.348127,-0.431575,0.614453
1629894743937,-0.35160399999999997,-0.406138,0.608658
1629894743947,-0.36173,-0.391559,0.604571
1629894743957,-0.369538,-0.378871,0.5927979999999999
1629894743966,-0.373808,-0.367098,0.577304
1629894743976,-0.373503,-0.360266,0.56547
1629894743985,-0.379237,-0.360388,0.563091
1629894743995,-0.382836,-0.360693,0.560773
1629894744005,-0.385581,-0.355752,0.562298
1629894744014,-0.388509,-0.347578,0.565226
1629894744024,-0.398208,-0.348432,0.570838
1629894744033,-0.405711,-0.354227,0.570411
1629894744043,-0.416447,-0.356057,0.575901
1629894744053,-0.421937,-0.359473,0.575108
1629894744062,-0.426512,-0.363072,0.577182
1629894744072,-0.435601,-0.368257,0.583648
1629894744081,-0.444446,-0.371917,0.59536
1629894744091,-0.45566999999999996,-0.379054,0.608536
1629894744101,-0.4636,-0.390522,0.6186619999999999
1629894744110,-0.47787399999999997,-0.40546699999999997,0.634522
1629894744120,-0.491233,-0.419253,0.649833
1629894744129,-0.502579,-0.435052,0.661667
1629894744139,-0.510448,-0.445422,0.663558
1629894744149,-0.528992,-0.460001,0.671061
1629894744158,-0.585905,-0.498309,0.7074779999999999
1629894744168,-0.67649,-0.563213,0.768295
1629894744177,-0.686006,-0.576633,0.766404
1629894744187,-0.653188,-0.5611389999999999,0.7327319999999999
1629894744197,-0.671793,-0.572973,0.743834
1629894744206,-0.747128,-0.625616,0.800015
1629894744216,-0.797941,-0.665693,0.834907
1629894744225,-0.786778,-0.659593,0.8267329999999999
1629894744235,-0.754265,-0.629398,0.822707
1629894744245,-0.791658,-0.64172,0.886208
1629894744254,-0.882182,-0.7157129999999999,0.980819
1629894744264,-0.932202,-0.766404,1.018395
1629894744273,-0.915549,-0.753777,0.999424
1629894744283,-0.877973,-0.695888,0.969839
1629894744293,-0.8464969999999999,-0.64904,0.950502
1629894744302,-0.779153,-0.543571,0.900543
1629894744312,-0.627812,-0.379176,0.795013
1629894744321,-0.536983,-0.251442,0.747738
1629894744331,-0.529846,-0.206851,0.759938
1629894744341,-0.508252,-0.175436,0.765245
1629894744350,-0.512888,-0.16836,0.792634
1629894744360,-0.590846,-0.24034,0.858758
1629894744369,-0.6430009999999999,-0.308904,0.888343
1629894744379,-0.639768,-0.331718,0.8626619999999999
1629894744389,-0.61244,-0.328912,0.8124589999999999
1629894744398,-0.590419,-0.309697,0.774151
1629894744408,-0.588406,-0.304573,0.746335
1629894744417,-0.584685,-0.302987,0.72102
1629894744427,-0.596336,-0.315065,0.711504
1629894744437,-0.597678,-0.330071,0.694058
1629894744446,-0.570777,-0.327509,0.658068
1629894744456,-0.537654,-0.318969,0.626287
1629894744465,-0.515145,-0.318237,0.606828
1629894744475,-0.503799,-0.324032,0.594994
1629894744485,-0.497455,-0.336354,0.582672
1629894744494,-0.490867,-0.347639,0.564555
1629894744504,-0.476105,-0.349835,0.541253
1629894744513,-0.463295,-0.348676,0.519293
1629894744523,-0.455609,-0.348798,0.498492
1629894744533,-0.450851,-0.350628,0.480863
1629894744542,-0.44834999999999997,-0.35861899999999997,0.468236
1629894744552,-0.449753,-0.368684,0.45884199999999997
1629894744561,-0.449021,-0.376614,0.448411
1629894744571,-0.453962,-0.382836,0.44286
1629894744581,-0.462014,-0.39039999999999997,0.440115
1629894744590,-0.47519,-0.401258,0.440237
1629894744600,-0.49471,-0.418216,0.445483
1629894744609,-0.524417,-0.440359,0.456341
1629894744619,-0.551989,-0.466101,0.465979
1629894744629,-0.575962,-0.48495,0.478301
1629894744638,-0.579866,-0.493368,0.478667
1629894744648,-0.5623589999999999,-0.498431,0.468785
1629894744657,-0.595116,-0.49349,0.494405
1629894744667,-0.613416,-0.50325,0.513498
1629894744677,-0.613355,-0.50569,0.5203909999999999
1629894744686,-0.610915,-0.50264,0.527589
1629894744696,-0.628117,-0.513742,0.543571
1629894744705,-0.666547,-0.545706,0.570228
1629894744715,-0.708027,-0.580842,0.594567
1629894744725,-0.728706,-0.60207,0.600728
1629894744734,-0.743346,-0.618113,0.610915
1629894744744,-0.788547,-0.648674,0.6426959999999999
1629894744753,-0.845765,-0.696193,0.671732
1629894744763,-0.876875,-0.725717,0.6813089999999999
1629894744773,-0.861991,-0.717604,0.673318
1629894744782,-0.82167,-0.684176,0.669902
1629894744792,-0.787876,-0.648979,0.688141
1629894744801,-0.834236,-0.663192,0.7634759999999999
1629894744811,-0.94611,-0.749019,0.846863
1629894744821,-0.952332,-0.7862899999999999,0.846619
1629894744830,-0.85827,-0.74725,0.787693
1629894744840,-0.770247,-0.705831,0.744749
1629894744849,-0.716506,-0.686067,0.731451
1629894744859,-0.592249,-0.62159,0.671
1629894744869,-0.42578,-0.532408,0.589565
1629894744878,-0.34721199999999997,-0.499285,0.572058
1629894744888,-0.42492599999999997,-0.570655,0.645258
1629894744897,-0.5374099999999999,-0.6828339999999999,0.733708
1629894744907,-0.556503,-0.7281569999999999,0.7628659999999999
1629894744917,-0.505324,-0.695583,0.748104
1629894744926,-0.47153,-0.661118,0.73749
1629894744936,-0.445788,-0.62769,0.726083
1629894744945,-0.432978,-0.610488,0.720288
1629894744955,-0.434869,-0.6110369999999999,0.720044
1629894744965,-0.44347,-0.61732,0.715347
1629894744974,-0.46616199999999997,-0.627873,0.713212
1629894744984,-0.49580799999999997,-0.640195,0.715896
1629894744993,-0.505507,-0.627751,0.706319
1629894745003,-0.49233099999999996,-0.580232,0.68381
1629894745013,-0.464088,-0.517829,0.654835
1629894745022,-0.444873,-0.46158699999999997,0.629825
1629894745032,-0.44042,-0.422486,0.611159
1629894745041,-0.445727,-0.40321,0.596824
1629894745051,-0.448716,-0.393023,0.573339
1629894745061,-0.444324,-0.382775,0.544303
1629894745070,-0.43694299999999997,-0.37002599999999997,0.5133759999999999
1629894745080,-0.43541799999999997,-0.358436,0.488122
1629894745089,-0.446642,-0.348615,0.47726399999999997
1629894745099,-0.460245,-0.34172199999999997,0.472445
1629894745109,-0.467931,-0.338062,0.465613
1629894745118,-0.466711,-0.330437,0.456951
1629894745128,-0.470249,-0.327814,0.454328
1629894745137,-0.48122899999999996,-0.331901,0.457012
1629894745147,-0.491172,-0.339831,0.45975699999999997
1629894745157,-0.500383,-0.35221399999999997,0.459635
1629894745166,-0.508862,-0.365634,0.46219699999999997
1629894745176,-0.52094,-0.3782,0.47092
1629894745185,-0.541253,-0.397415,0.488122
1629894745195,-0.561627,-0.420595,0.501054
1629894745205,-0.573827,-0.435662,0.510143
1629894745214,-0.580659,-0.440847,0.51484
1629894745224,-0.588955,-0.447008,0.517463
1629894745233,-0.601155,-0.458781,0.521245
1629894745243,-0.609939,-0.468724,0.5228309999999999
1629894745253,-0.644282,-0.494283,0.545828
1629894745262,-0.71187,-0.54961,0.5860879999999999
1629894745272,-0.757803,-0.598715,0.613538
1629894745281,-0.76128,-0.616344,0.6165269999999999
1629894745291,-0.754692,-0.610305,0.613355
1629894745301,-0.80093,-0.625921,0.645624
1629894745310,-0.871873,-0.674782,0.6858839999999999
1629894745320,-0.892857,-0.70577,0.69967
1629894745329,-0.856684,-0.69357,0.69845
1629894745339,-0.816363,-0.659349,0.71004
1629894745349,-0.845887,-0.669963,0.772199
1629894745358,-0.945195,-0.741638,0.854549
1629894745368,-1.000217,-0.789584,0.880352
1629894745377,-0.9709369999999999,-0.751947,0.844728
1629894745387,-0.917928,-0.674172,0.80032
1629894745397,-0.882792,-0.599813,0.777384
1629894745406,-0.8121539999999999,-0.514474,0.7330369999999999
1629894745416,-0.6861889999999999,-0.387045,0.672647
1629894745425,-0.605852,-0.28194199999999997,0.650687
1629894745435,-0.5964579999999999,-0.236375,0.667096
1629894745445,-0.633973,-0.247538,0.705831
1629894745454,-0.699487,-0.30439,0.755302
1629894745464,-0.74847,-0.36758599999999997,0.782142
1629894745473,-0.745725,-0.388448,0.775981
1629894745483,-0.729621,-0.385886,0.751642
1629894745493,-0.70394,-0.36575599999999997,0.719678
1629894745502,-0.679296,-0.340258,0.688507
1629894745512,-0.6700849999999999,-0.324154,0.671183
1629894745521,-0.680272,-0.332633,0.667767
1629894745531,-0.685701,-0.350262,0.656421
1629894745541,-0.669902,-0.355508,0.63562
1629894745550,-0.6362909999999999,-0.349774,0.607377
1629894745560,-0.59963,-0.339343,0.586942
1629894745569,-0.575962,-0.34099,0.57767
1629894745579,-0.553026,-0.351177,0.564921
1629894745589,-0.534665,-0.365512,0.549122
1629894745598,-0.519903,-0.37777299999999997,0.530822
1629894745608,-0.504287,-0.377956,0.507581
1629894745617,-0.486658,-0.370819,0.480375
1629894745627,-0.474092,-0.362767,0.46097699999999997
1629894745637,-0.46726,-0.35929,0.448472
1629894745646,-0.465613,-0.362157,0.441701
1629894745656,-0.469151,-0.369782,0.440664
1629894745665,-0.47512899999999997,-0.382836,0.441701
1629894745675,-0.47909399999999996,-0.393694,0.443836
1629894745685,-0.481961,-0.399916,0.445666
1629894745694,-0.480253,-0.40199,0.445056
1629894745704,-0.481473,-0.400404,0.444629
1629894745713,-0.49166,-0.40565,0.450302
1629894745723,-0.505751,-0.42022899999999996,0.455914
1629894745733,-0.524844,-0.435174,0.464881
1629894745742,-0.542229,-0.446886,0.475312
1629894745752,-0.560895,-0.458415,0.488244
1629894745761,-0.586271,-0.47275,0.504653
1629894745771,-0.605974,-0.487207,0.520818
1629894745781,-0.6186619999999999,-0.49580799999999997,0.527467
1629894745790,-0.627995,-0.498492,0.529724
1629894745800,-0.6603249999999999,-0.516914,0.544059
1629894745809,-0.7102229999999999,-0.550403,0.565287
1629894745819,-0.7336469999999999,-0.567422,0.571265
1629894745829,-0.742004,-0.571448,0.573156
1629894745838,-0.7817149999999999,-0.605608,0.600362
1629894745848,-0.852353,-0.667279,0.648125
1629894745857,-0.907253,-0.714127,0.68137
1629894745867,-0.910181,-0.721203,0.68564
1629894745877,-0.877485,-0.697413,0.678442
1629894745886,-0.836981,-0.665937,0.683505
1629894745896,-0.832955,-0.651663,0.718824
1629894745905,-0.91744,-0.705892,0.792695
1629894745915,-0.989603,-0.766038,0.826367
1629894745925,-0.9624579999999999,-0.776774,0.801967
1629894745934,-0.887733,-0.759328,0.766465
1629894745944,-0.83387,-0.760182,0.76006
1629894745953,-0.774517,-0.756034,0.744078
1629894745963,-0.651297,-0.701622,0.690642
1629894745973,-0.502091,-0.627934,0.623847
1629894745982,-0.404003,-0.576084,0.584502
1629894745992,-0.417911,-0.596214,0.598654
1629894746001,-0.510936,-0.679906,0.645624
1629894746011,-0.5684589999999999,-0.746152,0.663741
1629894746021,-0.5687639999999999,-0.762012,0.653676
1629894746030,-0.538569,-0.746945,0.633058
1629894746040,-0.496601,-0.7071729999999999,0.610671
1629894746049,-0.470188,-0.669719,0.596214
1629894746059,-0.454572,-0.645319,0.582611
1629894746069,-0.454694,-0.6365959999999999,0.573034
1629894746078,-0.481717,-0.650382,0.5672389999999999
1629894746088,-0.50325,-0.663558,0.553331
1629894746097,-0.504592,-0.65453,0.525942
1629894746107,-0.488488,-0.6222,0.496357
1629894746117,-0.463356,-0.575901,0.469578
1629894746126,-0.44182299999999997,-0.524356,0.446703
1629894746136,-0.43432,-0.482388,0.431453
1629894746145,-0.435845,-0.4575,0.422974
1629894746155,-0.440176,-0.438529,0.418216
1629894746165,-0.43999299999999997,-0.427,0.408456
1629894746174,-0.441701,-0.419436,0.392901
1629894746184,-0.452132,-0.41961899999999996,0.37746799999999997
1629894746193,-0.46543,-0.422974,0.364719
1629894746203,-0.48000899999999996,-0.426512,0.357948
1629894746213,-0.490623,-0.430599,0.35404399999999997
1629894746222,-0.494771,-0.436821,0.350811
1629894746232,-0.494161,-0.442555,0.345504
1629894746241,-0.491782,-0.447008,0.340136
1629894746251,-0.492148,-0.450363,0.336476
1629894746261,-0.499102,-0.454267,0.337574
1629894746270,-0.513559,-0.466284,0.341234
1629894746280,-0.537227,-0.48775599999999997,0.350506
1629894746289,-0.563457,-0.513437,0.362035
1629894746299,-0.584624,-0.5364949999999999,0.370209
1629894746309,-0.603961,-0.559492,0.379725
1629894746318,-0.625616,-0.5860879999999999,0.394487
1629894746328,-0.6466,-0.614026,0.40321
1629894746337,-0.655018,-0.627812,0.39997699999999997
1629894746347,-0.665632,-0.630313,0.395829
1629894746357,-0.717299,-0.653127,0.41717899999999997
1629894746366,-0.818071,-0.715286,0.452376
1629894746376,-0.839726,-0.751398,0.456646
1629894746385,-0.8030039999999999,-0.748836,0.444385
1629894746395,-0.800076,-0.745664,0.449692
1629894746405,-0.860954,-0.777872,0.475983
1629894746414,-0.914451,-0.817522,0.496174
1629894746424,-0.91683,-0.834175,0.503494
1629894746433,-0.89182,-0.824415,0.521733
1629894746443,-0.920673,-0.8355779999999999,0.576145
1629894746453,-1.00589,-0.895419,0.637694
1629894746462,-1.051335,-0.942755,0.654774
1629894746472,-1.025959,-0.927932,0.627812
1629894746481,-0.966484,-0.858636,0.580842
1629894746491,-0.901946,-0.763842,0.546438
1629894746501,-0.821975,-0.65209,0.511119
1629894746510,-0.696986,-0.510936,0.482388
1629894746520,-0.604388,-0.386496,0.48562099999999997
1629894746529,-0.591029,-0.33031499999999997,0.527955
1629894746539,-0.6420859999999999,-0.34721199999999997,0.59231
1629894746549,-0.7296819999999999,-0.41138399999999997,0.661484
1629894746558,-0.813496,-0.490013,0.7090029999999999
1629894746568,-0.834236,-0.541924,0.713456
1629894746577,-0.804346,-0.544913,0.682956
1629894746587,-0.754753,-0.50996,0.645014
1629894746597,-0.726449,-0.469944,0.62098
1629894746606,-0.7138829999999999,-0.43859,0.602985
1629894746616,-0.7163229999999999,-0.424255,0.587857
1629894746625,-0.720898,-0.421266,0.568642
1629894746635,-0.7076,-0.411933,0.5383249999999999
1629894746645,-0.672098,-0.39588999999999996,0.503433
1629894746654,-0.629459,-0.384422,0.474641
1629894746664,-0.597434,-0.38247,0.45505999999999996
1629894746673,-0.575657,-0.390339,0.439566
1629894746683,-0.561688,-0.40321,0.42334
1629894746693,-0.547109,-0.410713,0.40394199999999997
1629894746702,-0.532957,-0.407541,0.382775
1629894746712,-0.518683,-0.399428,0.362218
1629894746721,-0.508557,-0.393572,0.344589
1629894746731,-0.503067,-0.394243,0.333853
1629894746741,-0.507215,-0.4026,0.330498
1629894746750,-0.514718,-0.417301,0.333426
1629894746760,-0.525149,-0.435479,0.339343
1629894746769,-0.534177,-0.455487,0.346724
1629894746779,-0.538691,-0.468419,0.353251
1629894746789,-0.539423,-0.472628,0.360083
1629894746798,-0.541741,-0.471713,0.367037
1629894746808,-0.554307,-0.47458,0.373808
1629894746817,-0.569252,-0.484828,0.37881
1629894746827,-0.585417,-0.497211,0.38173799999999997
1629894746837,-0.590907,-0.500749,0.384788
1629894746846,-0.595665,-0.505263,0.38795999999999997
1629894746856,-0.606706,-0.514169,0.39253499999999997
1629894746865,-0.624823,-0.525332,0.40241699999999997
1629894746875,-0.639402,-0.530395,0.41565399999999997
1629894746885,-0.652639,-0.533262,0.42919599999999997
1629894746894,-0.683078,-0.553758,0.447313
1629894746904,-0.718275,-0.586332,0.457256
1629894746913,-0.728889,-0.602192,0.45597499999999996
1629894746923,-0.737734,-0.6101219999999999,0.459086
1629894746933,-0.793488,-0.659227,0.482632
1629894746942,-0.8763259999999999,-0.7400519999999999,0.51728
1629894746952,-0.9307989999999999,-0.800442,0.540582
1629894746961,-0.929091,-0.809958,0.552172
1629894746971,-0.893772,-0.778482,0.560041
1629894746981,-0.858819,-0.737673,0.580537
1629894746990,-0.8778509999999999,-0.7360869999999999,0.632814
1629894747000,-0.95465,-0.794708,0.681553
1629894747009,-0.988566,-0.850096,0.687775
1629894747019,-0.97295,-0.880047,0.675636
1629894747029,-0.9329339999999999,-0.9012749999999999,0.665388
1629894747038,-0.887489,-0.916464,0.659349
1629894747048,-0.8087989999999999,-0.904691,0.641903
1629894747057,-0.688812,-0.858026,0.608353
1629894747067,-0.547597,-0.785314,0.567971
1629894747077,-0.450668,-0.721508,0.551013
1629894747086,-0.469517,-0.74176,0.576938
1629894747096,-0.545218,-0.821426,0.602009
1629894747105,-0.559065,-0.855891,0.5909679999999999
1629894747115,-0.522953,-0.837042,0.566141
1629894747125,-0.47726399999999997,-0.803858,0.544974
1629894747134,-0.435845,-0.767075,0.532835
1629894747144,-0.40424699999999997,-0.733403,0.519232
1629894747153,-0.388692,-0.715286,0.504409
1629894747163,-0.40455199999999997,-0.718031,0.498431
1629894747173,-0.435357,-0.731451,0.491477
1629894747182,-0.44652,-0.718275,0.474275
1629894747192,-0.433161,-0.677954,0.446581
1629894747201,-0.407236,-0.626531,0.416691
1629894747211,-0.380762,-0.57584,0.393023
1629894747221,-0.364719,-0.532835,0.37533299999999997
1629894747230,-0.36453599999999997,-0.506483,0.36539
1629894747240,-0.373503,-0.490623,0.357948
1629894747249,-0.38051799999999997,-0.47787399999999997,0.347639
1629894747259,-0.383812,-0.469395,0.339099
1629894747269,-0.393694,-0.46402699999999997,0.334524
1629894747278,-0.40363699999999997,-0.46158699999999997,0.32939999999999997
1629894747288,-0.418338,-0.459086,0.326899
1629894747297,-0.433405,-0.460794,0.324642
1629894747307,-0.446642,-0.465125,0.326899
1629894747317,-0.462685,-0.468968,0.332572
1629894747326,-0.477935,-0.47824,0.340136
1629894747336,-0.497577,-0.490318,0.35258
1629894747345,-0.515572,-0.505202,0.36661
1629894747355,-0.529053,-0.520025,0.38143299999999997
1629894747365,-0.542107,-0.537532,0.395036
1629894747374,-0.560102,-0.559797,0.407724
1629894747384,-0.578036,-0.581086,0.416813
1629894747393,-0.598349,-0.601887,0.422059
1629894747403,-0.613721,-0.61915,0.42431599999999997
1629894747413,-0.621346,-0.631472,0.421022
1629894747422,-0.6168319999999999,-0.629703,0.412177
1629894747432,-0.6165269999999999,-0.62037,0.400465
1629894747441,-0.636657,-0.626226,0.40626
1629894747451,-0.704489,-0.670329,0.44743499999999997
1629894747461,-0.797758,-0.742126,0.489525
1629894747470,-0.808128,-0.775493,0.48861
1629894747480,-0.779336,-0.76799,0.475373
1629894747489,-0.80459,-0.781898,0.490745
1629894747499,-0.86437,-0.820633,0.517158
1629894747509,-0.890112,-0.838567,0.530151
1629894747518,-0.866688,-0.816607,0.536007
1629894747528,-0.839604,-0.790438,0.559797
1629894747537,-0.88694,-0.822097,0.6171369999999999
1629894747547,-0.961299,-0.890173,0.662338
1629894747557,-0.9767319999999999,-0.905972,0.658556
1629894747566,-0.933666,-0.852719,0.626653
1629894747576,-0.87413,-0.770247,0.594384
1629894747585,-0.83387,-0.689788,0.580598
1629894747595,-0.759572,-0.589809,0.550037
1629894747605,-0.647393,-0.455792,0.516182
1629894747614,-0.576755,-0.346785,0.5170359999999999
1629894747624,-0.587186,-0.313967,0.555527
1629894747633,-0.653798,-0.347578,0.6211019999999999
1629894747643,-0.754265,-0.42675599999999997,0.693936
1629894747653,-0.822097,-0.496052,0.731024
1629894747662,-0.816363,-0.517707,0.722118
1629894747672,-0.777384,-0.500139,0.690703
1629894747681,-0.747799,-0.469273,0.666547
1629894747691,-0.728523,-0.441701,0.649284
1629894747701,-0.720471,-0.421388,0.640134
1629894747710,-0.717787,-0.415471,0.634949
1629894747720,-0.696986,-0.412665,0.617198
1629894747729,-0.6581899999999999,-0.398513,0.5891379999999999
1629894747739,-0.6113419999999999,-0.37990799999999997,0.560346
1629894747749,-0.573522,-0.37027,0.5422899999999999
1629894747758,-0.547414,-0.37033099999999997,0.528809
1629894747768,-0.526979,-0.378749,0.512583
1629894747777,-0.5145959999999999,-0.390827,0.500383
1629894747787,-0.504348,-0.39558499999999996,0.488
1629894747797,-0.489952,-0.388448,0.471713
1629894747806,-0.477386,-0.377285,0.456646
1629894747816,-0.47360399999999997,-0.36972099999999997,0.449143
1629894747825,-0.47421399999999997,-0.370575,0.446398
1629894747835,-0.478606,-0.375028,0.45017999999999997
1629894747845,-0.475251,-0.383446,0.449082
1629894747854,-0.478423,-0.389302,0.453108
1629894747864,-0.480985,-0.399245,0.457561
1629894747873,-0.482449,-0.411018,0.458171
1629894747883,-0.48861,-0.416386,0.457256
1629894747893,-0.489342,-0.42273,0.45353499999999997
1629894747902,-0.49654,-0.426268,0.453596
1629894747912,-0.509106,-0.435662,0.456524
1629894747921,-0.523563,-0.447923,0.459391
1629894747931,-0.539423,-0.458354,0.466284
1629894747941,-0.559126,-0.466406,0.481351
1629894747950,-0.586149,-0.479826,0.5063
1629894747960,-0.60695,-0.49166,0.528687
1629894747969,-0.615978,-0.493002,0.540887
1629894747979,-0.631045,-0.496296,0.551074
1629894747989,-0.674294,-0.527833,0.576084
1629894747998,-0.728096,-0.575169,0.5958479999999999
1629894748008,-0.74359,-0.591517,0.595909
1629894748017,-0.772443,-0.610976,0.607255
1629894748027,-0.833016,-0.659593,0.641293
1629894748037,-0.891881,-0.710406,0.673135
1629894748046,-0.902373,-0.724253,0.678686
1629894748056,-0.876448,-0.7015,0.676368
1629894748065,-0.840946,-0.671183,0.683505
1629894748075,-0.816668,-0.654896,0.703147
1629894748085,-0.845277,-0.674477,0.7531059999999999
1629894748094,-0.94123,-0.743895,0.8155089999999999
1629894748104,-0.981978,-0.793122,0.81679
1629894748113,-0.933422,-0.799466,0.780007
1629894748123,-0.868701,-0.776957,0.748836
1629894748133,-0.793366,-0.764269,0.717787
1629894748142,-0.7050379999999999,-0.728584,0.675453
1629894748152,-0.571997,-0.659654,0.605608
1629894748161,-0.43816299999999997,-0.589382,0.548451
1629894748171,-0.41541,-0.590602,0.555832
1629894748181,-0.540948,-0.68686,0.622505
1629894748190,-0.6560549999999999,-0.791292,0.660508
1629894748200,-0.6655099999999999,-0.822036,0.6393409999999999
1629894748209,-0.616466,-0.799832,0.601887
1629894748219,-0.56364,-0.7662209999999999,0.56852
1629894748229,-0.53558,-0.7391369999999999,0.543998
1629894748238,-0.520757,-0.719434,0.518744
1629894748248,-0.509899,-0.707661,0.491965
1629894748257,-0.519293,-0.712114,0.472933
1629894748267,-0.537959,-0.720898,0.454206
1629894748277,-0.536861,-0.706746,0.430843
1629894748286,-0.506178,-0.663924,0.402234
1629894748296,-0.466101,-0.605242,0.3721
1629894748305,-0.433466,-0.549244,0.350323
1629894748315,-0.414373,-0.505751,0.33000999999999997
1629894748325,-0.410408,-0.477142,0.312076
1629894748334,-0.413153,-0.463478,0.296033
1629894748344,-0.412421,-0.453108,0.27938
1629894748353,-0.41138399999999997,-0.445544,0.26291
1629894748363,-0.413336,-0.441091,0.252723
1629894748373,-0.419192,-0.439017,0.245159
1629894748382,-0.42950099999999997,-0.435662,0.242536
1629894748392,-0.43816299999999997,-0.429867,0.243451
1629894748401,-0.449143,-0.42950099999999997,0.249612
1629894748411,-0.468968,-0.432795,0.262361
1629894748421,-0.49227,-0.448411,0.275232
1629894748430,-0.527528,-0.476776,0.291275
1629894748440,-0.568825,-0.509716,0.310856
1629894748449,-0.601399,-0.5410699999999999,0.329278
1629894748459,-0.621346,-0.5626639999999999,0.344833
1629894748469,-0.629154,-0.572302,0.360388
1629894748478,-0.628666,-0.573461,0.373991
1629894748488,-0.630496,-0.573034,0.38295799999999997
1629894748497,-0.654347,-0.575474,0.409249
1629894748507,-0.6652049999999999,-0.592737,0.413641
1629894748517,-0.693326,-0.607011,0.42639
1629894748526,-0.7126629999999999,-0.627385,0.428708
1629894748536,-0.745603,-0.652212,0.434564
1629894748545,-0.812703,-0.703696,0.448411
1629894748555,-0.84546,-0.73261,0.437736
1629894748565,-0.825696,-0.726754,0.415471
1629894748574,-0.821304,-0.724924,0.40638199999999997
1629894748584,-0.880413,-0.765062,0.416142
1629894748593,-0.945256,-0.81313,0.426634
1629894748603,-0.96014,-0.827404,0.430294
1629894748613,-0.925431,-0.80032,0.435662
1629894748622,-0.904203,-0.77348,0.459696
1629894748632,-0.964044,-0.808433,0.505873
1629894748641,-1.050603,-0.872544,0.542229
1629894748651,-1.076711,-0.894077,0.546926
1629894748661,-1.0477969999999999,-0.855525,0.534909
1629894748670,-1.006744,-0.787327,0.523014
1629894748680,-0.95465,-0.703574,0.507581
1629894748689,-0.856684,-0.584746,0.483669
1629894748699,-0.744078,-0.44987499999999997,0.46860199999999996
1629894748709,-0.673257,-0.346724,0.471591
1629894748718,-0.661118,-0.298778,0.490684
1629894748728,-0.714066,-0.317444,0.529419
1629894748737,-0.81923,-0.394731,0.576084
1629894748747,-0.908229,-0.487207,0.597007
1629894748757,-0.9317139999999999,-0.542839,0.5909679999999999
1629894748766,-0.8960899999999999,-0.551135,0.567422
1629894748776,-0.843142,-0.51911,0.541253
1629894748785,-0.800625,-0.475617,0.517097
1629894748795,-0.781532,-0.438041,0.496052
1629894748805,-0.782264,-0.422059,0.475861
1629894748814,-0.7792749999999999,-0.420839,0.453108
1629894748824,-0.753472,-0.41663,0.425109
1629894748833,-0.7093079999999999,-0.402234,0.398208
1629894748843,-0.664351,-0.388082,0.376614
1629894748853,-0.627812,-0.38552,0.361913
1629894748862,-0.60512,-0.390888,0.347639
1629894748872,-0.591822,-0.397781,0.331352
1629894748881,-0.576145,-0.400099,0.313357
1629894748891,-0.556869,-0.393389,0.29670399999999997
1629894748901,-0.537898,-0.380884,0.280905
1629894748910,-0.5237459999999999,-0.374052,0.267912
1629894748920,-0.515755,-0.374784,0.259006
1629894748929,-0.517158,-0.380884,0.254919
1629894748939,-0.522343,-0.395524,0.25638299999999997
1629894748949,-0.53497,-0.413092,0.261934
1629894748958,-0.548878,-0.431209,0.27205999999999997
1629894748968,-0.5632739999999999,-0.445544,0.284748
1629894748977,-0.577914,-0.462136,0.29487399999999997
1629894748987,-0.5946279999999999,-0.47763,0.302499
1629894748997,-0.61122,-0.487878,0.305183
1629894749006,-0.619089,-0.500017,0.306647
1629894749016,-0.6211019999999999,-0.506605,0.311039
1629894749025,-0.625799,-0.509167,0.321897
1629894749035,-0.642269,-0.5161209999999999,0.336537
1629894749045,-0.664168,-0.526918,0.355508
1629894749054,-0.681797,-0.540338,0.372222
1629894749064,-0.696864,-0.551318,0.388082
1629894749073,-0.7305969999999999,-0.576328,0.403515
1629894749083,-0.773358,-0.605974,0.411872
1629894749093,-0.7878149999999999,-0.6214069999999999,0.408639
1629894749102,-0.789096,-0.623359,0.411811
1629894749112,-0.828807,-0.651358,0.42822
1629894749121,-0.903288,-0.704306,0.447679
1629894749131,-0.968924,-0.7622559999999999,0.460794
1629894749141,-0.9894809999999999,-0.7917799999999999,0.469639
1629894749150,-0.967826,-0.788181,0.485682
1629894749160,-0.940254,-0.7671359999999999,0.519354
1629894749169,-0.969351,-0.777628,0.574315
1629894749179,-1.035109,-0.8258179999999999,0.6098169999999999
1629894749189,-1.059387,-0.87657,0.6165269999999999
1629894749198,-1.04066,-0.911096,0.609756
1629894749208,-1.007598,-0.93635,0.605547
1629894749217,-0.965081,-0.95221,0.5931029999999999
1629894749227,-0.873032,-0.936716,0.564372
1629894749237,-0.738649,-0.889868,0.52826
1629894749246,-0.590541,-0.825391,0.496296
1629894749256,-0.493673,-0.772931,0.487634
1629894749265,-0.492819,-0.786534,0.503189
1629894749275,-0.5480849999999999,-0.848266,0.517097
1629894749285,-0.579439,-0.883768,0.521794
1629894749294,-0.565165,-0.869311,0.5170359999999999
1629894749304,-0.517402,-0.831674,0.497272
1629894749313,-0.47604399999999997,-0.797148,0.47885
1629894749323,-0.44347,-0.770674,0.456463
1629894749333,-0.42523099999999997,-0.750788,0.430172
1629894749342,-0.434869,-0.742004,0.405101
1629894749352,-0.455853,-0.7312069999999999,0.377407
1629894749361,-0.467809,-0.707417,0.353068
1629894749371,-0.468968,-0.675148,0.331474
1629894749381,-0.45200999999999997,-0.624091,0.313723
1629894749390,-0.426329,-0.565653,0.302682
1629894749400,-0.404918,-0.517158,0.294691
1629894749409,-0.398757,-0.47885,0.290177
1629894749419,-0.400465,-0.452986,0.28407699999999997
1629894749429,-0.406504,-0.43663799999999997,0.274378
1629894749438,-0.410652,-0.424987,0.261934
1629894749448,-0.418338,-0.41595899999999997,0.252479
1629894749457,-0.432856,-0.414617,0.248636
1629894749467,-0.449814,-0.419436,0.245037
1629894749477,-0.466284,-0.42370599999999997,0.246257
1629894749486,-0.476471,-0.42309599999999997,0.246074
1629894749496,-0.48531599999999997,-0.424743,0.251076
1629894749505,-0.495564,-0.429684,0.262056
1629894749515,-0.512644,-0.44164,0.27511
1629894749525,-0.536434,-0.45811,0.289201
1629894749534,-0.5675439999999999,-0.481534,0.303048
1629894749544,-0.596214,-0.503738,0.311344
1629894749553,-0.6183569999999999,-0.525759,0.314577
1629894749563,-0.637999,-0.549183,0.31799299999999997
1629894749573,-0.6572749999999999,-0.57279,0.322751
1629894749582,-0.67222,-0.594506,0.327326
1629894749592,-0.679601,-0.608231,0.330193
1629894749601,-0.696559,-0.623969,0.33031499999999997
1629894749611,-0.739564,-0.661667,0.340258
1629894749621,-0.823744,-0.7309019999999999,0.358131
1629894749630,-0.8723,-0.791109,0.358375
1629894749640,-0.85827,-0.80947,0.344955
1629894749649,-0.842776,-0.808555,0.335622
1629894749659,-0.881084,-0.832101,0.343125
1629894749669,-0.9344589999999999,-0.8714459999999999,0.347639
1629894749678,-0.946781,-0.892796,0.345748
1629894749688,-0.92049,-0.88633,0.351848
1629894749697,-0.9046299999999999,-0.8754109999999999,0.37881
1629894749707,-0.96441,-0.917806,0.420473
1629894749717,-1.056642,-0.9910059999999999,0.439566
1629894749726,-1.090558,-1.017541,0.425414
1629894749736,-1.063596,-0.974353,0.39344999999999997
1629894749745,-1.012966,-0.885293,0.367464
1629894749755,-0.9490379999999999,-0.778421,0.34526
1629894749765,-0.840885,-0.638548,0.322385
1629894749774,-0.7137,-0.476837,0.317627
1629894749784,-0.650016,-0.360266,0.34233199999999997
1629894749793,-0.651724,-0.312076,0.390461
1629894749803,-0.700341,-0.31781,0.461221
1629894749813,-0.794342,-0.381372,0.536922
1629894749822,-0.889197,-0.474397,0.590785
1629894749832,-0.928725,-0.539972,0.60939
1629894749841,-0.933361,-0.563945,0.606584
1629894749851,-0.895419,-0.550891,0.578524
1629894749861,-0.86132,-0.510997,0.549854
1629894749870,-0.844606,-0.469273,0.529419
1629894749880,-0.829966,-0.451461,0.505446
1629894749889,-0.819718,-0.442494,0.486658
1629894749899,-0.80337,-0.432856,0.47146899999999997
1629894749909,-0.767075,-0.4209,0.449936
1629894749918,-0.723094,-0.411872,0.429318
1629894749928,-0.678015,-0.410225,0.413397
1629894749937,-0.6359859999999999,-0.410896,0.399794
1629894749947,-0.599752,-0.41107899999999997,0.386801
1629894749957,-0.570228,-0.406199,0.374662
1629894749966,-0.5413749999999999,-0.395341,0.35892399999999997
1629894749976,-0.5164259999999999,-0.38082299999999997,0.339221
1629894749985,-0.500932,-0.367403,0.320372
1629894749995,-0.489342,-0.362706,0.299266
1629894750005,-0.49172099999999996,-0.36697599999999997,0.28255199999999997
1629894750014,-0.499102,-0.386069,0.272182
1629894750024,-0.505385,-0.407114,0.266204
1629894750033,-0.512583,-0.430172,0.268949
1629894750043,-0.517463,-0.45200999999999997,0.274073
1629894750053,-0.524478,-0.463966,0.282491
1629894750062,-0.533872,-0.47641,0.290482
1629894750072,-0.550403,-0.486719,0.298107
1629894750081,-0.560956,-0.498187,0.301828
1629894750091,-0.570106,-0.508252,0.305854
1629894750101,-0.582123,-0.5234409999999999,0.312564
1629894750110,-0.598288,-0.5413749999999999,0.322385
1629894750120,-0.618418,-0.561688,0.338672
1629894750129,-0.6445259999999999,-0.578707,0.35929
1629894750139,-0.673257,-0.592737,0.380579
1629894750149,-0.714127,-0.6113419999999999,0.398635
1629894750158,-0.751825,-0.630496,0.409432
1629894750168,-0.768478,-0.638548,0.417545
1629894750177,-0.781959,-0.646844,0.43249
1629894750187,-0.825147,-0.677222,0.45994
1629894750197,-0.9031049999999999,-0.7348669999999999,0.486292
1629894750206,-0.968741,-0.787693,0.506544
1629894750216,-0.992653,-0.815936,0.524966
1629894750225,-0.97539,-0.820694,0.550586
1629894750235,-0.940864,-0.801296,0.581757
1629894750245,-0.929945,-0.781471,0.631228
1629894750254,-0.996435,-0.812398,0.680028
1629894750264,-1.044686,-0.8601,0.687592
1629894750273,-1.018883,-0.8793759999999999,0.666242
1629894750283,-0.94733,-0.87413,0.633302
1629894750293,-0.856745,-0.8544269999999999,0.599081
1629894750302,-0.750239,-0.818742,0.549671
1629894750312,-0.596641,-0.745664,0.487817
1629894750321,-0.451156,-0.677039,0.454938
1629894750331,-0.43127,-0.697169,0.472811
1629894750341,-0.544181,-0.815875,0.518988
1629894750350,-0.641415,-0.917318,0.548512
1629894750360,-0.653432,-0.940986,0.560041
1629894750369,-0.593347,-0.894931,0.551562
1629894750379,-0.519415,-0.833931,0.540582
1629894750389,-0.47512899999999997,-0.796965,0.528321
1629894750398,-0.446947,-0.780007,0.505202
1629894750408,-0.44365299999999996,-0.782813,0.47726399999999997
1629894750417,-0.46219699999999997,-0.7902549999999999,0.448228
1629894750427,-0.463783,-0.773785,0.413458
1629894750437,-0.454084,-0.73871,0.381494
1629894750446,-0.432124,-0.679235,0.351726
1629894750456,-0.402539,-0.611586,0.326167
1629894750465,-0.369843,-0.549122,0.30256
1629894750475,-0.350567,-0.501054,0.28621199999999997
1629894750485,-0.35197,-0.47390899999999997,0.273646
1629894750494,-0.366549,-0.461099,0.266082
1629894750504,-0.382165,-0.456158,0.26108
1629894750513,-0.387777,-0.445666,0.249673
1629894750523,-0.387838,-0.429562,0.248026
1629894750533,-0.39466999999999997,-0.420595,0.247721
1629894750542,-0.413641,-0.421693,0.246074
1629894750552,-0.435174,-0.424072,0.24912399999999998
1629894750561,-0.454694,-0.427915,0.254492
1629894750571,-0.470066,-0.433466,0.25803
1629894750581,-0.486292,-0.44408,0.268644
1629894750590,-0.515999,-0.466833,0.283101
1629894750600,-0.561505,-0.505385,0.29822899999999997
1629894750609,-0.606401,-0.549366,0.311405
1629894750619,-0.62952,-0.580171,0.323666
1629894750629,-0.639158,-0.598654,0.334158
1629894750638,-0.655323,-0.6180519999999999,0.339221
1629894750648,-0.662521,-0.626287,0.334402
1629894750657,-0.662704,-0.620553,0.326228
1629894750667,-0.696559,-0.633058,0.302255
1629894750677,-0.749568,-0.676368,0.311161
1629894750686,-0.833626,-0.757254,0.329156
1629894750696,-0.834907,-0.80093,0.343674
1629894750705,-0.786534,-0.786107,0.349408
1629894750715,-0.8174,-0.785924,0.332511
1629894750725,-0.9012749999999999,-0.848571,0.325252
1629894750734,-0.942999,-0.8979199999999999,0.341356
1629894750744,-0.918721,-0.89243,0.35075
1629894750753,-0.870958,-0.861686,0.352458
1629894750763,-0.860344,-0.8489369999999999,0.370514
1629894750773,-0.9465979999999999,-0.903471,0.393572
1629894750782,-1.04371,-0.990762,0.407663
1629894750792,-1.058655,-1.003694,0.411506
1629894750801,-1.021933,-0.944219,0.419436
1629894750811,-0.98637,-0.863211,0.42456
1629894750821,-0.968985,-0.790377,0.433588
1629894750830,-0.9195139999999999,-0.695339,0.44225
1629894750840,-0.823317,-0.5617489999999999,0.46177
1629894750849,-0.753533,-0.43968799999999997,0.475617
1629894750859,-0.707417,-0.349408,0.482388
1629894750869,-0.67771,-0.287615,0.493002
1629894750878,-0.723277,-0.289628,0.504226
1629894750888,-0.826916,-0.358802,0.522099
1629894750897,-0.905667,-0.434076,0.551623
1629894750907,-0.920551,-0.467504,0.579256
1629894750917,-0.899079,-0.475251,0.5857829999999999
1629894750926,-0.875167,-0.463173,0.583587
1629894750936,-0.8477169999999999,-0.437919,0.542351
1629894750945,-0.824354,-0.412787,0.517463
1629894750955,-0.805383,-0.398147,0.491538
1629894750965,-0.766404,-0.379359,0.47390899999999997
1629894750974,-0.71248,-0.359168,0.449448
1629894750984,-0.675209,-0.350567,0.430782
1629894750993,-0.632204,-0.351421,0.408761
1629894751003,-0.617076,-0.35678899999999997,0.387838
1629894751013,-0.594384,-0.363438,0.34721199999999997
1629894751022,-0.590724,-0.372039,0.325862
1629894751032,-0.572241,-0.367708,0.314028
1629894751041,-0.547597,-0.354227,0.302316
1629894751051,-0.524478,-0.334707,0.289201
1629894751061,-0.507093,-0.330132,0.28133199999999997
1629894751070,-0.523807,-0.33989199999999997,0.273219
1629894751080,-0.535763,-0.363377,0.260287
1629894751089,-0.5413749999999999,-0.388082,0.25681
1629894751099,-0.575291,-0.417911,0.253394
1629894751109,-0.5909679999999999,-0.44591,0.244854
1629894751118,-0.637084,-0.483364,0.235216
1629894751128,-0.643123,-0.506178,0.239913
1629894751137,-0.659532,-0.5124,0.25821299999999997
1629894751147,-0.672098,-0.519049,0.271694
1629894751157,-0.680821,-0.528992,0.279258
1629894751166,-0.678686,-0.531737,0.302743
1629894751176,-0.690398,-0.539911,0.30506099999999997
1629894751185,-0.688263,-0.551928,0.313418
1629894751195,-0.688385,-0.5617489999999999,0.323422
1629894751205,-0.7123579999999999,-0.578524,0.340868
1629894751214,-0.7640859999999999,-0.609878,0.37563799999999997
1629894751224,-0.786839,-0.63074,0.42151
1629894751233,-0.82472,-0.6794789999999999,0.461404
1629894751243,-0.8596119999999999,-0.710101,0.465918
1629894751253,-0.914024,-0.748531,0.485499
1629894751262,-0.978684,-0.8106289999999999,0.509777
1629894751272,-0.973499,-0.839909,0.541253
1629894751281,-0.926895,-0.818742,0.578158
1629894751291,-0.8894409999999999,-0.795806,0.636413
1629894751301,-0.945805,-0.808311,0.704184
1629894751310,-0.96685,-0.841068,0.7506659999999999
1629894751320,-0.933422,-0.86437,0.757498
1629894751329,-0.898774,-0.898469,0.719495
1629894751339,-0.8352729999999999,-0.923113,0.712724
1629894751349,-0.744871,-0.9176839999999999,0.720471
1629894751358,-0.575901,-0.844423,0.725961
1629894751368,-0.36362099999999997,-0.722301,0.706502
1629894751377,-0.210572,-0.637755,0.684908
1629894751387,-0.21716,-0.639158,0.686372
1629894751397,-0.291031,-0.7305969999999999,0.731024
1629894751406,-0.303231,-0.8164239999999999,0.779031
1629894751416,-0.271694,-0.794586,0.811117
1629894751425,-0.24034,-0.741516,0.817034
1629894751435,-0.251137,-0.686738,0.785314
1629894751445,-0.23308099999999998,-0.655628,0.7376119999999999
1629894751454,-0.25376,-0.642574,0.689117
1629894751464,-0.30963599999999997,-0.658312,0.671305
1629894751473,-0.37027,-0.673806,0.63684
1629894751483,-0.39375499999999997,-0.6636799999999999,0.589931
1629894751493,-0.40638199999999997,-0.630374,0.537288
1629894751502,-0.396988,-0.581391,0.481717
1629894751512,-0.381677,-0.5164259999999999,0.440481
1629894751521,-0.38186,-0.456829,0.42639
1629894751531,-0.419436,-0.42889099999999997,0.421693
1629894751541,-0.420168,-0.400404,0.388448
1629894751550,-0.424194,-0.3843,0.375516
1629894751560,-0.430782,-0.386313,0.379725
1629894751569,-0.43724799999999997,-0.382714,0.377712
1629894751579,-0.473665,-0.401929,0.350994
1629894751589,-0.423645,-0.370514,0.37594299999999997
1629894751598,-0.456951,-0.373381,0.38326299999999996
1629894751608,-0.478545,-0.36758599999999997,0.363438
1629894751617,-0.465308,-0.351482,0.34141699999999997
1629894751627,-0.47641,-0.363377,0.344284
1629894751637,-0.47848399999999996,-0.377102,0.36966
1629894751646,-0.517829,-0.414495,0.40150199999999997
1629894751656,-0.581574,-0.486658,0.425475
1629894751665,-0.650748,-0.5605289999999999,0.428769
1629894751675,-0.6609349999999999,-0.594811,0.41138399999999997
1629894751685,-0.656421,-0.601948,0.41297
1629894751694,-0.672464,-0.607194,0.423584
1629894751704,-0.668804,-0.611281,0.422974
1629894751713,-0.654408,-0.602985,0.428464
1629894751723,-0.670695,-0.61305,0.443714
1629894751733,-0.739991,-0.667889,0.489464
1629894751742,-0.824964,-0.787937,0.529419
1629894751752,-0.8245979999999999,-0.860466,0.540338
1629894751761,-0.7592059999999999,-0.8322229999999999,0.505202
1629894751771,-0.782386,-0.802272,0.47275
1629894751781,-0.867054,-0.831125,0.469944
1629894751790,-0.899018,-0.8544269999999999,0.482937
1629894751800,-0.879925,-0.844484,0.507642
1629894751809,-0.915061,-0.856684,0.541619
1629894751819,-0.989603,-0.925065,0.55876
1629894751829,-1.015345,-0.973621,0.562847
1629894751838,-0.983198,-0.946964,0.561566
1629894751848,-0.9225639999999999,-0.8553419999999999,0.5602239999999999
1629894751857,-0.8535119999999999,-0.743529,0.561932
1629894751867,-0.759145,-0.624152,0.565043
1629894751877,-0.625921,-0.477142,0.579622
1629894751886,-0.5164259999999999,-0.324337,0.608475
1629894751896,-0.539484,-0.280905,0.658861
1629894751905,-0.659288,-0.37746799999999997,0.730841
1629894751915,-0.736941,-0.48653599999999997,0.787083
1629894751925,-0.735538,-0.544364,0.820389
1629894751934,-0.71065,-0.55693,0.8331379999999999
1629894751944,-0.703696,-0.549488,0.82167
1629894751953,-0.702903,-0.5441199999999999,0.793122
1629894751963,-0.688385,-0.525576,0.7582909999999999
1629894751973,-0.68015,-0.497516,0.723521
1629894751982,-0.669597,-0.47390899999999997,0.685823
1629894751992,-0.648796,-0.46433199999999997,0.650809
1629894752001,-0.627873,-0.462014,0.612196
1629894752011,-0.599386,-0.458598,0.585905
1629894752021,-0.570106,-0.454633,0.562908
1629894752030,-0.544059,-0.442982,0.531493
1629894752040,-0.523258,-0.43493,0.498065
1629894752049,-0.498126,-0.421693,0.47573899999999997
1629894752059,-0.479338,-0.40089199999999997,0.442616
1629894752069,-0.46726,-0.376004,0.41663
1629894752078,-0.44090799999999997,-0.360937,0.376675
1629894752088,-0.42334,-0.353312,0.339526
1629894752097,-0.422303,-0.360388,0.313113
1629894752107,-0.42950099999999997,-0.373442,0.292556
1629894752117,-0.427427,-0.390644,0.26779
1629894752126,-0.435784,-0.408578,0.261385
1629894752136,-0.44347,-0.434869,0.26187299999999997
1629894752145,-0.459269,-0.450668,0.262727
1629894752155,-0.482754,-0.467809,0.264252
1629894752165,-0.515694,-0.489647,0.263398
1629894752174,-0.540826,-0.534116,0.281515
1629894752184,-0.552294,-0.570045,0.305854
1629894752193,-0.550525,-0.589626,0.335012
1629894752203,-0.56364,-0.6089019999999999,0.36234
1629894752213,-0.572302,-0.630191,0.37868799999999997
1629894752222,-0.61061,-0.636352,0.401929
1629894752232,-0.612318,-0.6691699999999999,0.406138
1629894752241,-0.720593,-0.698877,0.454572
1629894752251,-0.703879,-0.709796,0.46482
1629894752261,-0.636474,-0.675148,0.43737
1629894752270,-0.661728,-0.656421,0.439444
1629894752280,-0.763598,-0.720349,0.50203
1629894752289,-0.829417,-0.827282,0.58072
1629894752299,-0.8221579999999999,-0.877058,0.624518
1629894752309,-0.7783599999999999,-0.8626619999999999,0.652151
1629894752318,-0.735965,-0.82716,0.69784
1629894752328,-0.750178,-0.812337,0.790499
1629894752337,-0.833626,-0.8720559999999999,0.876875
1629894752347,-0.846619,-0.9240889999999999,0.8882209999999999
1629894752357,-0.7841549999999999,-0.9195139999999999,0.857538
1629894752366,-0.731756,-0.907314,0.832101
1629894752376,-0.702842,-0.927688,0.816607
1629894752385,-0.624945,-0.9234789999999999,0.764635
1629894752395,-0.456219,-0.84607,0.663802
1629894752405,-0.26931499999999997,-0.708271,0.564677
1629894752414,-0.19367499999999999,-0.623054,0.523929
1629894752424,-0.257542,-0.680882,0.561932
1629894752433,-0.340685,-0.8121539999999999,0.620858
1629894752443,-0.34648,-0.860771,0.644587
1629894752453,-0.345016,-0.853451,0.6408659999999999
1629894752462,-0.341966,-0.841312,0.62891
1629894752472,-0.340868,-0.820694,0.624396
1629894752481,-0.343918,-0.795379,0.621529
1629894752491,-0.340624,-0.7659159999999999,0.616771
1629894752501,-0.36423099999999997,-0.763598,0.618479
1629894752510,-0.40333199999999997,-0.782996,0.619699
1629894752520,-0.407053,-0.783362,0.612318
1629894752529,-0.393633,-0.754509,0.601582
1629894752539,-0.373198,-0.711687,0.581086
1629894752549,-0.34599199999999997,-0.655384,0.549244
1629894752558,-0.32970499999999997,-0.601521,0.52033
1629894752568,-0.323483,-0.564555,0.49898
1629894752577,-0.326533,-0.5383249999999999,0.481351
1629894752587,-0.330071,-0.524356,0.463905
1629894752597,-0.330498,-0.504714,0.439139
1629894752606,-0.328058,-0.49019599999999997,0.404308
1629894752616,-0.33611,-0.47238399999999997,0.380701
1629894752625,-0.350018,-0.460794,0.365817
1629894752635,-0.360083,-0.45688999999999996,0.350933
1629894752645,-0.377529,-0.45811,0.347273
1629894752654,-0.387472,-0.46829699999999996,0.33305999999999997
1629894752664,-0.400343,-0.47268899999999997,0.312808
1629894752673,-0.403576,-0.473848,0.304878
1629894752683,-0.405284,-0.474641,0.308599
1629894752693,-0.412482,-0.474946,0.312076
1629894752702,-0.42767099999999997,-0.482998,0.322812
1629894752712,-0.451766,-0.49794299999999997,0.335805
1629894752721,-0.49702799999999997,-0.528809,0.35343399999999997
1629894752731,-0.534238,-0.57523,0.363194
1629894752741,-0.5392399999999999,-0.580964,0.360022
1629894752750,-0.556808,-0.579378,0.356911
1629894752760,-0.608231,-0.608719,0.367647
1629894752769,-0.715774,-0.690642,0.40607699999999997
1629894752779,-0.788364,-0.791048,0.430599
1629894752789,-0.7534109999999999,-0.790377,0.413275
1629894752798,-0.744566,-0.747555,0.406321
1629894752808,-0.834419,-0.787327,0.433649
1629894752817,-0.924516,-0.865041,0.483059
1629894752827,-0.951905,-0.910181,0.507032
1629894752837,-0.9301889999999999,-0.910669,0.518622
1629894752846,-0.91988,-0.899872,0.538447
1629894752856,-0.978989,-0.93208,0.563457
1629894752865,-1.055117,-0.993568,0.582306
1629894752875,-1.065243,-1.007842,0.5863929999999999
1629894752885,-1.026264,-0.956785,0.5894429999999999
1629894752894,-0.979416,-0.8885259999999999,0.602192
1629894752904,-0.915976,-0.816302,0.621346
1629894752913,-0.809348,-0.713456,0.629459
1629894752923,-0.681797,-0.574864,0.640744
1629894752933,-0.585722,-0.46433199999999997,0.650504
1629894752942,-0.529419,-0.393938,0.658068
1629894752952,-0.541863,-0.379847,0.672037
1629894752961,-0.631594,-0.434625,0.696315
1629894752971,-0.701988,-0.517768,0.703757
1629894752981,-0.70028,-0.550769,0.675514
1629894752990,-0.6813089999999999,-0.540521,0.630435
1629894753000,-0.663009,-0.516487,0.597495
1629894753009,-0.64477,-0.491904,0.579988
1629894753019,-0.627995,-0.467748,0.5629689999999999
1629894753029,-0.6323259999999999,-0.45884199999999997,0.559431
1629894753038,-0.634583,-0.46585699999999997,0.553209
1629894753048,-0.615429,-0.466223,0.5386299999999999
1629894753057,-0.589504,-0.452864,0.522648
1629894753067,-0.569191,-0.441396,0.518927
1629894753077,-0.548634,-0.440115,0.51972
1629894753086,-0.528748,-0.440054,0.514047
1629894753096,-0.51423,-0.437736,0.5002
1629894753105,-0.509228,-0.424377,0.49105
1629894753115,-0.510692,-0.409066,0.482632
1629894753125,-0.49141599999999996,-0.398879,0.45048499999999997
1629894753134,-0.480985,-0.387106,0.4331
1629894753144,-0.48495,-0.383629,0.432673
1629894753153,-0.48806099999999997,-0.39283999999999997,0.428525
1629894753163,-0.496662,-0.410347,0.432917
1629894753173,-0.494344,-0.426695,0.427183
1629894753182,-0.5002,-0.441457,0.419131
1629894753192,-0.506544,-0.454938,0.407785
1629894753201,-0.5179509999999999,-0.462319,0.401014
1629894753211,-0.532957,-0.468541,0.394426
1629894753221,-0.53436,-0.475373,0.390461
1629894753230,-0.531188,-0.479582,0.396622
1629894753240,-0.509533,-0.473543,0.409432
1629894753249,-0.520147,-0.481168,0.427183
1629894753259,-0.533445,-0.494466,0.441335
1629894753269,-0.525515,-0.505324,0.4819
1629894753278,-0.532469,-0.508252,0.501054
1629894753288,-0.58743,-0.546194,0.522953
1629894753297,-0.674599,-0.623359,0.550708
1629894753307,-0.6803939999999999,-0.6445259999999999,0.5712039999999999
1629894753317,-0.634278,-0.600484,0.573156
1629894753326,-0.676185,-0.593286,0.588101
1629894753336,-0.794708,-0.662582,0.630252
1629894753345,-0.874313,-0.735843,0.669414
1629894753355,-0.887123,-0.754814,0.687836
1629894753365,-0.863516,-0.761524,0.702415
1629894753374,-0.856196,-0.759938,0.726876
1629894753384,-0.863943,-0.744627,0.7518859999999999
1629894753393,-0.917867,-0.75396,0.7905599999999999
1629894753403,-1.004426,-0.815448,0.827831
1629894753413,-0.96014,-0.82472,0.814228
1629894753422,-0.849303,-0.8136789999999999,0.762317
1629894753432,-0.800381,-0.815936,0.706929
1629894753441,-0.761707,-0.817644,0.690886
1629894753451,-0.629581,-0.773663,0.653798
1629894753461,-0.424804,-0.647698,0.584136
1629894753470,-0.289811,-0.554673,0.527345
1629894753480,-0.396988,-0.629154,0.572912
1629894753489,-0.530761,-0.790743,0.673989
1629894753499,-0.487878,-0.830271,0.71797
1629894753509,-0.392169,-0.777079,0.69174
1629894753518,-0.364109,-0.741089,0.6581899999999999
1629894753528,-0.366122,-0.755363,0.653188
1629894753537,-0.357216,-0.77287,0.639158
1629894753547,-0.349164,-0.748409,0.659654
1629894753557,-0.351726,-0.752984,0.651907
1629894753566,-0.362889,-0.77043,0.634095
1629894753576,-0.356606,-0.7616459999999999,0.611403
1629894753585,-0.329461,-0.731939,0.58011
1629894753595,-0.300242,-0.681858,0.546682
1629894753605,-0.29212899999999997,-0.621895,0.519903
1629894753614,-0.26900999999999997,-0.5795,0.484767
1629894753624,-0.26809499999999997,-0.541192,0.44347
1629894753633,-0.312747,-0.519659,0.438346
1629894753643,-0.33061999999999997,-0.513132,0.424438
1629894753653,-0.327448,-0.501359,0.398086
1629894753662,-0.31768799999999997,-0.469151,0.378932
1629894753672,-0.308599,-0.454694,0.364902
1629894753681,-0.32195799999999997,-0.45109499999999997,0.34416199999999997
1629894753691,-0.352336,-0.45627999999999996,0.327326
1629894753701,-0.37624799999999997,-0.46219699999999997,0.316102
1629894753710,-0.385825,-0.458476,0.310734
1629894753720,-0.401258,-0.449509,0.306464
1629894753729,-0.419497,-0.451949,0.310673
1629894753739,-0.438895,-0.467931,0.328546
1629894753749,-0.46665,-0.486475,0.345138
1629894753758,-0.48409599999999997,-0.505751,0.356362
1629894753768,-0.513437,-0.522404,0.371978
1629894753777,-0.56486,-0.558577,0.387899
1629894753787,-0.603839,-0.594079,0.399794
1629894753797,-0.611586,-0.609268,0.406138
1629894753806,-0.622139,-0.621712,0.410896
1629894753816,-0.671183,-0.660874,0.437614
1629894753825,-0.7829349999999999,-0.7412719999999999,0.465308
1629894753835,-0.810507,-0.794159,0.458476
1629894753845,-0.786107,-0.8005639999999999,0.48031399999999996
1629894753854,-0.7570709999999999,-0.772992,0.479216
1629894753864,-0.791536,-0.793305,0.500444
1629894753873,-0.8547319999999999,-0.8529019999999999,0.518683
1629894753883,-0.889807,-0.892247,0.5237459999999999
1629894753893,-0.867847,-0.893284,0.5149009999999999
1629894753902,-0.846131,-0.8781559999999999,0.524722
1629894753912,-0.884744,-0.918965,0.579134
1629894753921,-0.9475129999999999,-0.973316,0.63745
1629894753931,-0.956785,-0.977586,0.668072
1629894753941,-0.915244,-0.912987,0.676551
1629894753950,-0.86376,-0.823744,0.685518
1629894753960,-0.8030039999999999,-0.727608,0.6925939999999999
1629894753969,-0.685457,-0.583404,0.6803939999999999
1629894753979,-0.502213,-0.373198,0.659898
1629894753989,-0.37088,-0.19215,0.658312
1629894753998,-0.35258,-0.126148,0.695461
1629894754008,-0.427854,-0.183915,0.768722
1629894754017,-0.563762,-0.29639899999999997,0.860588
1629894754027,-0.672586,-0.417423,0.936655
1629894754037,-0.684481,-0.44834999999999997,0.968436
1629894754046,-0.654591,-0.43615,0.974048
1629894754056,-0.648674,-0.426268,0.953796
1629894754065,-0.6408659999999999,-0.40687,0.9222589999999999
1629894754075,-0.624335,-0.37807799999999997,0.887184
1629894754085,-0.63196,-0.372588,0.856684
1629894754094,-0.637938,-0.384727,0.824049
1629894754104,-0.608231,-0.38125,0.775859
1629894754113,-0.5675439999999999,-0.366488,0.72346
1629894754123,-0.533079,-0.35709399999999997,0.671366
1629894754133,-0.502335,-0.36606099999999997,0.625067
1629894754142,-0.485743,-0.37777299999999997,0.59231
1629894754152,-0.472018,-0.387594,0.561261
1629894754161,-0.458964,-0.388387,0.530578
1629894754171,-0.43981,-0.385154,0.498675
1629894754181,-0.42401099999999997,-0.382287,0.468663
1629894754190,-0.410835,-0.376065,0.44273799999999996
1629894754200,-0.399184,-0.36356,0.425963
1629894754209,-0.394548,-0.363804,0.41412899999999997
1629894754219,-0.400526,-0.382226,0.407541
1629894754229,-0.417118,-0.40077,0.406809
1629894754238,-0.426573,-0.42334,0.406504
1629894754248,-0.442189,-0.445422,0.404186
1629894754257,-0.46646699999999996,-0.471957,0.408273
1629894754267,-0.490379,-0.497699,0.410591
1629894754277,-0.505751,-0.527101,0.41870399999999997
1629894754286,-0.517707,-0.547231,0.425414
1629894754296,-0.522648,-0.554551,0.42950099999999997
1629894754305,-0.52765,-0.557723,0.437797
1629894754315,-0.530334,-0.551135,0.446703
1629894754325,-0.524234,-0.53436,0.46006199999999997
1629894754334,-0.527162,-0.531798,0.482937
1629894754344,-0.577243,-0.566568,0.531188
1629894754353,-0.67832,-0.659166,0.586637
1629894754363,-0.706685,-0.6907639999999999,0.5949329999999999
1629894754373,-0.690032,-0.6655099999999999,0.590297
1629894754382,-0.716079,-0.682773,0.60695
1629894754392,-0.809958,-0.75945,0.657397
1629894754401,-0.884744,-0.82777,0.6954
1629894754411,-0.8939549999999999,-0.839726,0.711809
1629894754421,-0.8583919999999999,-0.812703,0.715042
1629894754430,-0.81984,-0.768356,0.7309019999999999
1629894754440,-0.816241,-0.734928,0.775737
1629894754449,-0.8936499999999999,-0.782386,0.8297829999999999
1629894754459,-0.923845,-0.829722,0.835944
1629894754469,-0.862845,-0.811666,0.805688
1629894754478,-0.772931,-0.783301,0.764574
1629894754488,-0.7035129999999999,-0.772687,0.73383
1629894754497,-0.628056,-0.755729,0.68625
1629894754507,-0.472811,-0.672037,0.59658
1629894754517,-0.311161,-0.554307,0.528016
1629894754526,-0.326777,-0.5632739999999999,0.53009
1629894754536,-0.479155,-0.7385269999999999,0.582672
1629894754545,-0.553697,-0.864919,0.605852
1629894754555,-0.520269,-0.8614419999999999,0.601155
1629894754565,-0.462563,-0.8100189999999999,0.582794
1629894754574,-0.434076,-0.777872,0.576389
1629894754584,-0.42883,-0.781898,0.582184
1629894754593,-0.408517,-0.777079,0.578402
1629894754603,-0.396622,-0.765977,0.56425
1629894754613,-0.414007,-0.781166,0.544059
1629894754622,-0.428464,-0.792878,0.515145
1629894754632,-0.434137,-0.772748,0.481412
1629894754641,-0.417057,-0.726083,0.441335
1629894754651,-0.392901,-0.6606299999999999,0.400953
1629894754661,-0.352946,-0.600362,0.361181
1629894754670,-0.330132,-0.540094,0.329888
1629894754680,-0.35441,-0.499224,0.332023
1629894754689,-0.36234,-0.482327,0.312625
1629894754699,-0.370514,-0.463905,0.29646
1629894754709,-0.364475,-0.446276,0.275415
1629894754718,-0.363804,-0.428708,0.253455
1629894754728,-0.377834,-0.423584,0.239913
1629894754737,-0.397232,-0.429684,0.23460599999999998
1629894754747,-0.424133,-0.432978,0.247843
1629894754757,-0.445483,-0.440176,0.26034799999999997
1629894754766,-0.463173,-0.44895999999999997,0.274256
1629894754776,-0.491843,-0.465186,0.296643
1629894754785,-0.517829,-0.48684099999999997,0.313723
1629894754795,-0.548634,-0.510082,0.324886
1629894754805,-0.575474,-0.526369,0.332633
1629894754814,-0.593042,-0.536312,0.334341
1629894754824,-0.615795,-0.554795,0.334341
1629894754833,-0.64416,-0.585905,0.33092499999999997
1629894754843,-0.652761,-0.616283,0.325191
1629894754853,-0.674782,-0.621712,0.328546
1629894754862,-0.702903,-0.644343,0.33916
1629894754872,-0.775859,-0.7187629999999999,0.36819599999999997
1629894754881,-0.853146,-0.8091039999999999,0.384544
1629894754891,-0.831674,-0.838506,0.38308
1629894754901,-0.780129,-0.800198,0.372039
1629894754910,-0.80337,-0.801662,0.370697
1629894754920,-0.879498,-0.858331,0.383446
1629894754929,-0.922991,-0.902129,0.40394199999999997
1629894754939,-0.910669,-0.8951749999999999,0.420107
1629894754949,-0.8744959999999999,-0.864858,0.445117
1629894754958,-0.89121,-0.872117,0.49141599999999996
1629894754968,-0.985089,-0.956602,0.5361899999999999
1629894754977,-1.041026,-1.017053,0.562298
1629894754987,-1.015772,-0.977281,0.568947
1629894754997,-0.960567,-0.883524,0.562786
1629894755006,-0.92171,-0.798856,0.5678489999999999
1629894755016,-0.875655,-0.71065,0.568581
1629894755025,-0.795074,-0.593347,0.551562
1629894755035,-0.694546,-0.430538,0.57706
1629894755045,-0.657214,-0.349103,0.582733
1629894755054,-0.647515,-0.313174,0.588406
1629894755064,-0.692106,-0.335988,0.613294
1629894755073,-0.7859849999999999,-0.40516199999999997,0.641415
1629894755083,-0.866566,-0.481961,0.649955
1629894755093,-0.896883,-0.5364949999999999,0.648857
1629894755102,-0.873398,-0.546194,0.637999
1629894755112,-0.825879,-0.524478,0.618723
1629894755121,-0.767624,-0.489525,0.594262
1629894755131,-0.728035,-0.457805,0.577365
1629894755141,-0.7181529999999999,-0.445422,0.5705939999999999
1629894755150,-0.714371,-0.445056,0.554734
1629894755160,-0.6880189999999999,-0.439871,0.522892
1629894755169,-0.648796,-0.431148,0.49227
1629894755179,-0.607194,-0.42639,0.46494199999999997
1629894755189,-0.5663239999999999,-0.419131,0.44347
1629894755198,-0.530944,-0.414312,0.421815
1629894755208,-0.510265,-0.41626399999999997,0.40211199999999997
1629894755217,-0.492453,-0.42456,0.378749
1629894755227,-0.477508,-0.420473,0.347944
1629894755237,-0.45627999999999996,-0.410957,0.315065
1629894755246,-0.437309,-0.397842,0.28487
1629894755256,-0.423645,-0.392901,0.257054
1629894755265,-0.41870399999999997,-0.399855,0.237595
1629894755275,-0.420595,-0.413885,0.227408
1629894755285,-0.435662,-0.436577,0.22972599999999999
1629894755294,-0.461465,-0.471652,0.241987
1629894755304,-0.500688,-0.516792,0.252357
1629894755313,-0.543449,-0.563762,0.262788
1629894755323,-0.576694,-0.598959,0.268278
1629894755333,-0.590541,-0.6174419999999999,0.267546
1629894755342,-0.589321,-0.621224,0.265045
1629894755352,-0.590785,-0.623176,0.264862
1629894755361,-0.603534,-0.629032,0.269071
1629894755371,-0.608414,-0.634827,0.28163699999999997
1629894755381,-0.606889,-0.634278,0.300181
1629894755390,-0.608048,-0.63745,0.322019
1629894755400,-0.635559,-0.655689,0.360205
1629894755409,-0.692167,-0.7041229999999999,0.401746
1629894755419,-0.715896,-0.729804,0.430294
1629894755429,-0.696681,-0.70699,0.45322999999999997
1629894755438,-0.706624,-0.7076,0.465003
1629894755448,-0.787693,-0.780312,0.479948
1629894755457,-0.867969,-0.869616,0.500993
1629894755467,-0.879498,-0.914878,0.532164
1629894755477,-0.851255,-0.901946,0.5687639999999999
1629894755486,-0.865529,-0.906643,0.607072
1629894755496,-0.9225639999999999,-0.94062,0.632692
1629894755505,-0.94672,-0.963556,0.6466
1629894755515,-0.937265,-0.986675,0.651846
1629894755525,-0.891393,-1.009245,0.664717
1629894755534,-0.830515,-1.013271,0.67954
1629894755544,-0.7354769999999999,-0.977159,0.675514
1629894755553,-0.590724,-0.8939549999999999,0.653554
1629894755563,-0.414617,-0.7759199999999999,0.621224
1629894755573,-0.29707,-0.676673,0.601826
1629894755582,-0.28426,-0.670634,0.61305
1629894755592,-0.362035,-0.757315,0.65026
1629894755601,-0.40382,-0.827465,0.678137
1629894755611,-0.404186,-0.8174,0.683566
1629894755621,-0.37929799999999997,-0.771467,0.668072
1629894755630,-0.364475,-0.725717,0.659654
1629894755640,-0.330986,-0.708515,0.638487
1629894755649,-0.343491,-0.682041,0.63867
1629894755659,-0.36905,-0.684786,0.638853
1629894755669,-0.396805,-0.703147,0.623542
1629894755678,-0.41053,-0.695522,0.5978
1629894755688,-0.400404,-0.672586,0.555283
1629894755697,-0.393694,-0.6207969999999999,0.5139859999999999
1629894755707,-0.390644,-0.557296,0.487634
1629894755717,-0.387472,-0.508435,0.46665
1629894755726,-0.385886,-0.471713,0.445849
1629894755736,-0.395402,-0.450607,0.42828099999999997
1629894755745,-0.40638199999999997,-0.442799,0.410591
1629894755755,-0.411567,-0.440176,0.391376
1629894755765,-0.416142,-0.437065,0.373015
1629894755774,-0.425902,-0.437492,0.362035
1629894755784,-0.43541799999999997,-0.443714,0.353312
1629894755793,-0.443714,-0.455853,0.349286
1629894755803,-0.44395799999999996,-0.463661,0.349713
1629894755813,-0.441152,-0.46421,0.351543
1629894755822,-0.442311,-0.462563,0.35953399999999996
1629894755832,-0.451339,-0.46726,0.371124
1629894755841,-0.444324,-0.472262,0.371917
1629894755851,-0.447984,-0.479582,0.375577
1629894755861,-0.459696,-0.504348,0.37746799999999997
1629894755870,-0.475251,-0.5225259999999999,0.395463
1629894755880,-0.49550299999999997,-0.551135,0.412726
1629894755889,-0.523929,-0.590846,0.421937
1629894755899,-0.544059,-0.623847,0.41687399999999997
1629894755909,-0.535214,-0.627934,0.394487
1629894755918,-0.546621,-0.643245,0.386069
1629894755928,-0.602924,-0.701012,0.412848
1629894755937,-0.716384,-0.808616,0.477935
1629894755947,-0.767319,-0.8866959999999999,0.501481
1629894755957,-0.721203,-0.884439,0.476898
1629894755966,-0.690276,-0.860954,0.46433199999999997
1629894755976,-0.747433,-0.897432,0.493429
1629894755985,-0.80276,-0.9455,0.52704
1629894755995,-0.796111,-0.948916,0.537959
1629894756005,-0.756522,-0.913963,0.543876
1629894756014,-0.735843,-0.898774,0.570838
1629894756024,-0.805688,-0.946415,0.628544
1629894756033,-0.900604,-1.028399,0.670695
1629894756043,-0.907009,-1.044198,0.671732
1629894756053,-0.845094,-0.9675819999999999,0.649345
1629894756062,-0.773785,-0.857538,0.640195
1629894756072,-0.709064,-0.752862,0.64233
1629894756081,-0.6186619999999999,-0.642574,0.626287
1629894756091,-0.503067,-0.50752,0.602863
1629894756101,-0.46787,-0.42340099999999997,0.615429
1629894756110,-0.509838,-0.407785,0.652578
1629894756120,-0.580354,-0.434381,0.705831
1629894756129,-0.667279,-0.499529,0.774151
1629894756139,-0.719129,-0.563762,0.820938
1629894756149,-0.721752,-0.595177,0.82716
1629894756158,-0.699914,-0.5958479999999999,0.80093
1629894756168,-0.671915,-0.581086,0.7592059999999999
1629894756177,-0.6581899999999999,-0.57584,0.71553
1629894756187,-0.646417,-0.569801,0.680821
1629894756197,-0.638853,-0.575657,0.6642899999999999
1629894756206,-0.622505,-0.585356,0.6433059999999999
1629894756216,-0.580903,-0.573339,0.609756
1629894756225,-0.527833,-0.5471699999999999,0.575779
1629894756235,-0.48440099999999997,-0.521367,0.545462
1629894756245,-0.451461,-0.50264,0.5231359999999999
1629894756254,-0.419558,-0.486597,0.501298
1629894756264,-0.3965,-0.4758,0.477142
1629894756273,-0.374906,-0.467809,0.451156
1629894756283,-0.35190899999999997,-0.454389,0.42340099999999997
1629894756293,-0.334463,-0.440237,0.39967199999999997
1629894756302,-0.326533,-0.436089,0.38552
1629894756312,-0.32635,-0.444507,0.383385
1629894756321,-0.33611,-0.461831,0.393023
1629894756331,-0.3416,-0.47885,0.412787
1629894756341,-0.340868,-0.488915,0.428403
1629894756350,-0.349042,-0.50691,0.42614599999999997
1629894756360,-0.368379,-0.515572,0.434076
1629894756369,-0.381311,-0.521794,0.43816299999999997
1629894756379,-0.40119699999999997,-0.533811,0.430172
1629894756389,-0.433893,-0.558455,0.411201
1629894756398,-0.45975699999999997,-0.583404,0.39192499999999997
1629894756408,-0.468785,-0.59719,0.390156
1629894756417,-0.462014,-0.591761,0.408944
1629894756427,-0.447984,-0.582184,0.436272
1629894756437,-0.43194099999999996,-0.565287,0.458476
1629894756446,-0.436455,-0.541558,0.475922
1629894756456,-0.482998,-0.560468,0.520147
1629894756465,-0.5715089999999999,-0.639097,0.594994
1629894756475,-0.60146,-0.661484,0.639219
1629894756485,-0.578768,-0.62037,0.651724
1629894756494,-0.632387,-0.655079,0.693082
1629894756504,-0.755119,-0.771589,0.763354
1629894756513,-0.81252,-0.845582,0.7896449999999999
1629894756523,-0.779153,-0.834236,0.760304
1629894756533,-0.7172379999999999,-0.797087,0.720837
1629894756542,-0.714859,-0.804102,0.7370019999999999
1629894756552,-0.812215,-0.897859,0.812215
1629894756561,-0.8550369999999999,-0.961909,0.837225
1629894756571,-0.79971,-0.9301889999999999,0.795379
1629894756581,-0.721508,-0.882975,0.746274
1629894756590,-0.645258,-0.851438,0.724436
1629894756600,-0.579561,-0.827404,0.71004
1629894756609,-0.458415,-0.760243,0.660752
1629894756619,-0.290116,-0.638182,0.5967629999999999
1629894756629,-0.263215,-0.611769,0.61061
1629894756638,-0.39283999999999997,-0.730414,0.7050379999999999
1629894756648,-0.462136,-0.81557,0.773846
1629894756657,-0.43011099999999997,-0.797453,0.784033
1629894756667,-0.398208,-0.77165,0.7756149999999999
1629894756677,-0.39100999999999997,-0.764025,0.767929
1629894756686,-0.392291,-0.776286,0.76372
1629894756696,-0.381494,-0.774395,0.748653
1629894756705,-0.380274,-0.773907,0.725656
1629894756715,-0.39967199999999997,-0.793427,0.69967
1629894756725,-0.40992,-0.796233,0.659471
1629894756734,-0.390827,-0.763598,0.6113419999999999
1629894756744,-0.368989,-0.717116,0.568947
1629894756753,-0.355752,-0.67161,0.527711
1629894756763,-0.343491,-0.620248,0.487573
1629894756773,-0.33122999999999997,-0.564677,0.447984
1629894756782,-0.330742,-0.5225259999999999,0.42151
1629894756792,-0.341661,-0.500566,0.41053
1629894756801,-0.342088,-0.491965,0.40333199999999997
1629894756811,-0.341356,-0.480558,0.393328
1629894756821,-0.348493,-0.47397,0.38978999999999997
1629894756830,-0.34629699999999997,-0.46341699999999997,0.393694
1629894756840,-0.340319,-0.436516,0.39833
1629894756849,-0.348798,-0.423523,0.391376
1629894756859,-0.365024,-0.423767,0.384849
1629894756869,-0.373747,-0.420839,0.37698
1629894756878,-0.383324,-0.423462,0.363682
1629894756888,-0.395524,-0.433039,0.354776
1629894756897,-0.40607699999999997,-0.43663799999999997,0.35014
1629894756907,-0.413397,-0.44103,0.34892
1629894756917,-0.425353,-0.450912,0.35709399999999997
1629894756926,-0.434137,-0.46238,0.372039
1629894756936,-0.438712,-0.46677199999999996,0.390461
1629894756945,-0.469456,-0.499407,0.425292
1629894756955,-0.510814,-0.547231,0.459696
1629894756965,-0.536434,-0.574193,0.481961
1629894756974,-0.57035,-0.609024,0.503372
1629894756984,-0.633058,-0.6676449999999999,0.544791
1629894756993,-0.681858,-0.7394419999999999,0.57523
1629894757003,-0.680211,-0.76738,0.5681539999999999
1629894757013,-0.674416,-0.770674,0.552111
1629894757022,-0.725412,-0.8094089999999999,0.574193
1629894757032,-0.8036139999999999,-0.881572,0.6153069999999999
1629894757041,-0.8331379999999999,-0.915915,0.631167
1629894757051,-0.809653,-0.9067649999999999,0.621651
1629894757061,-0.768112,-0.896639,0.6143919999999999
1629894757070,-0.751093,-0.890417,0.624762
1629894757080,-0.741638,-0.892064,0.6362909999999999
1629894757089,-0.7911699999999999,-0.923723,0.68625
1629894757099,-0.906338,-1.026264,0.768661
1629894757109,-0.909754,-1.020835,0.765428
1629894757118,-0.824964,-0.908351,0.717909
1629894757128,-0.764818,-0.806725,0.692228
1629894757137,-0.73139,-0.73627,0.705587
1629894757147,-0.701073,-0.679052,0.716445
1629894757157,-0.597922,-0.552904,0.682346
1629894757166,-0.5133759999999999,-0.428708,0.650809
1629894757176,-0.512278,-0.38948499999999997,0.6636799999999999
1629894757185,-0.544547,-0.389607,0.701866
1629894757195,-0.578951,-0.3965,0.755668
1629894757205,-0.625799,-0.425292,0.809592
1629894757214,-0.648064,-0.443531,0.8273429999999999
1629894757224,-0.651907,-0.459208,0.807091
1629894757233,-0.639707,-0.462136,0.767563
1629894757243,-0.621895,-0.45933,0.730841
1629894757253,-0.623664,-0.471835,0.704062
1629894757262,-0.617198,-0.474458,0.6898489999999999
1629894757272,-0.615246,-0.482754,0.6858839999999999
1629894757281,-0.595055,-0.480131,0.672586
1629894757291,-0.549976,-0.46128199999999997,0.646661
1629894757301,-0.508618,-0.44591,0.62464
1629894757310,-0.485804,-0.447801,0.614026
1629894757320,-0.457988,-0.44682499999999997,0.600118
1629894757329,-0.424255,-0.435845,0.583526
1629894757339,-0.401319,-0.42523099999999997,0.563152
1629894757349,-0.379115,-0.414556,0.540277
1629894757358,-0.357948,-0.40504,0.517463
1629894757368,-0.344223,-0.400648,0.497272
1629894757377,-0.340258,-0.402051,0.48617
1629894757387,-0.34385699999999997,-0.40760199999999996,0.481778
1629894757397,-0.350933,-0.421876,0.483669
1629894757406,-0.352336,-0.431575,0.487268
1629894757416,-0.354715,-0.441884,0.494954
1629894757425,-0.360083,-0.4575,0.503616
1629894757435,-0.368379,-0.468358,0.505324
1629894757445,-0.380274,-0.479033,0.501908
1629894757454,-0.402173,-0.493734,0.508313
1629894757464,-0.42334,-0.52094,0.518744
1629894757473,-0.432917,-0.5435099999999999,0.52399
1629894757483,-0.435174,-0.543083,0.525515
1629894757493,-0.425719,-0.533628,0.52216
1629894757502,-0.43846799999999997,-0.535641,0.531005
1629894757512,-0.45933,-0.540216,0.548634
1629894757521,-0.453901,-0.537532,0.550647
1629894757531,-0.470554,-0.526003,0.567056
1629894757541,-0.525698,-0.557601,0.6171369999999999
1629894757550,-0.5839529999999999,-0.609451,0.663497
1629894757560,-0.578707,-0.600057,0.6670349999999999
1629894757569,-0.57279,-0.585295,0.670939
1629894757579,-0.6344,-0.6396459999999999,0.725595
1629894757589,-0.7137,-0.736636,0.793976
1629894757598,-0.751764,-0.793305,0.833382
1629894757608,-0.72773,-0.787083,0.821731
1629894757617,-0.685518,-0.757315,0.791963
1629894757627,-0.663192,-0.744322,0.7789699999999999
1629894757637,-0.7172379999999999,-0.783606,0.824049
1629894757646,-0.8106289999999999,-0.870897,0.896029
1629894757656,-0.801296,-0.8860859999999999,0.8997499999999999
1629894757665,-0.708332,-0.832101,0.850218
1629894757675,-0.61244,-0.783484,0.8109339999999999
1629894757685,-0.549366,-0.7604259999999999,0.797941
1629894757694,-0.452132,-0.7068679999999999,0.74115
1629894757704,-0.28487,-0.596702,0.6430009999999999
1629894757713,-0.184586,-0.529541,0.603839
1629894757723,-0.254492,-0.6204919999999999,0.694485
1629894757733,-0.409798,-0.783606,0.818315
1629894757742,-0.416935,-0.817644,0.850645
1629894757752,-0.355081,-0.7771399999999999,0.82472
1629894757761,-0.320494,-0.754143,0.805017
1629894757771,-0.312076,-0.757132,0.801357
1629894757781,-0.318176,-0.774151,0.79361
1629894757790,-0.311649,-0.777079,0.76799
