timestamp,ax,ay,az
1629894748597,-0.140178,1.063352,-0.7278519999999999
1629894748606,-0.12139,1.069391,-0.653554
1629894748616,-0.112789,1.1718709999999999,-0.684908
1629894748626,-0.112301,1.281976,-0.783179
1629894748635,-0.11962099999999999,1.282464,-0.805383
1629894748645,-0.117486,1.243302,-0.791231
1629894748654,-0.090707,1.239276,-0.815448
1629894748664,-0.058804,1.24623,-0.85339
1629894748674,-0.015982,1.157963,-0.80581
1629894748683,0.042212,1.007049,-0.675331
1629894748693,0.09881999999999999,0.933788,-0.600545
1629894748702,0.15237799999999999,0.912621,-0.598898
1629894748712,0.189771,0.839116,-0.538447
1629894748722,0.202947,0.828807,-0.494405
1629894748731,0.21215799999999999,0.906826,-0.550708
1629894748741,0.207278,0.931836,-0.575474
1629894748750,0.181292,0.898469,-0.5374099999999999
1629894748760,0.171349,0.835334,-0.481534
1629894748770,0.166408,0.785314,-0.444446
1629894748779,0.165371,0.777628,-0.450851
1629894748789,0.167567,0.776286,-0.471957
1629894748798,0.15677,0.778299,-0.488427
1629894748808,0.144875,0.77348,-0.504226
1629894748818,0.12864899999999999,0.747677,-0.500383
1629894748827,0.113704,0.713761,-0.48061899999999996
1629894748837,0.102724,0.681736,-0.459208
1629894748846,0.094794,0.657641,-0.437797
1629894748856,0.083082,0.6405609999999999,-0.421083
1629894748866,0.069357,0.632753,-0.419558
1629894748875,0.056486,0.618601,-0.418643
1629894748885,0.042943999999999996,0.607438,-0.425292
1629894733584,0.034648,0.599813,-0.436577
1629894733594,0.023241,0.591761,-0.444324
1629894733604,0.013115,0.5876129999999999,-0.448777
1629894733613,0.006344,0.590236,-0.455121
1629894733623,0.000183,0.601338,-0.46543
1629894733632,-0.008052,0.619089,-0.47824
1629894733642,-0.015493999999999999,0.642208,-0.496174
1629894733652,-0.024522,0.657763,-0.51118
1629894733661,-0.033733,0.673074,-0.525637
1629894733671,-0.042943999999999996,0.683566,-0.535031
1629894733680,-0.050203,0.698084,-0.550159
1629894733690,-0.055083,0.713029,-0.5673
1629894733700,-0.058621,0.721508,-0.571631
1629894733709,-0.058987,0.732488,-0.571448
1629894733719,-0.054046,0.746884,-0.573583
1629894733728,-0.049288,0.761768,-0.57279
1629894733738,-0.043371,0.780739,-0.576267
1629894733748,-0.038308,0.795501,-0.592005
1629894733757,-0.039284,0.791902,-0.602558
1629894733767,-0.050873999999999996,0.7868999999999999,-0.616344
1629894733776,-0.068137,0.814716,-0.65087
1629894733786,-0.07808,0.866383,-0.7096129999999999
1629894733796,-0.086071,0.86986,-0.717116
1629894733805,-0.099003,0.886025,-0.714859
1629894733815,-0.10437099999999999,0.947452,-0.755729
1629894733824,-0.109068,1.017602,-0.815143
1629894733834,-0.11406999999999999,1.041941,-0.842044
1629894733844,-0.115046,1.028338,-0.825696
1629894733853,-0.115839,1.0456619999999999,-0.809226
1629894733863,-0.117852,1.165832,-0.8845
1629894733872,-0.117181,1.2774619999999999,-0.9800869999999999
1629894733882,-0.134261,1.259833,-0.948794
1629894733892,-0.158966,1.175348,-0.8325279999999999
1629894733901,-0.159942,1.095499,-0.7080879999999999
1629894733911,-0.150426,1.040721,-0.624396
1629894733920,-0.124623,0.933605,-0.494405
1629894733930,-0.102297,0.8258179999999999,-0.318542
1629894733940,-0.080886,0.802638,-0.188978
1629894733949,-0.07259,0.9216489999999999,-0.209108
1629894733959,-0.062464,1.054141,-0.309758
1629894733968,-0.07625,1.120082,-0.347578
1629894733978,-0.086437,1.148691,-0.373625
1629894733988,-0.090097,1.124596,-0.39711
1629894733997,-0.105896,1.091778,-0.422364
1629894734007,-0.118523,1.054263,-0.430782
1629894734016,-0.123342,0.991799,-0.406199
1629894734026,-0.130845,0.948062,-0.378444
1629894734036,-0.13359,0.94123,-0.386313
1629894734045,-0.132187,0.930128,-0.396378
1629894734055,-0.125233,0.900909,-0.391681
1629894734064,-0.103212,0.8577819999999999,-0.37777299999999997
1629894734074,-0.077653,0.811056,-0.360449
1629894734084,-0.056424999999999996,0.775981,-0.354471
1629894734093,-0.035623999999999996,0.755119,-0.36661
1629894734103,-0.019154,0.734806,-0.383141
1629894734112,-0.011101999999999999,0.708759,-0.387899
1629894734122,-0.013297999999999999,0.678625,-0.38064
1629894734132,-0.017263,0.646966,-0.370819
1629894734141,-0.021045,0.624579,-0.366427
1629894734151,-0.023485,0.6119519999999999,-0.36636599999999997
1629894734160,-0.025863999999999998,0.6076819999999999,-0.372466
1629894734170,-0.02501,0.605791,-0.381006
1629894734180,-0.026108,0.597678,-0.383995
1629894734189,-0.027145,0.587735,-0.37942
1629894734199,-0.029341,0.581818,-0.377895
1629894734208,-0.03172,0.5845629999999999,-0.387045
1629894734218,-0.036782999999999996,0.599752,-0.40485699999999997
1629894734228,-0.043493,0.6222,-0.427854
1629894734237,-0.050447,0.647332,-0.451583
1629894734247,-0.054534,0.674355,-0.47702
1629894734256,-0.058438,0.699182,-0.495564
1629894734266,-0.06539199999999999,0.733586,-0.508069
1629894734276,-0.072041,0.766343,-0.513864
1629894734285,-0.078507,0.791719,-0.509411
1629894734295,-0.086742,0.8106289999999999,-0.50569
1629894734304,-0.103883,0.855769,-0.535275
1629894734314,-0.125782,0.9447679999999999,-0.611891
1629894734324,-0.13602999999999998,0.989603,-0.677161
1629894734333,-0.142618,0.965935,-0.669048
1629894734343,-0.15067,0.935801,-0.63501
1629894734352,-0.15616,0.987834,-0.676734
1629894734362,-0.151341,1.064694,-0.767258
1629894734372,-0.137006,1.084214,-0.805078
1629894734381,-0.12322,1.064267,-0.765855
1629894734391,-0.108458,1.11691,-0.760975
1629894734400,-0.09589199999999999,1.23098,-0.8398479999999999
1629894734410,-0.096502,1.294115,-0.896883
1629894734420,-0.108763,1.277096,-0.891088
1629894734429,-0.101565,1.217011,-0.868213
1629894734439,-0.07002799999999999,1.154425,-0.8620519999999999
1629894734448,-0.009821,1.052616,-0.8319179999999999
1629894734458,0.065941,0.907009,-0.739686
1629894734468,0.140727,0.822707,-0.656787
1629894734477,0.20435,0.844911,-0.667157
1629894734487,0.254858,0.860405,-0.677161
1629894734496,0.277855,0.871263,-0.644038
1629894734506,0.280966,0.9182939999999999,-0.6420859999999999
1629894734516,0.268156,0.9530029999999999,-0.649955
1629894734525,0.233264,0.924333,-0.599081
1629894734535,0.206973,0.848144,-0.532957
1629894734544,0.193492,0.784948,-0.499712
1629894734554,0.193126,0.7589009999999999,-0.527833
1629894734564,0.19519999999999998,0.743773,-0.5614439999999999
1629894734573,0.186904,0.7427969999999999,-0.585722
1629894734583,0.173972,0.740784,-0.594811
1629894734592,0.152744,0.718275,-0.567605
1629894734602,0.130418,0.689788,-0.53009
1629894734612,0.11254499999999999,0.665083,-0.494649
1629894734621,0.09638,0.648064,-0.466955
1629894734631,0.081313,0.6362909999999999,-0.440847
1629894734640,0.065636,0.629703,-0.42614599999999997
1629894734650,0.048678,0.620126,-0.41663
1629894734660,0.034343,0.611708,-0.412421
1629894734669,0.02318,0.604449,-0.41114
1629894734679,0.014213,0.603656,-0.412787
1629894734688,0.0075639999999999995,0.607926,-0.416996
1629894734698,0.0032329999999999998,0.614514,-0.419863
1629894734708,0.0011589999999999999,0.619821,-0.41785
1629894734717,0.000122,0.622749,-0.413702
1629894734727,0.000488,0.626897,-0.409005
1629894734736,0.003294,0.634888,-0.405589
1629894734746,0.005612,0.64721,-0.406748
1629894734756,0.00549,0.6658149999999999,-0.418033
1629894734765,0.0062829999999999995,0.689605,-0.436516
1629894734775,0.006344,0.711931,-0.460428
1629894734784,0.004209,0.726998,-0.482937
1629894734794,-0.001952,0.737551,-0.502091
1629894734804,-0.009394,0.750544,-0.523624
1629894734813,-0.012505,0.771894,-0.554063
1629894734823,-0.013237,0.782691,-0.57828
1629894734832,-0.015738,0.787388,-0.597312
1629894734842,-0.019154,0.790621,-0.608536
1629894734852,-0.027327999999999998,0.825879,-0.6378159999999999
1629894734861,-0.035136,0.884317,-0.683505
1629894734871,-0.039528,0.9101199999999999,-0.706502
1629894734880,-0.043859,0.9113399999999999,-0.691923
1629894734890,-0.045262,0.945195,-0.695156
1629894734900,-0.047030999999999996,1.026569,-0.746884
1629894734909,-0.052704,1.107638,-0.80459
1629894734919,-0.055449,1.1363079999999999,-0.821243
1629894734928,-0.048373,1.116056,-0.782081
1629894734938,-0.031354,1.100562,-0.737246
1629894734948,-0.022753,1.149057,-0.748897
1629894734957,-0.030317,1.272826,-0.8617469999999999
1629894734967,-0.029463,1.29686,-0.914939
1629894734976,-0.051118,1.195722,-0.82777
1629894734986,-0.070516,1.077626,-0.684298
1629894734996,-0.077043,1.02358,-0.594079
1629894735005,-0.071126,0.959286,-0.509472
1629894735015,-0.059841,0.854549,-0.374418
1629894735024,-0.055815,0.782874,-0.240706
1629894735034,-0.062403,0.827892,-0.199958
1629894735044,-0.077897,0.97722,-0.299022
1629894735053,-0.091866,1.073783,-0.389729
1629894735063,-0.120048,1.063108,-0.368684
1629894735072,-0.133163,1.050054,-0.346236
1629894735082,-0.121146,1.051213,-0.368623
1629894735092,-0.112301,1.062132,-0.399184
1629894735101,-0.104859,1.06201,-0.410286
1629894735111,-0.106018,1.037305,-0.393694
1629894735120,-0.11809599999999999,1.022604,-0.383995
1629894735130,-0.125721,1.013637,-0.395707
1629894735140,-0.12956399999999998,0.991555,-0.39936699999999997
1629894735149,-0.124928,0.95282,-0.394731
1629894735159,-0.11022699999999999,0.898713,-0.391437
1629894735168,-0.090463,0.836859,-0.387411
1629894735178,-0.07137,0.787266,-0.387838
1629894735188,-0.058865,0.7518859999999999,-0.397537
1629894735197,-0.046482,0.7157129999999999,-0.407358
1629894735207,-0.045871999999999996,0.671183,-0.404918
1629894735216,-0.049349,0.628971,-0.396561
1629894735226,-0.053131,0.598715,-0.392596
1629894735236,-0.055937,0.58011,-0.396256
1629894735245,-0.056364,0.575474,-0.404979
1629894735255,-0.055693,0.577548,-0.417362
1629894735264,-0.055022,0.577426,-0.424499
1629894735274,-0.051789,0.579134,-0.42858599999999997
1629894735284,-0.048129,0.582367,-0.434198
1629894735293,-0.045018,0.590175,-0.440969
1629894735303,-0.045323,0.598837,-0.44334799999999996
1629894735312,-0.049837,0.610244,-0.447374
1629894735322,-0.056974,0.627507,-0.459086
1629894735332,-0.064904,0.648552,-0.476105
1629894735341,-0.07503,0.669048,-0.48922
1629894735351,-0.084485,0.69296,-0.50508
1629894735360,-0.092903,0.7198,-0.515267
1629894735370,-0.097112,0.745298,-0.524173
1629894735380,-0.098332,0.7573759999999999,-0.524966
1629894735389,-0.10113799999999999,0.774273,-0.529602
1629894735399,-0.112301,0.852475,-0.583892
1629894735408,-0.11638799999999999,0.954162,-0.686921
1629894735418,-0.120536,0.943731,-0.672342
1629894735428,-0.138531,0.8954799999999999,-0.589321
1629894735437,-0.14188599999999998,0.930311,-0.608353
1629894735447,-0.137616,1.031571,-0.728889
1629894735456,-0.144631,1.087874,-0.797758
1629894735466,-0.143472,1.075613,-0.767563
1629894735476,-0.120109,1.053714,-0.69418
1629894735485,-0.0915,1.098854,-0.670878
1629894735495,-0.07942199999999999,1.231712,-0.753045
1629894735504,-0.079483,1.319369,-0.826184
1629894735514,-0.083997,1.296555,-0.811971
1629894735524,-0.074115,1.242875,-0.775432
1629894735533,-0.044286,1.22915,-0.785741
1629894735543,-0.0017079999999999999,1.20353,-0.8005639999999999
1629894735552,0.050813,1.06933,-0.72285
1629894735562,0.108641,0.93025,-0.611586
1629894735572,0.16500499999999999,0.897859,-0.59719
1629894735581,0.21490299999999998,0.872422,-0.61061
1629894735591,0.233203,0.80642,-0.553026
1629894735600,0.233874,0.822646,-0.542168
1629894735610,0.236314,0.883219,-0.590236
1629894735620,0.220393,0.887184,-0.578585
1629894735629,0.20069,0.854854,-0.537288
1629894735639,0.193004,0.796782,-0.493673
1629894735648,0.181719,0.765062,-0.482327
1629894735658,0.17360599999999998,0.75579,-0.500505
1629894735668,0.15823399999999999,0.757498,-0.5173409999999999
1629894735677,0.133834,0.767624,-0.541253
1629894735687,0.112118,0.757193,-0.546316
1629894735696,0.088694,0.726571,-0.527955
1629894735706,0.072834,0.697413,-0.508191
1629894735716,0.06039,0.677161,-0.49593
1629894735725,0.043554,0.660264,-0.477203
1629894735735,0.024827,0.651541,-0.463234
1629894735744,0.008173999999999999,0.6417809999999999,-0.45109499999999997
1629894735754,-0.009516,0.624945,-0.43755299999999997
1629894735764,-0.02379,0.617198,-0.435662
1629894735773,-0.031598,0.620919,-0.445178
1629894735783,-0.039710999999999996,0.624091,-0.45261999999999997
1629894735792,-0.046238,0.630496,-0.460428
1629894735802,-0.050263999999999996,0.633302,-0.464454
1629894735812,-0.053191999999999996,0.636962,-0.463966
1629894735821,-0.053924,0.640317,-0.464454
1629894735831,-0.053741,0.643428,-0.464576
1629894735840,-0.053741,0.64599,-0.468358
1629894735850,-0.052765,0.655628,-0.479155
1629894735860,-0.054107,0.672342,-0.49550299999999997
1629894735869,-0.059475,0.690947,-0.516243
1629894735879,-0.070272,0.702049,-0.528565
1629894735888,-0.079544,0.702842,-0.534848
1629894735898,-0.083631,0.7053429999999999,-0.5462549999999999
1629894735908,-0.081984,0.71614,-0.565531
1629894735917,-0.077043,0.72895,-0.588894
1629894735927,-0.074786,0.737246,-0.6079869999999999
1629894735936,-0.074298,0.741394,-0.621834
1629894735946,-0.077897,0.756583,-0.6420859999999999
1629894735956,-0.088572,0.796721,-0.6837489999999999
1629894735965,-0.101504,0.846436,-0.7366969999999999
1629894735975,-0.111386,0.859124,-0.747799
1629894735984,-0.11901099999999999,0.8699209999999999,-0.741638
1629894735994,-0.12566,0.9216489999999999,-0.778421
1629894736004,-0.138958,0.986126,-0.8418
1629894736013,-0.15372,1.02053,-0.8870009999999999
1629894736023,-0.156587,1.016077,-0.8821209999999999
1629894736032,-0.142984,1.002901,-0.841983
1629894736042,-0.120902,1.033523,-0.816485
1629894736052,-0.114558,1.144482,-0.894016
1629894736061,-0.12261,1.200663,-0.969778
1629894736071,-0.15390299999999998,1.162965,-0.922381
1629894736080,-0.18056,1.104344,-0.83631
1629894736090,-0.19117399999999998,1.062132,-0.771894
1629894736100,-0.184769,0.993568,-0.7076
1629894736109,-0.169885,0.865407,-0.573095
1629894736119,-0.156221,0.750483,-0.40748
1629894736128,-0.15207299999999999,0.726388,-0.317627
1629894736138,-0.162748,0.8097139999999999,-0.366244
1629894736148,-0.179218,0.918355,-0.482327
1629894736157,-0.203679,0.962641,-0.517585
1629894736167,-0.22197899999999998,0.983076,-0.521672
1629894736176,-0.218258,0.991433,-0.524966
1629894736186,-0.21398799999999998,0.988261,-0.521733
1629894736196,-0.211304,0.977281,-0.515084
1629894736205,-0.209413,0.94977,-0.504531
1629894736215,-0.217892,0.92598,-0.498736
1629894736224,-0.230092,0.91805,-0.518988
1629894736234,-0.238693,0.901336,-0.539118
1629894736244,-0.236863,0.867481,-0.540948
1629894736253,-0.222406,0.820023,-0.52582
1629894736263,-0.198677,0.7628659999999999,-0.502091
1629894736272,-0.17360599999999998,0.714249,-0.478362
1629894736282,-0.151524,0.680516,-0.47092
1629894736292,-0.136396,0.655201,-0.47604399999999997
1629894736301,-0.125904,0.627629,-0.475007
1629894736311,-0.12254899999999999,0.592249,-0.45688999999999996
1629894736320,-0.120902,0.5551,-0.434686
1629894736330,-0.122732,0.529175,-0.424072
1629894736340,-0.121085,0.517524,-0.43041599999999997
1629894736349,-0.121207,0.516548,-0.447191
1629894736359,-0.118462,0.518195,-0.465918
1629894736368,-0.117242,0.516914,-0.472018
1629894736378,-0.1159,0.5145959999999999,-0.472872
1629894736388,-0.11956,0.515755,-0.47238399999999997
1629894736397,-0.124074,0.524844,-0.48068
1629894736407,-0.131272,0.5377149999999999,-0.497455
1629894736416,-0.140422,0.558394,-0.5210009999999999
1629894736426,-0.15237799999999999,0.581696,-0.552233
1629894736436,-0.164761,0.599691,-0.58133
1629894736445,-0.174704,0.6082919999999999,-0.5900529999999999
1629894736455,-0.185074,0.624274,-0.599874
1629894736464,-0.195017,0.6557499999999999,-0.627324
1629894736474,-0.199226,0.674843,-0.640317
1629894736484,-0.207278,0.697596,-0.64904
1629894736493,-0.218807,0.738161,-0.6916789999999999
1629894736503,-0.23546,0.797087,-0.756278
1629894736512,-0.246806,0.839665,-0.825696
1629894736522,-0.247538,0.803431,-0.760853
1629894736532,-0.258884,0.777323,-0.687348
1629894736541,-0.270901,0.820694,-0.736514
1629894736551,-0.288286,0.877363,-0.833565
1629894736560,-0.296155,0.901092,-0.872788
1629894736570,-0.285968,0.89243,-0.840336
1629894736580,-0.261202,0.894199,-0.802455
1629894736589,-0.24570799999999998,0.939095,-0.810568
1629894736599,-0.259555,1.0429169999999999,-0.905484
1629894736608,-0.28609,1.116788,-1.004792
1629894736618,-0.30414599999999997,1.109041,-0.996618
1629894736628,-0.291885,1.084214,-0.948916
1629894736637,-0.246379,1.07177,-0.91683
1629894736647,-0.196298,1.06018,-0.895114
1629894736656,-0.133529,1.000705,-0.8331379999999999
1629894736666,-0.059047999999999996,0.921771,-0.729743
1629894736676,0.010797,0.889624,-0.699426
1629894736685,0.063318,0.85949,-0.705404
1629894736695,0.08851099999999999,0.820023,-0.678198
1629894736704,0.100101,0.82411,-0.682651
1629894736714,0.096807,0.852353,-0.726571
1629894736724,0.078568,0.854976,-0.728828
1629894736733,0.062403,0.8221579999999999,-0.675941
1629894736743,0.066185,0.773053,-0.601338
1629894736752,0.079666,0.7412719999999999,-0.557418
1629894736762,0.099796,0.72346,-0.559919
1629894736772,0.109251,0.71004,-0.583465
1629894736781,0.10498099999999999,0.6954,-0.6110369999999999
1629894736791,0.093208,0.663131,-0.616344
1629894736800,0.075945,0.613721,-0.587796
1629894736810,0.059047999999999996,0.57279,-0.546682
1629894736820,0.043005,0.547841,-0.515755
1629894736829,0.024827,0.533201,-0.49166
1629894736839,0.005856,0.527406,-0.474641
1629894736848,-0.013115,0.524295,-0.466406
1629894736858,-0.032879,0.52033,-0.466528
1629894736868,-0.050447,0.521428,-0.478301
1629894736877,-0.069296,0.525942,-0.493856
1629894736887,-0.086315,0.527772,-0.507703
1629894736896,-0.103578,0.532042,-0.517219
1629894736906,-0.11577799999999999,0.535336,-0.5222209999999999
1629894736916,-0.126331,0.541192,-0.526247
1629894736925,-0.130235,0.552294,-0.532652
1629894736935,-0.134566,0.5663239999999999,-0.542351
1629894736944,-0.140727,0.586332,-0.554002
1629894736954,-0.149572,0.606767,-0.572302
1629894736964,-0.161467,0.62464,-0.590175
1629894736973,-0.17763199999999998,0.635742,-0.603473
1629894736983,-0.192516,0.642635,-0.615368
1629894736992,-0.204777,0.647332,-0.623725
1629894737002,-0.214232,0.655506,-0.631106
1629894737012,-0.218197,0.665144,-0.646905
1629894737021,-0.222589,0.674843,-0.654286
1629894737031,-0.224602,0.680882,-0.6594099999999999
1629894737040,-0.227774,0.6910689999999999,-0.6700849999999999
1629894737050,-0.237839,0.71126,-0.697535
1629894737060,-0.262178,0.742675,-0.746274
1629894737069,-0.285358,0.765794,-0.788364
1629894737079,-0.300303,0.773785,-0.800808
1629894737088,-0.312259,0.794647,-0.817949
1629894737098,-0.328241,0.845338,-0.8748009999999999
1629894737108,-0.351421,0.8988349999999999,-0.940254
1629894737117,-0.367342,0.9329339999999999,-0.9755119999999999
1629894737127,-0.362645,0.945317,-0.974475
1629894737136,-0.34050199999999997,0.9517829999999999,-0.951722
1629894737146,-0.3172,0.988932,-0.964776
1629894737156,-0.311283,1.046699,-1.04127
1629894737165,-0.31707799999999997,1.05835,-1.080371
1629894737175,-0.331474,1.014247,-1.028155
1629894737184,-0.34690699999999997,0.948794,-0.9213439999999999
1629894737194,-0.354471,0.898408,-0.82716
1629894737204,-0.339282,0.837225,-0.7376119999999999
1629894737213,-0.304878,0.750849,-0.615673
1629894737223,-0.264862,0.673867,-0.474702
1629894737232,-0.24204799999999999,0.646478,-0.380579
1629894737242,-0.259921,0.695339,-0.382836
1629894737252,-0.296826,0.780556,-0.47214
1629894737261,-0.333548,0.844911,-0.547292
1629894737271,-0.363194,0.874435,-0.61122
1629894737280,-0.358985,0.8848659999999999,-0.620065
1629894737290,-0.341539,0.878583,-0.612379
1629894737300,-0.32256799999999997,0.857904,-0.59109
1629894737309,-0.30561,0.824232,-0.5608339999999999
1629894737319,-0.303353,0.80337,-0.539911
1629894737328,-0.317444,0.804102,-0.552538
1629894737338,-0.332267,0.808006,-0.579378
1629894737348,-0.33611,0.80215,-0.593957
1629894737357,-0.316651,0.7844599999999999,-0.5915779999999999
1629894737367,-0.283284,0.75335,-0.571326
1629894737376,-0.247721,0.717604,-0.549732
1629894737386,-0.218197,0.684908,-0.536312
1629894737396,-0.199348,0.654286,-0.529114
1629894737405,-0.187392,0.6222,-0.5219159999999999
1629894737415,-0.17946199999999998,0.5870029999999999,-0.504836
1629894737424,-0.176656,0.551196,-0.479277
1629894737434,-0.17580199999999999,0.520269,-0.461404
1629894737444,-0.170068,0.496052,-0.454084
1629894737453,-0.163541,0.478606,-0.456829
1629894737463,-0.157624,0.46665,-0.458232
1629894737472,-0.151646,0.459025,-0.458964
1629894737482,-0.146339,0.457988,-0.461404
1629894737492,-0.14280099999999998,0.46482,-0.466955
1629894737501,-0.141459,0.47238399999999997,-0.468541
1629894737511,-0.143716,0.481778,-0.471835
1629894737520,-0.150792,0.497394,-0.48373
1629894737530,-0.161589,0.519537,-0.506178
1629894737540,-0.173423,0.543449,-0.534177
1629894737549,-0.190137,0.570655,-0.5605289999999999
1629894737559,-0.205082,0.605486,-0.59292
1629894737568,-0.217404,0.6396459999999999,-0.62647
1629894737578,-0.22752999999999998,0.6658149999999999,-0.652395
1629894737588,-0.241804,0.688507,-0.671427
1629894737597,-0.259799,0.718275,-0.688568
1629894737607,-0.288835,0.791841,-0.750361
1629894737616,-0.306952,0.856745,-0.823012
1629894737626,-0.311893,0.8629669999999999,-0.8118489999999999
1629894737636,-0.307074,0.852048,-0.770064
1629894737645,-0.305549,0.8954799999999999,-0.811605
1629894737655,-0.31476,0.960201,-0.904386
1629894737664,-0.31964,0.9788669999999999,-0.9332389999999999
1629894737674,-0.314333,0.978196,-0.903044
1629894737684,-0.300974,1.03395,-0.923662
1629894737693,-0.301828,1.108614,-0.990945
1629894737703,-0.309392,1.135759,-1.012051
1629894737712,-0.300303,1.134417,-1.014674
1629894737722,-0.265533,1.115263,-1.002047
1629894737732,-0.225822,1.095743,-0.997533
1629894737741,-0.171105,1.0322419999999999,-0.9651419999999999
1629894737751,-0.089914,0.913292,-0.851621
1629894737760,-0.0026839999999999998,0.824537,-0.752374
1629894737770,0.06801499999999999,0.7677459999999999,-0.7099179999999999
1629894737780,0.119499,0.702964,-0.653249
1629894737789,0.144021,0.668682,-0.604998
1629894737799,0.134017,0.687043,-0.63379
1629894737808,0.09577,0.7160179999999999,-0.696742
1629894737818,0.041784999999999996,0.715469,-0.71858
1629894737828,0.006527,0.683078,-0.68137
1629894737837,-0.003721,0.6417809999999999,-0.62708
1629894737847,0.000488,0.612806,-0.60146
1629894737856,0.0070149999999999995,0.600484,-0.603412
1629894737866,0.002623,0.60512,-0.633912
1629894737876,-0.008113,0.610488,-0.663863
1629894737885,-0.020313,0.60451,-0.672281
1629894737895,-0.032390999999999996,0.590297,-0.658556
1629894737904,-0.038796,0.575535,-0.63379
1629894737914,-0.044164,0.562847,-0.604388
1629894737924,-0.056608,0.556259,-0.584014
1629894737933,-0.073078,0.548451,-0.578646
1629894737943,-0.089792,0.536007,-0.576389
1629894737952,-0.105164,0.522892,-0.574742
1629894737962,-0.115351,0.51179,-0.573705
1629894737972,-0.12139,0.503738,-0.575962
1629894737981,-0.12688,0.49916299999999997,-0.577426
1629894737991,-0.133041,0.49550299999999997,-0.574742
1629894738000,-0.138165,0.494039,-0.571143
1629894738010,-0.141947,0.493978,-0.5673
1629894738020,-0.14579,0.499712,-0.567178
1629894738029,-0.151951,0.5127659999999999,-0.576999
1629894738039,-0.16036899999999998,0.528931,-0.594201
1629894738048,-0.169702,0.545828,-0.614636
1629894738058,-0.179706,0.561566,-0.6323259999999999
1629894738068,-0.190198,0.578158,-0.646783
1629894738077,-0.193431,0.592676,-0.652212
1629894738087,-0.188856,0.603168,-0.6527
1629894738096,-0.184586,0.614148,-0.655811
1629894738106,-0.18318299999999998,0.623054,-0.6655099999999999
1629894738116,-0.182695,0.628666,-0.677588
1629894738125,-0.183549,0.627324,-0.685823
1629894738135,-0.186721,0.623115,-0.689605
1629894738144,-0.197884,0.6332409999999999,-0.7080879999999999
1629894738154,-0.224419,0.673257,-0.772626
1629894738164,-0.24888,0.712297,-0.836615
1629894738173,-0.262422,0.729926,-0.851926
1629894738183,-0.270291,0.75213,-0.852658
1629894738192,-0.286883,0.8023939999999999,-0.893101
1629894738202,-0.311161,0.857721,-0.954467
1629894738212,-0.327509,0.885842,-0.976976
1629894738221,-0.321531,0.893711,-0.94855
1629894738231,-0.309209,0.922442,-0.929152
1629894738240,-0.320006,0.991555,-1.003328
1629894738250,-0.333121,1.039074,-1.079517
1629894738260,-0.34721199999999997,1.040111,-1.073966
1629894738269,-0.36478,1.019798,-1.009489
1629894738279,-0.373442,1.002901,-0.938058
1629894738288,-0.369233,0.963068,-0.855708
1629894738298,-0.347517,0.890478,-0.724436
1629894738308,-0.314943,0.81679,-0.568886
1629894738317,-0.291824,0.774883,-0.448838
1629894738327,-0.301584,0.808921,-0.440359
1629894738336,-0.330864,0.878644,-0.525393
1629894738346,-0.356423,0.920246,-0.584441
1629894738356,-0.373625,0.93452,-0.603107
1629894738365,-0.368562,0.928908,-0.602436
1629894738375,-0.35807,0.9140849999999999,-0.587125
1629894738384,-0.351238,0.888709,-0.555039
1629894738394,-0.344345,0.853756,-0.514108
1629894738404,-0.340014,0.825574,-0.49044
1629894738413,-0.333426,0.8097139999999999,-0.49715
1629894738423,-0.326106,0.797453,-0.5176459999999999
1629894738432,-0.311466,0.775127,-0.529663
1629894738442,-0.286639,0.742248,-0.523624
1629894738452,-0.255651,0.69906,-0.503616
1629894738461,-0.222833,0.6600199999999999,-0.486719
1629894738471,-0.191357,0.628666,-0.480436
1629894738480,-0.168482,0.602314,-0.475922
1629894738490,-0.156587,0.572912,-0.46738199999999996
1629894738500,-0.150182,0.540094,-0.446947
1629894738509,-0.150304,0.510631,-0.426329
1629894738519,-0.15311,0.490684,-0.41358
1629894738528,-0.153537,0.477203,-0.412116
1629894738538,-0.150121,0.465796,-0.410713
1629894738548,-0.145668,0.461465,-0.410774
1629894738557,-0.143594,0.478057,-0.42858599999999997
1629894738567,-0.14701,0.513742,-0.47275
1629894738576,-0.156526,0.551806,-0.52155
1629894738586,-0.168909,0.578219,-0.552233
1629894738596,-0.18348799999999998,0.593896,-0.561322
1629894738605,-0.20044599999999999,0.606218,-0.5629689999999999
1629894738615,-0.213866,0.619333,-0.571997
1629894738624,-0.225151,0.634827,-0.5873079999999999
1629894738634,-0.232654,0.650138,-0.604205
1629894738644,-0.233508,0.660874,-0.610793
1629894738653,-0.232837,0.679418,-0.622932
1629894738663,-0.231373,0.708149,-0.653615
1629894738672,-0.228994,0.716079,-0.655567
1629894738682,-0.235399,0.721996,-0.65209
1629894738692,-0.251076,0.7610359999999999,-0.685945
1629894738701,-0.277916,0.827465,-0.776347
1629894738711,-0.284504,0.815631,-0.772504
1629894738720,-0.292556,0.769576,-0.696437
1629894738730,-0.306159,0.783362,-0.703147
1629894738740,-0.318786,0.843325,-0.797758
1629894738749,-0.329339,0.8757159999999999,-0.853451
1629894738759,-0.32513,0.86681,-0.84241
1629894738768,-0.302743,0.8651019999999999,-0.809958
1629894738778,-0.290787,0.923906,-0.8313079999999999
1629894738788,-0.300425,1.024312,-0.927993
1629894738797,-0.316346,1.075613,-0.993568
1629894738807,-0.32134799999999997,1.070367,-0.993812
1629894738816,-0.304329,1.043954,-0.967399
1629894738826,-0.27053499999999997,1.022238,-0.95343
1629894738836,-0.222833,0.974109,-0.924211
1629894738845,-0.15128,0.8738859999999999,-0.828685
1629894738855,-0.075091,0.786046,-0.723094
1629894738864,-0.017324,0.751764,-0.695278
1629894738874,0.025863999999999998,0.727791,-0.694729
1629894738884,0.047335999999999996,0.7187629999999999,-0.6861889999999999
1629894738893,0.048312,0.7503,-0.718031
1629894738903,0.029219,0.788913,-0.766953
1629894738912,-0.010675,0.806176,-0.780983
1629894738922,-0.043798,0.7850699999999999,-0.744932
1629894738932,-0.055754,0.73444,-0.682651
1629894738941,-0.053009,0.697657,-0.648064
1629894738951,-0.044957,0.672403,-0.642635
1629894738960,-0.044896,0.665327,-0.661728
1629894738970,-0.048434,0.6642899999999999,-0.695156
1629894738980,-0.057034999999999995,0.647515,-0.702171
1629894738989,-0.063501,0.615856,-0.675026
1629894738999,-0.063257,0.586515,-0.629764
1629894739008,-0.065636,0.560285,-0.577975
1629894739018,-0.075152,0.5401549999999999,-0.534543
1629894739028,-0.090097,0.528504,-0.508496
1629894739037,-0.108214,0.519049,-0.49471
1629894739047,-0.125294,0.512095,-0.489342
1629894739056,-0.139324,0.506544,-0.489342
1629894739066,-0.152134,0.504836,-0.49580799999999997
1629894739076,-0.164151,0.509228,-0.503189
1629894739085,-0.174704,0.517707,-0.510753
1629894739095,-0.181292,0.530883,-0.514657
1629894739104,-0.184952,0.548024,-0.506727
1629894739114,-0.18727,0.55937,-0.49227
1629894739124,-0.189527,0.567056,-0.47885
1629894739133,-0.18849,0.575718,-0.474336
1629894739143,-0.19093,0.58804,-0.487268
1629894739152,-0.193248,0.603412,-0.517402
1629894739162,-0.19641999999999998,0.6156119999999999,-0.551379
1629894739172,-0.190991,0.624091,-0.58316
1629894739181,-0.177083,0.630984,-0.607316
1629894739191,-0.161955,0.641293,-0.628727
1629894739200,-0.15945399999999998,0.656421,-0.646966
1629894739210,-0.164578,0.673806,-0.663436
1629894739220,-0.175314,0.689971,-0.6803939999999999
1629894739229,-0.186843,0.703452,-0.699243
1629894739239,-0.20557,0.723277,-0.726022
1629894739248,-0.23424,0.753838,-0.774822
1629894739258,-0.259799,0.784216,-0.827587
1629894739268,-0.27144999999999997,0.7987339999999999,-0.8471069999999999
1629894739277,-0.274683,0.811483,-0.8392379999999999
1629894739287,-0.28255199999999997,0.850584,-0.853573
1629894739296,-0.302499,0.909937,-0.8997499999999999
1629894739306,-0.31677299999999997,0.955626,-0.944951
1629894739316,-0.312381,0.974658,-0.952454
1629894739325,-0.300303,0.998692,-0.941352
1629894739335,-0.310307,1.067927,-0.9837469999999999
1629894739344,-0.329888,1.124352,-1.045784
1629894739354,-0.343735,1.124047,-1.036268
1629894739364,-0.35221399999999997,1.083116,-0.958005
1629894739373,-0.338489,1.022909,-0.855281
1629894739383,-0.30561,0.940864,-0.744383
1629894739392,-0.26004299999999997,0.83814,-0.60817
1629894739402,-0.226188,0.753594,-0.457744
1629894739412,-0.21892899999999998,0.7278519999999999,-0.343308
1629894739421,-0.250466,0.7856799999999999,-0.34221
1629894739431,-0.288225,0.8608319999999999,-0.425597
1629894739440,-0.309087,0.910547,-0.492392
1629894739450,-0.317139,0.943609,-0.535336
1629894739460,-0.305244,0.9575779999999999,-0.565592
1629894739469,-0.286273,0.964166,-0.585966
1629894739479,-0.273646,0.953247,-0.587979
1629894739488,-0.269559,0.91927,-0.566446
1629894739498,-0.277428,0.886452,-0.538813
1629894739508,-0.29212899999999997,0.86132,-0.526186
1629894739517,-0.30567099999999997,0.841556,-0.524966
1629894739527,-0.30750099999999997,0.821914,-0.531432
1629894739536,-0.289445,0.797697,-0.5377149999999999
1629894739546,-0.25864,0.765489,-0.535031
1629894739556,-0.223016,0.7278519999999999,-0.528199
1629894739565,-0.19154,0.69601,-0.521428
1629894739575,-0.171898,0.663924,-0.514169
1629894739584,-0.162443,0.631045,-0.503982
1629894739594,-0.156038,0.589687,-0.48623099999999997
1629894739604,-0.1525,0.547109,-0.463356
1629894739613,-0.14762,0.51179,-0.442311
1629894739623,-0.146949,0.489952,-0.436821
1629894739632,-0.146034,0.483242,-0.448167
1629894739642,-0.141459,0.480253,-0.462624
1629894739652,-0.137555,0.477447,-0.46604
1629894739661,-0.134871,0.475617,-0.463478
1629894739671,-0.135664,0.477935,-0.46299
1629894739680,-0.136823,0.485682,-0.470127
1629894739690,-0.142374,0.500139,-0.485194
1629894739700,-0.15207299999999999,0.517768,-0.504226
1629894739709,-0.166896,0.537349,-0.523014
1629894739719,-0.180987,0.556564,-0.540643
1629894739728,-0.192638,0.574498,-0.562115
1629894739738,-0.206058,0.596275,-0.583465
1629894739748,-0.219966,0.626653,-0.6089019999999999
1629894739757,-0.22630999999999998,0.652212,-0.6317159999999999
1629894739767,-0.23338599999999998,0.674782,-0.640988
1629894739776,-0.250039,0.717055,-0.658129
1629894739786,-0.276879,0.789523,-0.724436
1629894739796,-0.290116,0.823561,-0.768539
1629894739805,-0.294447,0.809165,-0.7424919999999999
1629894739815,-0.30134,0.8060539999999999,-0.718336
1629894739824,-0.315919,0.852536,-0.774639
1629894739834,-0.341356,0.904386,-0.855525
1629894739844,-0.354471,0.913841,-0.882182
1629894739853,-0.348371,0.900604,-0.853634
1629894739863,-0.31768799999999997,0.904203,-0.82228
1629894739872,-0.291214,0.954772,-0.8267329999999999
1629894739882,-0.29700899999999997,1.044503,-0.888709
1629894739892,-0.308965,1.093059,-0.938485
1629894739901,-0.303963,1.080737,-0.917501
1629894739911,-0.28365,1.059082,-0.894809
1629894739920,-0.257176,1.038159,-0.898164
1629894739930,-0.226249,1.000095,-0.9046299999999999
1629894739940,-0.173179,0.913902,-0.87291
1629894739949,-0.107665,0.812886,-0.813557
1629894739959,-0.062708,0.753045,-0.782874
1629894739968,-0.039345,0.712419,-0.781349
1629894739978,-0.015493999999999999,0.669292,-0.759389
1629894739988,-0.012749,0.675087,-0.749263
1629894739997,-0.036661,0.725351,-0.789218
1629894740007,-0.062952,0.75823,-0.819352
1629894740016,-0.07618899999999999,0.757498,-0.796782
1629894740026,-0.065026,0.724131,-0.733403
1629894740036,-0.044591,0.691557,-0.677161
1629894740045,-0.031354,0.669536,-0.6615449999999999
1629894740055,-0.03294,0.655933,-0.676856
1629894740064,-0.047824,0.645868,-0.707966
1629894740074,-0.066673,0.62647,-0.729804
1629894740084,-0.080459,0.593164,-0.7187629999999999
1629894740093,-0.090707,0.556991,-0.676246
1629894740103,-0.101565,0.53436,-0.634095
1629894740112,-0.118279,0.521977,-0.5937129999999999
1629894740122,-0.13176,0.5124,-0.5693739999999999
1629894740132,-0.138958,0.502945,-0.553697
1629894740141,-0.1464,0.489769,-0.539789
1629894740151,-0.154635,0.482388,-0.535336
1629894740160,-0.16128399999999998,0.482754,-0.541802
1629894740170,-0.167811,0.487573,-0.547658
1629894740180,-0.174826,0.495991,-0.550403
1629894740189,-0.180133,0.507093,-0.549061
1629894740199,-0.183549,0.521733,-0.548634
1629894740208,-0.186904,0.536983,-0.551562
1629894740218,-0.189283,0.5453399999999999,-0.5477799999999999
1629894740228,-0.19032,0.548878,-0.5410699999999999
1629894740237,-0.190503,0.555161,-0.5413749999999999
1629894740247,-0.191357,0.5612,-0.549122
1629894740256,-0.197884,0.570716,-0.559614
1629894740266,-0.204899,0.577975,-0.575901
1629894740276,-0.208498,0.5860879999999999,-0.593591
1629894740285,-0.21289,0.596092,-0.6119519999999999
1629894740295,-0.219966,0.607255,-0.635193
1629894740304,-0.22228399999999998,0.616893,-0.657946
1629894740314,-0.21899,0.623969,-0.6797839999999999
1629894740324,-0.21337799999999998,0.630618,-0.6922889999999999
1629894740333,-0.21459799999999998,0.649101,-0.707905
1629894740343,-0.225883,0.684847,-0.744078
1629894740352,-0.235094,0.71004,-0.776103
1629894740362,-0.243512,0.723094,-0.786656
1629894740372,-0.25132,0.74969,-0.810141
1629894740381,-0.264496,0.802455,-0.864614
1629894740391,-0.28529699999999997,0.8556469999999999,-0.924943
1629894740400,-0.29707,0.891881,-0.96075
1629894740410,-0.29097,0.915183,-0.965813
1629894740420,-0.271694,0.928603,-0.9499529999999999
1629894740429,-0.252845,0.951112,-0.944219
1629894740439,-0.262056,1.01382,-1.001681
1629894740448,-0.286029,1.077809,-1.082811
1629894740458,-0.311954,1.071709,-1.085312
1629894740468,-0.332633,1.017114,-0.998387
1629894740477,-0.33672,0.969961,-0.909449
1629894740487,-0.3233,0.925797,-0.847473
1629894740496,-0.291092,0.842532,-0.737246
1629894740506,-0.253272,0.741028,-0.577121
1629894740516,-0.226981,0.673867,-0.43133099999999996
1629894740525,-0.226371,0.666852,-0.35953399999999996
1629894740535,-0.254431,0.729011,-0.401014
1629894740544,-0.28255199999999997,0.8078839999999999,-0.499895
1629894740554,-0.303902,0.871019,-0.580842
1629894740564,-0.307745,0.909327,-0.625616
1629894740573,-0.293593,0.9092049999999999,-0.619333
1629894740583,-0.279624,0.890539,-0.586332
1629894740592,-0.26718,0.865041,-0.558516
1629894740602,-0.264984,0.839116,-0.534482
1629894740612,-0.27694,0.833016,-0.532347
1629894740621,-0.292495,0.8389329999999999,-0.555527
1629894740631,-0.296765,0.836554,-0.577304
1629894740640,-0.283589,0.818742,-0.583343
1629894740650,-0.257115,0.7868999999999999,-0.570045
1629894740660,-0.22508999999999998,0.749629,-0.55083
1629894740669,-0.19519999999999998,0.714737,-0.544608
1629894740679,-0.173423,0.687165,-0.545523
1629894740688,-0.160125,0.660081,-0.542229
1629894740698,-0.156648,0.624396,-0.527711
1629894740708,-0.154757,0.585234,-0.505507
1629894740717,-0.155794,0.550403,-0.486597
1629894740727,-0.15945399999999998,0.526552,-0.477691
1629894740736,-0.162687,0.512827,-0.485438
1629894740746,-0.163358,0.50752,-0.502457
1629894740756,-0.158966,0.505995,-0.5170359999999999
1629894740765,-0.154452,0.508008,-0.523014
1629894740775,-0.150731,0.510814,-0.525393
1629894740784,-0.150304,0.509533,-0.521672
1629894740794,-0.15237799999999999,0.50386,-0.518805
1629894740804,-0.155611,0.498309,-0.5185609999999999
1629894740813,-0.16408999999999999,0.49763799999999997,-0.523502
1629894740823,-0.174582,0.50935,-0.542778
1629894740832,-0.187636,0.530151,-0.5724239999999999
1629894740842,-0.197518,0.551135,-0.598532
1629894740852,-0.209596,0.573766,-0.614453
1629894740861,-0.223382,0.601094,-0.636108
1629894740871,-0.23863199999999998,0.6183569999999999,-0.657336
1629894740880,-0.256505,0.628361,-0.673867
1629894740890,-0.28194199999999997,0.645075,-0.706807
1629894740900,-0.311344,0.6825289999999999,-0.784826
1629894740909,-0.330071,0.696254,-0.8361879999999999
1629894740919,-0.33275499999999997,0.683078,-0.821304
1629894740928,-0.33031499999999997,0.682651,-0.803187
1629894740938,-0.33794,0.7269369999999999,-0.8626619999999999
1629894740948,-0.353068,0.781044,-0.9499529999999999
1629894740957,-0.35617899999999997,0.8005639999999999,-0.967704
1629894740967,-0.33611,0.8051389999999999,-0.91561
1629894740976,-0.322934,0.844545,-0.900604
1629894740986,-0.311405,0.948672,-0.977769
1629894740996,-0.33061999999999997,1.014735,-1.0769549999999999
1629894741005,-0.338916,1.020347,-1.088423
1629894741015,-0.31659,1.007293,-1.057008
1629894741024,-0.274439,1.004365,-1.051457
1629894741034,-0.22106399999999998,0.989725,-1.04737
1629894741044,-0.140849,0.921771,-0.967948
1629894741053,-0.05002,0.851438,-0.86254
1629894741063,0.026108,0.803492,-0.8060539999999999
1629894741072,0.090829,0.752984,-0.748287
1629894741082,0.128222,0.725717,-0.703452
1629894741092,0.126514,0.744749,-0.735416
1629894741101,0.089853,0.775249,-0.814655
1629894741111,0.043737,0.773663,-0.825147
1629894741120,0.0048189999999999995,0.7397469999999999,-0.765672
1629894741130,-0.011101999999999999,0.6883239999999999,-0.684908
1629894741140,-0.006771,0.652761,-0.632387
1629894741149,0.0008539999999999999,0.625433,-0.617564
1629894741159,0.005063,0.607621,-0.628117
1629894741168,-0.004514,0.602131,-0.662948
1629894741178,-0.02562,0.595787,-0.6901539999999999
1629894741188,-0.046543,0.582916,-0.683932
1629894741197,-0.06161,0.5647989999999999,-0.644648
1629894741207,-0.07137,0.547353,-0.600118
1629894741216,-0.07942199999999999,0.537227,-0.559065
1629894741226,-0.095221,0.53497,-0.541497
1629894741236,-0.11083699999999999,0.536434,-0.540338
1629894741245,-0.123891,0.535275,-0.540826
1629894741255,-0.135237,0.53253,-0.541802
1629894741264,-0.144631,0.532835,-0.548207
1629894741274,-0.151951,0.537288,-0.558638
1629894741284,-0.159942,0.543266,-0.567056
1629894741293,-0.164212,0.548878,-0.570167
1629894741303,-0.164517,0.554856,-0.566202
1629894741312,-0.159881,0.562176,-0.559065
1629894741322,-0.149816,0.5712039999999999,-0.555405
1629894741332,-0.14280099999999998,0.581574,-0.555832
1629894741341,-0.138287,0.592676,-0.56059
1629894741351,-0.138897,0.604022,-0.569496
1629894741360,-0.146278,0.614148,-0.581635
1629894741370,-0.155672,0.6214069999999999,-0.592127
1629894741380,-0.160735,0.624152,-0.596092
1629894741389,-0.161101,0.628056,-0.595787
1629894741399,-0.153415,0.636962,-0.6110369999999999
1629894741408,-0.146766,0.651663,-0.629581
1629894741418,-0.143045,0.667096,-0.647515
1629894741428,-0.145119,0.690642,-0.671244
1629894741437,-0.15945399999999998,0.744322,-0.728279
1629894741447,-0.186477,0.797514,-0.796599
1629894741456,-0.206119,0.82716,-0.8109339999999999
1629894741466,-0.20874199999999998,0.849303,-0.7905599999999999
1629894741476,-0.210145,0.901824,-0.792756
1629894741485,-0.2196,0.983564,-0.845216
1629894741495,-0.227957,1.045906,-0.886757
1629894741504,-0.221125,1.063413,-0.868823
1629894741514,-0.19794499999999998,1.04981,-0.799222
1629894741524,-0.163785,1.049566,-0.744505
1629894741533,-0.155428,1.1222779999999999,-0.781898
1629894741543,-0.16897,1.1868159999999999,-0.881084
1629894741552,-0.183305,1.146373,-0.869067
1629894741562,-0.199958,1.048712,-0.75579
1629894741572,-0.197396,0.9600179999999999,-0.61732
1629894741581,-0.190198,0.912621,-0.512034
1629894741591,-0.170007,0.856074,-0.41260399999999997
1629894741600,-0.157075,0.791414,-0.277855
1629894741610,-0.17446,0.844179,-0.227103
1629894741620,-0.199775,1.002962,-0.327265
1629894741629,-0.217465,1.108309,-0.430965
1629894741639,-0.23558199999999999,1.094279,-0.40790699999999996
1629894741648,-0.236985,1.059936,-0.363011
1629894741658,-0.221003,1.06201,-0.367525
1629894741668,-0.205265,1.104588,-0.422547
1629894741677,-0.19428499999999999,1.110505,-0.440847
1629894741687,-0.202154,1.0784799999999999,-0.41175
1629894741696,-0.21276799999999998,1.054934,-0.405284
1629894741706,-0.214964,1.033584,-0.426695
1629894741716,-0.209413,0.995459,-0.438346
1629894741725,-0.193919,0.940071,-0.437187
1629894741735,-0.169153,0.873215,-0.428708
1629894741744,-0.144814,0.8042239999999999,-0.410164
1629894741754,-0.12023099999999999,0.7521909999999999,-0.398818
1629894741764,-0.100589,0.714371,-0.397537
1629894741773,-0.093269,0.6874089999999999,-0.396805
1629894741783,-0.09272,0.658922,-0.394731
1629894741792,-0.093086,0.62098,-0.382714
1629894741802,-0.09333,0.587735,-0.36941599999999997
1629894741812,-0.087779,0.5724239999999999,-0.370819
1629894741821,-0.076921,0.574498,-0.384361
1629894741831,-0.065819,0.578646,-0.400831
1629894741840,-0.057157,0.584197,-0.413885
1629894741850,-0.050386,0.58194,-0.413031
1629894741860,-0.048799999999999996,0.575474,-0.40516199999999997
1629894741869,-0.05185,0.57279,-0.402478
1629894741879,-0.051972,0.575718,-0.40760199999999996
1629894741888,-0.05307,0.577121,-0.416935
1629894741898,-0.05978,0.592859,-0.432185
1629894741908,-0.065697,0.623908,-0.463539
1629894741917,-0.065331,0.664534,-0.494649
1629894741927,-0.06417199999999999,0.696254,-0.508679
1629894741936,-0.068869,0.7296819999999999,-0.514474
1629894741946,-0.073139,0.76616,-0.528382
1629894741956,-0.074359,0.774944,-0.521794
1629894741965,-0.088389,0.784216,-0.5161209999999999
1629894741975,-0.104859,0.83143,-0.5608339999999999
1629894741984,-0.127063,0.931287,-0.6618499999999999
1629894741994,-0.13017399999999998,0.987163,-0.754082
1629894742004,-0.143838,0.916464,-0.6627649999999999
1629894742013,-0.174399,0.904264,-0.622749
1629894742023,-0.177754,0.981124,-0.7111379999999999
1629894742032,-0.180377,1.042673,-0.795013
1629894742042,-0.185989,1.042734,-0.787937
1629894742052,-0.18178,1.044076,-0.750849
1629894742061,-0.169458,1.119106,-0.7826299999999999
1629894742071,-0.162504,1.2202439999999999,-0.868274
1629894742080,-0.163114,1.25843,-0.912987
1629894742090,-0.164517,1.2300039999999999,-0.8960899999999999
1629894742100,-0.14579,1.191879,-0.8702259999999999
1629894742109,-0.113338,1.178398,-0.884378
1629894742119,-0.061975999999999996,1.113921,-0.866993
1629894742128,0.005063,0.972584,-0.7595109999999999
1629894742138,0.07326099999999999,0.863943,-0.651968
1629894742148,0.138775,0.818498,-0.617808
1629894742157,0.196359,0.743712,-0.550403
1629894742167,0.202703,0.7059529999999999,-0.48623099999999997
1629894742176,0.18318299999999998,0.781776,-0.537532
1629894742186,0.16744499999999998,0.852658,-0.6162219999999999
1629894742196,0.143289,0.841312,-0.5952379999999999
1629894742205,0.122976,0.795013,-0.520452
1629894742215,0.118218,0.762805,-0.470127
1629894742224,0.11956,0.770003,-0.483852
1629894742234,0.123891,0.778238,-0.506422
1629894742244,0.117974,0.798185,-0.524722
1629894742253,0.107238,0.815265,-0.546133
1629894742263,0.094611,0.8008689999999999,-0.544852
1629894742272,0.077043,0.770064,-0.5210009999999999
1629894742282,0.061671,0.747128,-0.49080599999999996
1629894742292,0.050996,0.732244,-0.474397
1629894742301,0.039162,0.718885,-0.46311199999999997
1629894742311,0.022387,0.699426,-0.457561
1629894742320,0.008418,0.671122,-0.450424
1629894742330,-0.004697,0.644648,-0.447069
1629894742340,-0.016104,0.627812,-0.459269
1629894742349,-0.026900999999999998,0.617076,-0.471713
1629894742359,-0.037759,0.6116469999999999,-0.48000899999999996
1629894742368,-0.04758,0.602253,-0.474641
1629894742378,-0.057767,0.5967629999999999,-0.46402699999999997
1629894742388,-0.060451,0.601643,-0.460611
1629894742397,-0.055998,0.615551,-0.469639
1629894742407,-0.048434,0.629154,-0.469456
1629894742416,-0.044591,0.641293,-0.473543
1629894742426,-0.041053,0.659959,-0.482266
1629894742436,-0.041174999999999996,0.681431,-0.489098
1629894742445,-0.040138,0.694607,-0.493978
1629894742455,-0.034648,0.696925,-0.484218
1629894742464,-0.027206,0.706075,-0.47885
1629894742474,-0.019337,0.728218,-0.491355
1629894742484,-0.016897,0.758352,-0.514779
1629894742493,-0.013847,0.780251,-0.529541
1629894742503,-0.014274,0.784948,-0.533201
1629894742512,-0.023302,0.810995,-0.549732
1629894742522,-0.037087999999999996,0.8863909999999999,-0.61183
1629894742532,-0.043066,0.970693,-0.689788
1629894742541,-0.039894,0.956724,-0.6636799999999999
1629894742551,-0.055083,0.968009,-0.634644
1629894742560,-0.058072,1.053714,-0.70394
1629894742570,-0.059231,1.12179,-0.780617
1629894742580,-0.067649,1.106235,-0.766404
1629894742589,-0.072651,1.070672,-0.70821
1629894742599,-0.071919,1.114836,-0.705282
1629894742608,-0.063562,1.250805,-0.8161189999999999
1629894742618,-0.045689,1.28283,-0.851316
1629894742628,-0.066002,1.245498,-0.796294
1629894742637,-0.074054,1.208959,-0.728523
1629894742647,-0.082594,1.183827,-0.6627649999999999
1629894742656,-0.08326499999999999,1.11447,-0.576145
1629894742666,-0.083936,0.993507,-0.42675599999999997
1629894742676,-0.08662,0.900238,-0.289262
1629894742685,-0.09028,0.8580869999999999,-0.205265
1629894742695,-0.10638399999999999,0.9198189999999999,-0.229543
1629894742704,-0.106628,1.0352919999999999,-0.321592
1629894742714,-0.099796,1.080676,-0.3477
1629894742724,-0.118645,1.081042,-0.332267
1629894742733,-0.12139,1.089399,-0.350872
1629894742743,-0.11638799999999999,1.0757349999999999,-0.363133
1629894742752,-0.119133,1.053348,-0.360266
1629894742762,-0.113582,1.031754,-0.353007
1629894742772,-0.114131,1.021994,-0.35197
1629894742781,-0.114314,1.022848,-0.36697599999999997
1629894742791,-0.105957,1.001742,-0.37155099999999996
1629894742800,-0.093818,0.962946,-0.358436
1629894742810,-0.074725,0.915366,-0.338184
1629894742820,-0.054229,0.868518,-0.320494
1629894742829,-0.038735,0.833626,-0.313296
1629894742839,-0.026047,0.810263,-0.324825
1629894742848,-0.014335,0.790621,-0.339953
1629894742858,-0.008601,0.761829,-0.341234
1629894742868,-0.008539999999999999,0.723948,-0.327814
1629894742877,-0.013176,0.690215,-0.315126
1629894742887,-0.016958,0.669658,-0.311954
1629894742896,-0.016226,0.660081,-0.316224
1629894742906,-0.013359,0.654896,-0.322751
1629894742916,-0.010248,0.650199,-0.327204
1629894742925,-0.0042699999999999995,0.652334,-0.328119
1629894742935,0.003111,0.662582,-0.332511
1629894742944,0.009394,0.674233,-0.335927
1629894742954,0.014335,0.682956,-0.33183999999999997
1629894742964,0.017385,0.688873,-0.33061999999999997
1629894742973,0.008539999999999999,0.699609,-0.34050199999999997
1629894742983,-0.0018909999999999999,0.725839,-0.371429
1629894742992,-0.009699,0.759084,-0.4026
1629894743002,-0.017934,0.786656,-0.426085
1629894743012,-0.025071,0.798612,-0.435479
1629894743021,-0.034648,0.804712,-0.44151799999999997
1629894743031,-0.0427,0.820755,-0.46055
1629894743040,-0.047519,0.82533,-0.476593
1629894743050,-0.064843,0.831125,-0.494527
1629894743060,-0.086132,0.876753,-0.5422899999999999
1629894743069,-0.102663,0.955077,-0.622627
1629894743079,-0.108885,0.97234,-0.651724
1629894743088,-0.132126,0.933056,-0.616588
1629894743098,-0.155245,0.927078,-0.608719
1629894743108,-0.167994,1.007232,-0.697108
1629894743117,-0.166164,1.074576,-0.780068
1629894743127,-0.154879,1.072563,-0.773114
1629894743136,-0.133651,1.043039,-0.704001
1629894743146,-0.114436,1.0793949999999999,-0.677344
1629894743156,-0.104249,1.195844,-0.7534109999999999
1629894743165,-0.106872,1.267275,-0.818925
1629894743175,-0.11638799999999999,1.250134,-0.80398
1629894743184,-0.110593,1.179923,-0.7662209999999999
1629894743194,-0.093452,1.11508,-0.749812
1629894743204,-0.051422999999999996,1.051396,-0.754997
1629894743213,0.013786,0.9064599999999999,-0.672647
1629894743223,0.07015,0.790621,-0.579622
1629894743232,0.12078,0.778421,-0.5708989999999999
1629894743242,0.158112,0.813435,-0.605242
1629894743252,0.167323,0.864065,-0.633485
1629894743261,0.161345,0.933117,-0.6813089999999999
1629894743271,0.161162,0.923845,-0.6670349999999999
1629894743280,0.141032,0.860893,-0.587247
1629894743290,0.129076,0.797392,-0.533811
1629894743300,0.12566,0.760975,-0.527528
1629894743309,0.127124,0.75335,-0.549915
1629894743319,0.124928,0.7631709999999999,-0.579378
1629894743328,0.11608299999999999,0.774334,-0.601033
1629894743338,0.102724,0.760548,-0.589809
1629894743348,0.08912099999999999,0.725351,-0.549732
1629894743357,0.080093,0.693997,-0.505446
1629894743367,0.07448099999999999,0.678991,-0.474153
1629894743376,0.066002,0.670512,-0.452864
1629894743386,0.053375,0.665388,-0.43755299999999997
1629894743396,0.043005,0.661484,-0.437004
1629894743405,0.034343,0.651724,-0.437004
1629894743415,0.02623,0.639463,-0.434686
1629894743424,0.019398,0.629642,-0.429928
1629894743434,0.009821,0.626897,-0.430172
1629894743444,0.0026839999999999998,0.62769,-0.43224599999999996
1629894743453,-0.002013,0.626592,-0.42767099999999997
1629894743463,-0.002074,0.629398,-0.421449
1629894743472,-0.0011589999999999999,0.637023,-0.417606
1629894743482,-0.000244,0.648552,-0.418216
1629894743492,0.0018909999999999999,0.6563599999999999,-0.418521
1629894743501,-6.1e-05,0.665449,-0.420351
1629894743511,-0.005612,0.684115,-0.433649
1629894743520,-0.011712,0.705404,-0.45566999999999996
1629894743530,-0.019703,0.724375,-0.473787
1629894743540,-0.02623,0.74115,-0.48989099999999997
1629894743549,-0.032452,0.749324,-0.498919
1629894743559,-0.03904,0.76372,-0.5127659999999999
1629894743568,-0.042029,0.787144,-0.543571
1629894743578,-0.042638999999999996,0.799771,-0.570533
1629894743588,-0.047397,0.795867,-0.580415
1629894743597,-0.054534,0.801723,-0.5952379999999999
1629894743607,-0.064416,0.827831,-0.617198
1629894743616,-0.08064199999999999,0.9021899999999999,-0.664534
1629894743626,-0.081862,0.936106,-0.6922889999999999
1629894743636,-0.089182,0.934703,-0.680516
1629894743645,-0.10065,0.9849669999999999,-0.71004
1629894743655,-0.105835,1.064633,-0.784582
1629894743664,-0.110898,1.105137,-0.824232
1629894743674,-0.111447,1.090131,-0.8048339999999999
1629894743684,-0.10284599999999999,1.067073,-0.762134
1629894743693,-0.095648,1.103124,-0.747921
1629894743703,-0.089609,1.225612,-0.8221579999999999
1629894743712,-0.078202,1.292224,-0.867115
1629894743722,-0.08234999999999999,1.259772,-0.811666
1629894743732,-0.09497699999999999,1.194197,-0.7126629999999999
1629894743741,-0.104737,1.163941,-0.649894
1629894743751,-0.096746,1.106235,-0.599508
1629894743760,-0.089304,0.97661,-0.488244
1629894743770,-0.086864,0.8559519999999999,-0.352946
1629894743780,-0.082594,0.7996489999999999,-0.2562
1629894743789,-0.09089,0.871873,-0.261751
1629894743799,-0.078812,1.001315,-0.348615
1629894743808,-0.067588,1.0429169999999999,-0.360998
1629894743818,-0.077714,1.047248,-0.330193
1629894743828,-0.069906,1.0462719999999999,-0.327692
1629894743837,-0.06740499999999999,1.025288,-0.333243
1629894743847,-0.073322,1.014674,-0.34465
1629894743856,-0.071492,0.9894809999999999,-0.34538199999999997
1629894743866,-0.07326099999999999,0.9600179999999999,-0.32939999999999997
1629894743876,-0.072529,0.966484,-0.34141699999999997
1629894743885,-0.063135,0.964471,-0.356606
1629894743895,-0.052399,0.940498,-0.351848
1629894743904,-0.033977,0.901153,-0.33427999999999997
1629894743914,-0.014823,0.8614419999999999,-0.318359
1629894743924,0.002562,0.830881,-0.312869
1629894743933,0.017568,0.817034,-0.326716
1629894743943,0.028121,0.801723,-0.341295
1629894743952,0.031842,0.776286,-0.34526
1629894743962,0.03233,0.744932,-0.3416
1629894743972,0.032390999999999996,0.715469,-0.332816
1629894743981,0.032452,0.694668,-0.323605
1629894743991,0.032269,0.678503,-0.31659
1629894744000,0.03782,0.669902,-0.319762
1629894744010,0.044957,0.666364,-0.327448
1629894744020,0.046116,0.667401,-0.33916
1629894744029,0.046421,0.669048,-0.350018
1629894744039,0.042395,0.668499,-0.35502
1629894744048,0.040748,0.6682549999999999,-0.35831399999999997
1629894744058,0.038551999999999996,0.673501,-0.36234
1629894744068,0.036295,0.686555,-0.371978
1629894744077,0.038551999999999996,0.7059529999999999,-0.386618
1629894744087,0.041053,0.7287669999999999,-0.403454
1629894744096,0.03843,0.744261,-0.40748
1629894744106,0.032574,0.770491,-0.416447
1629894744116,0.034099,0.796782,-0.434015
1629894744125,0.032452,0.818925,-0.438834
1629894744135,0.028059999999999998,0.833504,-0.443104
1629894744144,0.022753,0.8568669999999999,-0.457378
1629894744154,0.010614,0.92232,-0.496784
1629894744164,0.011346,1.02236,-0.585051
1629894744173,0.020739999999999998,1.017846,-0.59292
1629894744183,0.003355,0.97417,-0.527162
1629894744192,-0.0026839999999999998,0.9995459999999999,-0.52338
1629894744202,-0.0017079999999999999,1.086532,-0.598593
1629894744212,0.0,1.13887,-0.656177
1629894744221,0.002806,1.124596,-0.6417809999999999
1629894744231,0.011467999999999999,1.10776,-0.593652
1629894744240,0.028914,1.187853,-0.616161
1629894744250,0.043676,1.3108899999999999,-0.6907639999999999
1629894744260,0.041358,1.35847,-0.72102
1629894744269,0.033794,1.3301049999999999,-0.692167
1629894744279,0.042638999999999996,1.282891,-0.666181
1629894744288,0.064965,1.268739,-0.684603
1629894744298,0.110166,1.170224,-0.664717
1629894744308,0.15268299999999999,0.99247,-0.5626639999999999
1629894744317,0.195627,0.912682,-0.518317
1629894744327,0.251076,0.913292,-0.543449
1629894744336,0.286517,0.871812,-0.519964
1629894744346,0.29707,0.872239,-0.48989099999999997
1629894744356,0.301218,0.9456829999999999,-0.518317
1629894744365,0.29365399999999997,0.958249,-0.521428
1629894744375,0.268461,0.913414,-0.465308
1629894744384,0.248941,0.848815,-0.404674
1629894744394,0.232349,0.806908,-0.384056
1629894744404,0.220332,0.799405,-0.411445
1629894744413,0.20782699999999998,0.794708,-0.44243299999999997
1629894744423,0.184952,0.809165,-0.478118
1629894744432,0.165188,0.808921,-0.504531
1629894744442,0.14335,0.773175,-0.493063
1629894744452,0.120902,0.7309019999999999,-0.467504
1629894744461,0.104798,0.70272,-0.448716
1629894744471,0.086437,0.681492,-0.435357
1629894744480,0.063867,0.668377,-0.428525
1629894744490,0.044957,0.656421,-0.425963
1629894744500,0.026108,0.638243,-0.421022
1629894744509,0.008723,0.624396,-0.421266
1629894744519,-0.00366,0.615063,-0.428647
1629894744528,-0.015921,0.608963,-0.43572299999999997
1629894744538,-0.029341,0.605181,-0.440237
1629894744548,-0.040320999999999996,0.605669,-0.444141
1629894744557,-0.049166,0.605059,-0.442494
1629894744567,-0.054412,0.612013,-0.445361
1629894744576,-0.056303,0.622444,-0.452437
1629894744586,-0.058621,0.637938,-0.46250199999999997
1629894744596,-0.062708,0.659532,-0.478972
1629894744605,-0.069052,0.687531,-0.506544
1629894744615,-0.07747,0.7102229999999999,-0.529419
1629894744624,-0.086925,0.726388,-0.5404599999999999
1629894744634,-0.09143899999999999,0.731268,-0.543998
1629894744644,-0.095709,0.734013,-0.549183
1629894744653,-0.09881999999999999,0.748592,-0.570472
1629894744663,-0.10052799999999999,0.762683,-0.59536
1629894744672,-0.10553,0.757864,-0.601399
1629894744682,-0.110044,0.753167,-0.6039
1629894744692,-0.115717,0.767929,-0.621712
1629894744701,-0.12456199999999999,0.804956,-0.655262
1629894744711,-0.13419999999999999,0.839055,-0.690581
1629894744720,-0.146583,0.850523,-0.701073
1629894744730,-0.15799,0.870043,-0.701134
1629894744740,-0.164883,0.929945,-0.737551
1629894744749,-0.170617,1.00162,-0.796294
1629894744759,-0.17629,1.040294,-0.829539
1629894744768,-0.17299599999999998,1.041148,-0.818254
1629894744778,-0.154879,1.029741,-0.784216
1629894744788,-0.132492,1.0340719999999999,-0.763964
1629894744797,-0.129503,1.117337,-0.81252
1629894744807,-0.131882,1.241533,-0.927261
1629894744816,-0.138409,1.2239039999999999,-0.917013
1629894744826,-0.156282,1.111359,-0.7838499999999999
1629894744836,-0.157502,1.0346819999999999,-0.669658
1629894744845,-0.14152,1.004914,-0.62464
1629894744855,-0.11102,0.903593,-0.52216
1629894744864,-0.09638,0.768417,-0.35014
1629894744874,-0.10406599999999999,0.742614,-0.24570799999999998
1629894744884,-0.11577799999999999,0.865651,-0.312625
1629894744893,-0.11699799999999999,1.011014,-0.43938299999999997
1629894744903,-0.121146,1.051213,-0.456707
1629894744912,-0.132004,1.031144,-0.39833
1629894744922,-0.122915,1.0309,-0.387472
1629894744932,-0.107787,1.0319369999999999,-0.406626
1629894744941,-0.100711,1.036756,-0.42029
1629894744951,-0.097173,1.03578,-0.418643
1629894744960,-0.09943,1.027118,-0.4148
1629894744970,-0.104005,1.029253,-0.420595
1629894744980,-0.102602,1.037488,-0.441396
1629894744989,-0.090158,1.026264,-0.456097
1629894744999,-0.066917,0.98942,-0.457317
1629894745008,-0.039406,0.936411,-0.444324
1629894745018,-0.015738,0.8845609999999999,-0.437431
1629894745028,0.004575,0.842227,-0.43968799999999997
1629894745037,0.013786,0.803492,-0.438712
1629894745047,0.017324,0.757742,-0.42639
1629894745056,0.015189,0.705282,-0.40272199999999997
1629894745066,0.012749,0.65514,-0.381189
1629894745076,0.010614,0.6214069999999999,-0.371917
1629894745085,0.013115,0.609573,-0.384605
1629894745095,0.019459,0.607621,-0.406443
1629894745104,0.022509,0.60146,-0.42401099999999997
1629894745114,0.022203999999999998,0.591334,-0.426878
1629894745124,0.020496,0.589504,-0.43005
1629894745133,0.018056,0.5934079999999999,-0.444507
1629894745143,0.014152,0.5970679999999999,-0.454572
1629894745152,0.00793,0.597861,-0.455304
1629894745162,0.0008539999999999999,0.600789,-0.454084
1629894745172,-0.0046359999999999995,0.612745,-0.461709
1629894745181,-0.010369999999999999,0.637999,-0.478118
1629894745191,-0.018543999999999998,0.664961,-0.501298
1629894745200,-0.025803,0.686616,-0.518744
1629894745210,-0.028426,0.7032079999999999,-0.532591
1629894745220,-0.031903,0.7172379999999999,-0.543022
1629894745229,-0.036539,0.7299869999999999,-0.552172
1629894745239,-0.041479999999999996,0.739564,-0.554185
1629894745248,-0.052337999999999996,0.784216,-0.577914
1629894745258,-0.061793,0.861259,-0.647698
1629894745268,-0.066612,0.9031049999999999,-0.684908
1629894745277,-0.077287,0.898713,-0.664412
1629894745287,-0.082716,0.894382,-0.641842
1629894745296,-0.08497299999999999,0.9502579999999999,-0.693875
1629894745306,-0.08790099999999999,1.020652,-0.773175
1629894745316,-0.090463,1.037793,-0.781288
1629894745325,-0.084546,1.017724,-0.721874
1629894745335,-0.055632,1.022726,-0.669109
1629894745344,-0.035136,1.106113,-0.694485
1629894745354,-0.030134,1.2321389999999999,-0.7878149999999999
1629894745364,-0.029341,1.272948,-0.834114
1629894745373,-0.032269,1.221891,-0.800625
1629894745383,-0.014029999999999999,1.159793,-0.769881
1629894745392,0.019825,1.121424,-0.779092
1629894745402,0.066673,1.033401,-0.7509709999999999
1629894745412,0.110044,0.895358,-0.63867
1629894745421,0.155184,0.829417,-0.580659
1629894745431,0.19550499999999998,0.8291729999999999,-0.594201
1629894745440,0.210206,0.854305,-0.627202
1629894745450,0.200995,0.903898,-0.6636799999999999
1629894745460,0.190137,0.919392,-0.6700849999999999
1629894745469,0.169336,0.881694,-0.615978
1629894745479,0.156709,0.840397,-0.572302
1629894745488,0.15268299999999999,0.79849,-0.553331
1629894745498,0.14945,0.769027,-0.553392
1629894745508,0.142374,0.7598159999999999,-0.571448
1629894745517,0.130296,0.771406,-0.606279
1629894745527,0.114497,0.768478,-0.623969
1629894745536,0.09436699999999999,0.743224,-0.6085969999999999
1629894745546,0.080886,0.704611,-0.572668
1629894745556,0.07137,0.67161,-0.532164
1629894745565,0.062464,0.656726,-0.506483
1629894745575,0.05063,0.642208,-0.478606
1629894745584,0.031964,0.634339,-0.454572
1629894745594,0.014518,0.628239,-0.442189
1629894745604,0.000732,0.621773,-0.44225
1629894745613,-0.011407,0.613965,-0.446459
1629894745623,-0.018543999999999998,0.6110369999999999,-0.45383999999999997
1629894745632,-0.023972999999999998,0.6131719999999999,-0.463905
1629894745642,-0.030073,0.617015,-0.470554
1629894745652,-0.037637,0.622627,-0.477813
1629894745661,-0.045323,0.626531,-0.48031399999999996
1629894745671,-0.051911,0.62647,-0.478301
1629894745680,-0.054960999999999996,0.625006,-0.471835
1629894745690,-0.051972,0.625433,-0.46799199999999996
1629894745700,-0.048007,0.629032,-0.467626
1629894745709,-0.047092,0.6399509999999999,-0.471957
1629894745719,-0.048068,0.654164,-0.47939899999999996
1629894745728,-0.053801999999999996,0.672342,-0.495259
1629894745738,-0.056486,0.691862,-0.514657
1629894745748,-0.061549,0.7157129999999999,-0.539972
1629894745757,-0.064965,0.743346,-0.570838
1629894745767,-0.06954,0.767563,-0.593957
1629894745776,-0.072102,0.776774,-0.60634
1629894745786,-0.07942199999999999,0.778299,-0.615978
1629894745796,-0.092842,0.801845,-0.647759
1629894745805,-0.104493,0.8383229999999999,-0.699731
1629894745815,-0.109129,0.846863,-0.725778
1629894745824,-0.116022,0.8513769999999999,-0.723216
1629894745834,-0.127368,0.900238,-0.747067
1629894745844,-0.141032,0.981368,-0.808677
1629894745853,-0.150121,1.0401719999999999,-0.865041
1629894745863,-0.152927,1.050359,-0.870897
1629894745872,-0.145241,1.036756,-0.837347
1629894745882,-0.125172,1.0294969999999999,-0.799588
1629894745892,-0.110654,1.066097,-0.803797
1629894745901,-0.117547,1.172542,-0.898957
1629894745911,-0.133468,1.21939,-0.9861869999999999
1629894745920,-0.16128399999999998,1.16083,-0.936716
1629894745930,-0.185135,1.077504,-0.8239879999999999
1629894745940,-0.193919,1.042673,-0.741333
1629894745949,-0.189222,1.001681,-0.675148
1629894745959,-0.173728,0.909693,-0.548634
1629894745968,-0.155306,0.808677,-0.396195
1629894745978,-0.15006,0.7646959999999999,-0.298046
1629894745988,-0.163297,0.825879,-0.32696
1629894745997,-0.17854699999999998,0.937082,-0.443592
1629894746007,-0.198555,0.990274,-0.507642
1629894746016,-0.223016,0.992714,-0.499224
1629894746026,-0.225456,0.976244,-0.474397
1629894746036,-0.21716,0.94977,-0.451827
1629894746045,-0.210877,0.9350689999999999,-0.45566999999999996
1629894746055,-0.201788,0.919026,-0.469944
1629894746064,-0.207949,0.901214,-0.47360399999999997
1629894746074,-0.22082,0.896273,-0.491355
1629894746084,-0.226859,0.880474,-0.507276
1629894746093,-0.226371,0.844667,-0.496174
1629894746103,-0.214232,0.800137,-0.476776
1629894746112,-0.190808,0.7534109999999999,-0.458598
1629894746122,-0.167506,0.713212,-0.445239
1629894746132,-0.145546,0.6846639999999999,-0.446337
1629894746141,-0.127856,0.663314,-0.455792
1629894746151,-0.113948,0.6402559999999999,-0.457988
1629894746160,-0.105042,0.613294,-0.446154
1629894746170,-0.10083299999999999,0.590236,-0.431819
1629894746180,-0.099796,0.574376,-0.426207
1629894746189,-0.100711,0.56547,-0.433344
1629894746199,-0.102297,0.5623589999999999,-0.447191
1629894746208,-0.105164,0.559675,-0.457317
1629894746218,-0.108153,0.556869,-0.454999
1629894746228,-0.111874,0.553819,-0.44682499999999997
1629894746237,-0.113826,0.5551,-0.43816299999999997
1629894746247,-0.115534,0.561261,-0.43846799999999997
1629894746256,-0.116327,0.576084,-0.452132
1629894746266,-0.122,0.597373,-0.47641
1629894746276,-0.134078,0.624518,-0.508069
1629894746285,-0.146644,0.653127,-0.540643
1629894746295,-0.15616,0.674477,-0.558943
1629894746304,-0.167384,0.694668,-0.5708989999999999
1629894746314,-0.17702199999999998,0.721386,-0.58377
1629894746324,-0.184586,0.741394,-0.5943229999999999
1629894746333,-0.189466,0.748653,-0.593835
1629894746343,-0.196176,0.763232,-0.610976
1629894746352,-0.20935199999999998,0.8261229999999999,-0.674599
1629894746362,-0.22539499999999998,0.912621,-0.798063
1629894746372,-0.228018,0.912621,-0.804712
1629894746381,-0.238754,0.868091,-0.717299
1629894746391,-0.247477,0.873154,-0.700768
1629894746400,-0.25638299999999997,0.9259189999999999,-0.781532
1629894746410,-0.26900999999999997,0.963495,-0.842349
1629894746420,-0.271938,0.960445,-0.82411
1629894746429,-0.260226,0.961482,-0.771711
1629894746439,-0.243634,1.041819,-0.792878
1629894746448,-0.238205,1.150521,-0.880779
1629894746458,-0.238998,1.1910859999999999,-0.915
1629894746468,-0.239791,1.15656,-0.87474
1629894746477,-0.222162,1.092022,-0.825086
1629894746487,-0.186416,1.0328519999999999,-0.800015
1629894746496,-0.129198,0.953735,-0.770918
1629894746506,-0.053436,0.851194,-0.676917
1629894746516,0.017263,0.799283,-0.607621
1629894746525,0.066246,0.812581,-0.612013
1629894746535,0.084485,0.861808,-0.664168
1629894746544,0.070272,0.924882,-0.731634
1629894746554,0.045871999999999996,0.959225,-0.778604
1629894746564,0.018666,0.919087,-0.732
1629894746573,-0.00122,0.84241,-0.650931
1629894746583,-0.005612,0.769698,-0.592066
1629894746592,0.0025009999999999998,0.7342569999999999,-0.586942
1629894746602,0.012199999999999999,0.72529,-0.614209
1629894746612,0.012993,0.728279,-0.651785
1629894746621,0.00366,0.724436,-0.67893
1629894746631,-0.006954,0.69662,-0.6797839999999999
1629894746640,-0.011712,0.653859,-0.642818
1629894746650,-0.015677,0.612135,-0.583831
1629894746660,-0.021411,0.585234,-0.537593
1629894746669,-0.031903,0.567605,-0.504165
1629894746679,-0.04697,0.556686,-0.48470599999999997
1629894746688,-0.061732,0.544547,-0.475373
1629894746698,-0.074115,0.532896,-0.474946
1629894746708,-0.084851,0.522648,-0.480253
1629894746717,-0.094184,0.5164259999999999,-0.48922
1629894746727,-0.103944,0.517585,-0.49654
1629894746736,-0.113216,0.528016,-0.510265
1629894746746,-0.122671,0.538996,-0.521489
1629894746756,-0.130845,0.552477,-0.528077
1629894746765,-0.13786,0.564555,-0.527955
1629894746775,-0.141154,0.573949,-0.52399
1629894746784,-0.1403,0.581025,-0.520818
1629894746794,-0.137067,0.592249,-0.525149
1629894746804,-0.134444,0.605425,-0.544059
1629894746813,-0.138348,0.61793,-0.560163
1629894746823,-0.143838,0.626226,-0.575535
1629894746832,-0.145546,0.631899,-0.582916
1629894746842,-0.149145,0.640378,-0.587369
1629894746852,-0.155184,0.655079,-0.600972
1629894746861,-0.160186,0.675209,-0.626958
1629894746871,-0.161101,0.694363,-0.653981
1629894746880,-0.161894,0.713334,-0.678381
1629894746890,-0.172935,0.742675,-0.71126
1629894746900,-0.186904,0.762805,-0.742614
1629894746909,-0.199043,0.758352,-0.744383
1629894746919,-0.212341,0.7668309999999999,-0.745786
1629894746928,-0.23710699999999998,0.8224629999999999,-0.795867
1629894746938,-0.268278,0.899506,-0.869799
1629894746948,-0.288774,0.953979,-0.917013
1629894746957,-0.288347,0.970571,-0.9128649999999999
1629894746967,-0.268461,0.970815,-0.8821209999999999
1629894746976,-0.237473,0.981551,-0.859673
1629894746986,-0.226371,1.040599,-0.892186
1629894746996,-0.236253,1.117215,-0.977525
1629894747005,-0.26126299999999997,1.118374,-0.986065
1629894747015,-0.29402,1.0815299999999999,-0.917135
1629894747024,-0.311283,1.047614,-0.831369
1629894747034,-0.31829799999999997,1.02236,-0.755485
1629894747044,-0.311527,0.9767319999999999,-0.656421
1629894747053,-0.290238,0.909876,-0.52704
1629894747063,-0.259921,0.8380179999999999,-0.386862
1629894747072,-0.24644,0.821243,-0.315248
1629894747082,-0.263276,0.901702,-0.371978
1629894747092,-0.291153,0.988383,-0.48495
1629894747101,-0.322629,1.000461,-0.519659
1629894747111,-0.34568699999999997,0.980453,-0.506788
1629894747120,-0.345626,0.953979,-0.488854
1629894747130,-0.336964,0.9317139999999999,-0.469456
1629894747140,-0.325191,0.913841,-0.456524
1629894747149,-0.318786,0.897554,-0.450424
1629894747159,-0.323788,0.8936499999999999,-0.460794
1629894747168,-0.329278,0.89182,-0.491355
1629894747178,-0.323056,0.86864,-0.505995
1629894747188,-0.307257,0.825574,-0.49946799999999997
1629894747197,-0.28041699999999997,0.774151,-0.480192
1629894747207,-0.254309,0.721935,-0.452437
1629894747216,-0.229604,0.682468,-0.433222
1629894747226,-0.210572,0.653127,-0.426512
1629894747236,-0.196542,0.626592,-0.42456
1629894747245,-0.186172,0.596824,-0.41565399999999997
1629894747255,-0.17976699999999998,0.570411,-0.40485699999999997
1629894747264,-0.173911,0.553209,-0.399489
1629894747274,-0.16897,0.541619,-0.397415
1629894747284,-0.16469999999999999,0.537166,-0.40321
1629894747293,-0.15982,0.540277,-0.415471
1629894747303,-0.15616,0.5471699999999999,-0.428464
1629894747312,-0.153964,0.55632,-0.44103
1629894747322,-0.156221,0.566812,-0.457256
1629894747332,-0.162382,0.580049,-0.473116
1629894747341,-0.167018,0.594384,-0.489769
1629894747351,-0.172569,0.610183,-0.49715
1629894747360,-0.17915699999999998,0.629703,-0.506422
1629894747370,-0.18934399999999998,0.656299,-0.5228309999999999
1629894747380,-0.198128,0.681187,-0.543449
1629894747389,-0.208925,0.708637,-0.56608
1629894747399,-0.216855,0.730536,-0.584136
1629894747408,-0.221735,0.744322,-0.591822
1629894747418,-0.223382,0.746152,-0.591151
1629894747428,-0.223504,0.747494,-0.598349
1629894747437,-0.225517,0.772626,-0.621712
1629894747447,-0.239059,0.8461919999999999,-0.685518
1629894747456,-0.247172,0.914878,-0.775676
1629894747466,-0.252601,0.893772,-0.74786
1629894747476,-0.269132,0.859734,-0.675819
1629894747485,-0.27755,0.892552,-0.701073
1629894747495,-0.279441,0.948184,-0.775432
1629894747504,-0.276818,0.969534,-0.80093
1629894747514,-0.256749,0.962275,-0.7668309999999999
1629894747524,-0.227042,0.98454,-0.728279
1629894747533,-0.216001,1.072563,-0.7674409999999999
1629894747543,-0.219295,1.1451529999999999,-0.830149
1629894747552,-0.22228399999999998,1.141432,-0.831796
1629894747562,-0.207278,1.089582,-0.791841
1629894747572,-0.17446,1.039318,-0.759938
1629894747581,-0.129076,1.008574,-0.763903
1629894747591,-0.069723,0.931348,-0.7272419999999999
1629894747600,-0.0046359999999999995,0.830637,-0.639768
1629894747610,0.051422999999999996,0.786717,-0.593286
1629894747620,0.087718,0.807396,-0.618113
1629894747629,0.09589199999999999,0.867176,-0.675026
1629894747639,0.082716,0.941779,-0.746213
1629894747648,0.066978,0.956419,-0.762134
1629894747658,0.048678,0.900177,-0.6928989999999999
1629894747668,0.042334,0.833199,-0.621712
1629894747677,0.042395,0.792268,-0.59963
1629894747687,0.047702,0.776896,-0.610854
1629894747696,0.049776,0.783728,-0.642269
1629894747706,0.047640999999999996,0.790621,-0.671122
1629894747716,0.039101,0.772748,-0.664168
1629894747725,0.028731,0.731146,-0.626409
1629894747735,0.024339,0.689727,-0.57828
1629894747744,0.019947,0.657458,-0.53253
1629894747754,0.012078,0.630435,-0.493917
1629894747764,0.000366,0.609695,-0.460306
1629894747773,-0.013481,0.598166,-0.43968799999999997
1629894747783,-0.022997,0.588345,-0.43432
1629894747792,-0.029036,0.579378,-0.433344
1629894747802,-0.032085999999999996,0.575352,-0.440176
1629894747812,-0.033306,0.578341,-0.449936
1629894747821,-0.035075,0.58682,-0.457073
1629894747831,-0.035929,0.5940179999999999,-0.45994
1629894747840,-0.0366,0.601765,-0.459574
1629894747850,-0.037942,0.608719,-0.454999
1629894747860,-0.039223,0.617991,-0.449509
1629894747869,-0.038613,0.629947,-0.443226
1629894747879,-0.036112,0.641415,-0.44090799999999997
1629894747888,-0.036173,0.652578,-0.442982
1629894747898,-0.036356,0.667218,-0.45322999999999997
1629894747908,-0.041358,0.683627,-0.47146899999999997
1629894747917,-0.049715,0.694546,-0.489159
1629894747927,-0.059047999999999996,0.705587,-0.508923
1629894747936,-0.06405,0.72529,-0.534421
1629894747946,-0.065941,0.75274,-0.568947
1629894747956,-0.066124,0.766587,-0.5909679999999999
1629894747965,-0.069662,0.767929,-0.599142
1629894747975,-0.07625,0.7783599999999999,-0.617381
1629894747984,-0.094611,0.821914,-0.662643
1629894747994,-0.109861,0.856196,-0.715164
1629894748004,-0.12383,0.861564,-0.72529
1629894748013,-0.143228,0.8954799999999999,-0.749873
1629894748023,-0.16036899999999998,0.962336,-0.813801
1629894748032,-0.175192,1.019249,-0.874374
1629894748042,-0.17854699999999998,1.035536,-0.8854759999999999
1629894748052,-0.165798,1.032181,-0.861259
1629894748061,-0.144326,1.027911,-0.828746
1629894748071,-0.129808,1.033828,-0.807762
1629894748080,-0.13969,1.095682,-0.847046
1629894748090,-0.159942,1.182119,-0.9575779999999999
1629894748100,-0.184586,1.17791,-0.975634
1629894748109,-0.21337799999999998,1.101721,-0.879254
1629894748119,-0.22326,1.035719,-0.770674
1629894748128,-0.216367,0.993507,-0.696254
1629894748138,-0.19733499999999998,0.9292739999999999,-0.614941
1629894748148,-0.17019,0.821304,-0.475922
1629894748157,-0.15914899999999998,0.734806,-0.32195799999999997
1629894748167,-0.176351,0.7783599999999999,-0.301279
1629894748176,-0.197457,0.928786,-0.460245
1629894748186,-0.219783,1.010831,-0.579683
1629894748196,-0.252906,1.003938,-0.571387
1629894748205,-0.262605,0.9688019999999999,-0.512034
1629894748215,-0.254675,0.940986,-0.475312
1629894748224,-0.25315,0.930616,-0.478301
1629894748234,-0.249246,0.9192089999999999,-0.488732
1629894748244,-0.255041,0.899262,-0.489525
1629894748253,-0.27053499999999997,0.88633,-0.503494
1629894748263,-0.281515,0.871568,-0.5237459999999999
1629894748272,-0.278099,0.840702,-0.523197
1629894748282,-0.258884,0.793671,-0.503799
1629894748292,-0.23094599999999998,0.7409669999999999,-0.474946
1629894748301,-0.20313,0.695034,-0.448289
1629894748311,-0.183671,0.659959,-0.441152
1629894748320,-0.169397,0.63379,-0.444995
1629894748330,-0.162077,0.6079869999999999,-0.446215
1629894748340,-0.159576,0.57828,-0.43968799999999997
1629894748349,-0.157746,0.548451,-0.427305
1629894748359,-0.158722,0.523624,-0.415898
1629894748368,-0.160003,0.508557,-0.413336
1629894748378,-0.15945399999999998,0.499712,-0.422181
1629894748388,-0.156099,0.494832,-0.436272
1629894748397,-0.156099,0.497089,-0.453779
1629894748407,-0.158112,0.50142,-0.473543
1629894748416,-0.167262,0.514047,-0.494527
1629894748426,-0.179889,0.5444249999999999,-0.527467
1629894748436,-0.191296,0.580476,-0.5675439999999999
1629894748445,-0.20166599999999998,0.6107319999999999,-0.593042
1629894748455,-0.20843699999999998,0.630496,-0.603229
1629894748464,-0.20862,0.644709,-0.602192
1629894748474,-0.204045,0.65392,-0.600362
1629894748484,-0.20008,0.667828,-0.603595
1629894748493,-0.198006,0.687165,-0.621346
1629894748503,-0.200873,0.7099179999999999,-0.64904
1629894748512,-0.206973,0.72529,-0.669963
1629894748522,-0.217526,0.736209,-0.683627
1629894748532,-0.235277,0.759328,-0.707539
1629894748541,-0.25986,0.801357,-0.7677459999999999
1629894748551,-0.270718,0.801357,-0.794403
1629894748560,-0.28163699999999997,0.770186,-0.763659
1629894748570,-0.298778,0.7746999999999999,-0.759084
1629894748580,-0.317871,0.824415,-0.831186
1629894748589,-0.336171,0.865529,-0.8976149999999999
1629894748599,-0.334341,0.8711409999999999,-0.898347
1629894748608,-0.308782,0.863028,-0.853573
1629894748618,-0.285358,0.890783,-0.835456
1629894748628,-0.288835,0.970876,-0.9003599999999999
1629894748637,-0.30012,1.036695,-0.981673
1629894748647,-0.302804,1.036695,-0.988383
1629894748656,-0.288957,1.003633,-0.957151
1629894748666,-0.252723,0.967948,-0.936045
1629894748676,-0.200812,0.915305,-0.916891
1629894748685,-0.131394,0.827282,-0.846863
1629894748695,-0.056729999999999996,0.744444,-0.76128
1629894748704,0.0025009999999999998,0.6928989999999999,-0.71797
1629894748714,0.034282,0.6858839999999999,-0.721203
1629894748724,0.032757,0.723643,-0.774761
1629894748733,0.007686,0.785253,-0.8608319999999999
1629894748743,-0.025803,0.81008,-0.899567
1629894748752,-0.045871999999999996,0.791048,-0.843325
1629894748762,-0.045871999999999996,0.743224,-0.745115
1629894748772,-0.030987999999999998,0.703696,-0.675331
1629894748781,-0.010431,0.684481,-0.656543
1629894748791,0.0028669999999999998,0.684298,-0.679723
1629894748800,-0.00042699999999999997,0.6904589999999999,-0.725473
1629894748810,-0.016165,0.676124,-0.745115
1629894748820,-0.031415,0.640378,-0.719617
1629894748829,-0.036234,0.596214,-0.664717
1629894748839,-0.036844,0.556076,-0.605059
1629894748848,-0.04209,0.526918,-0.553758
1629894748858,-0.052765,0.510021,-0.52338
1629894748868,-0.065941,0.499895,-0.514352
1629894748877,-0.078751,0.489037,-0.510692
1629894748887,-0.09028,0.479826,-0.507398
1629894748896,-0.095526,0.473177,-0.511485
1629894748906,-0.100894,0.469578,-0.517524
1629894748916,-0.107482,0.47031,-0.518744
1629894748925,-0.11638799999999999,0.472201,-0.523502
1629894748935,-0.126758,0.47885,-0.528748
1629894748944,-0.135664,0.49166,-0.535824
1629894748954,-0.139263,0.505873,-0.542717
1629894748964,-0.14249599999999998,0.523014,-0.551623
1629894748973,-0.148535,0.538508,-0.562115
1629894748983,-0.15481799999999998,0.556869,-0.578768
1629894748992,-0.159881,0.572302,-0.599691
1629894749002,-0.165188,0.58072,-0.607926
1629894749012,-0.169336,0.5870029999999999,-0.605059
1629894749021,-0.17019,0.602253,-0.615673
1629894749031,-0.171349,0.62586,-0.644099
1629894749040,-0.17324,0.650138,-0.672891
1629894749050,-0.175863,0.669841,-0.692106
1629894749060,-0.180133,0.686921,-0.7056479999999999
1629894749069,-0.195993,0.713456,-0.739686
1629894749079,-0.212341,0.73322,-0.784216
1629894749088,-0.222528,0.729438,-0.792695
1629894749098,-0.23125099999999998,0.737734,-0.7887299999999999
1629894749108,-0.251808,0.781959,-0.8377129999999999
1629894749117,-0.282918,0.845033,-0.932507
1629894749127,-0.3111,0.895358,-1.001254
1629894749136,-0.32043299999999997,0.913292,-1.005036
1629894749146,-0.30597599999999997,0.916525,-0.9606279999999999
1629894749156,-0.283345,0.936472,-0.926102
1629894749165,-0.28102699999999997,1.002657,-0.972706
1629894749175,-0.29768,1.059936,-1.053104
1629894749184,-0.325252,1.063047,-1.052677
1629894749194,-0.35404399999999997,1.036634,-0.984296
1629894749204,-0.373442,1.015955,-0.910181
1629894749213,-0.376614,0.990884,-0.836066
1629894749223,-0.364292,0.935191,-0.7138829999999999
1629894749232,-0.341661,0.864065,-0.55632
1629894749242,-0.316041,0.803492,-0.406321
1629894749252,-0.311161,0.80642,-0.344406
1629894749261,-0.333914,0.877973,-0.40382
1629894749271,-0.37094099999999997,0.956541,-0.521123
1629894749280,-0.403088,0.997167,-0.599752
1629894749290,-0.414678,0.991677,-0.62403
1629894749300,-0.415898,0.95282,-0.596275
1629894749309,-0.41138399999999997,0.909327,-0.557418
1629894749319,-0.407419,0.859856,-0.520147
1629894749328,-0.404674,0.81862,-0.495015
1629894749338,-0.404064,0.792817,-0.502274
1629894749348,-0.395402,0.769576,-0.525942
1629894749357,-0.378322,0.742614,-0.534543
1629894749367,-0.352702,0.7102229999999999,-0.527101
1629894749376,-0.312625,0.6694749999999999,-0.508618
1629894749386,-0.271023,0.629398,-0.47878899999999996
1629894749396,-0.235826,0.596824,-0.449509
1629894749405,-0.20380099999999998,0.571387,-0.437065
1629894749415,-0.181353,0.548268,-0.434808
1629894749424,-0.167506,0.524722,-0.433039
1629894749434,-0.160491,0.49837,-0.428769
1629894749444,-0.15420799999999998,0.480375,-0.427122
1629894749453,-0.15207299999999999,0.470737,-0.433832
1629894749463,-0.15006,0.46665,-0.44395799999999996
1629894749472,-0.146461,0.463356,-0.454267
1629894749482,-0.14310599999999998,0.46036699999999997,-0.458354
1629894749492,-0.14097099999999999,0.460611,-0.460916
1629894749501,-0.138653,0.46646699999999996,-0.465735
1629894749511,-0.14091,0.477691,-0.478423
1629894749520,-0.147254,0.495747,-0.501115
1629894749530,-0.156709,0.517707,-0.532408
1629894749540,-0.166286,0.5392399999999999,-0.559431
1629894749549,-0.178974,0.558089,-0.581269
1629894749559,-0.191967,0.579195,-0.600728
1629894749568,-0.206729,0.605791,-0.6204919999999999
1629894749578,-0.21594,0.628239,-0.636047
1629894749588,-0.222101,0.647027,-0.647027
1629894749597,-0.23607,0.674294,-0.668499
1629894749607,-0.261324,0.727364,-0.720654
1629894749616,-0.296643,0.796294,-0.818742
1629894749626,-0.31707799999999997,0.815692,-0.853878
1629894749636,-0.336537,0.792268,-0.804407
1629894749645,-0.354776,0.796355,-0.781532
1629894749655,-0.36905,0.841861,-0.8498519999999999
1629894749664,-0.390278,0.880047,-0.9256139999999999
1629894749674,-0.40302699999999997,0.8848659999999999,-0.935557
1629894749684,-0.39894,0.881999,-0.897798
1629894749693,-0.386435,0.918355,-0.884012
1629894749703,-0.392779,1.007598,-0.958432
1629894749712,-0.416447,1.064023,-1.053836
1629894749722,-0.43602799999999997,1.049688,-1.076406
1629894749732,-0.424804,1.003084,-1.04981
1629894749741,-0.376187,0.9563579999999999,-1.027789
1629894749751,-0.30414599999999997,0.898408,-0.993934
1629894749760,-0.205936,0.806786,-0.903593
1629894749770,-0.101504,0.726632,-0.785741
1629894749780,-0.015738,0.702903,-0.732
1629894749789,0.045871999999999996,0.709735,-0.726693
1629894749799,0.075396,0.746762,-0.750788
1629894749808,0.073749,0.801723,-0.804895
1629894749818,0.053314,0.8242929999999999,-0.84119
1629894749828,0.029036,0.791414,-0.806786
1629894749837,0.011895,0.735416,-0.743041
1629894749847,0.006344,0.674111,-0.6954
1629894749856,0.008052,0.630496,-0.6901539999999999
1629894749866,0.009699,0.60451,-0.707661
1629894749876,0.004941,0.5952379999999999,-0.733098
1629894749885,-0.0034159999999999998,0.58255,-0.7397469999999999
1629894749895,-0.012871,0.562298,-0.721813
1629894749904,-0.021045,0.539789,-0.690276
1629894749914,-0.024156,0.523868,-0.650504
1629894749924,-0.030805,0.506971,-0.604998
1629894749933,-0.042029,0.49471,-0.564311
1629894749943,-0.051301,0.48531599999999997,-0.53314
1629894749952,-0.05917,0.475861,-0.507947
1629894749962,-0.064416,0.46707699999999996,-0.49458799999999997
1629894749972,-0.067344,0.458232,-0.49111099999999996
1629894749981,-0.07448099999999999,0.44773999999999997,-0.490867
1629894749991,-0.083936,0.445056,-0.49702799999999997
1629894750000,-0.093452,0.45414499999999997,-0.5133759999999999
1629894750010,-0.10248,0.468114,-0.52948
1629894750020,-0.11114199999999999,0.483425,-0.529053
1629894750029,-0.12017,0.49946799999999997,-0.51911
1629894750039,-0.123769,0.51972,-0.514108
1629894750048,-0.12395199999999999,0.540948,-0.518378
1629894750058,-0.125477,0.565775,-0.531615
1629894750068,-0.128771,0.5940179999999999,-0.557662
1629894750077,-0.132858,0.616588,-0.580049
1629894750087,-0.140239,0.634278,-0.598898
1629894750096,-0.147864,0.654042,-0.614575
1629894750106,-0.152317,0.67588,-0.627568
1629894750116,-0.1586,0.699792,-0.647942
1629894750125,-0.159393,0.72529,-0.671549
1629894750135,-0.162199,0.756583,-0.707966
1629894750144,-0.17116599999999998,0.786351,-0.763842
1629894750154,-0.179096,0.8011739999999999,-0.808982
1629894750164,-0.184037,0.801296,-0.819535
1629894750173,-0.19093,0.810995,-0.82289
1629894750183,-0.207278,0.8532069999999999,-0.866749
1629894750192,-0.228628,0.909388,-0.946232
1629894750202,-0.24570799999999998,0.944646,-1.002901
1629894750212,-0.254797,0.9523929999999999,-1.002108
1629894750221,-0.247416,0.9481229999999999,-0.956907
1629894750231,-0.225761,0.947391,-0.905484
1629894750240,-0.210267,0.993873,-0.914207
1629894750250,-0.21398799999999998,1.072502,-1.015894
1629894750260,-0.22447999999999999,1.089338,-1.058594
1629894750269,-0.24631799999999998,1.044564,-0.983564
1629894750279,-0.261202,0.98027,-0.856074
1629894750288,-0.26169,0.921588,-0.741089
1629894750298,-0.251381,0.847961,-0.628056
1629894750308,-0.234179,0.751093,-0.46738199999999996
1629894750317,-0.233447,0.71431,-0.329522
1629894750327,-0.265167,0.795745,-0.338855
1629894750336,-0.301767,0.92964,-0.484462
1629894750346,-0.335683,1.006866,-0.601582
1629894750356,-0.35343399999999997,1.028521,-0.630008
1629894750365,-0.347456,1.011258,-0.5943229999999999
1629894750375,-0.331108,0.984418,-0.550769
1629894750384,-0.32226299999999997,0.956602,-0.517768
1629894750394,-0.324703,0.9283589999999999,-0.493734
1629894750404,-0.336781,0.9119499999999999,-0.495076
1629894750413,-0.341844,0.894138,-0.518012
1629894750423,-0.338916,0.862723,-0.529785
1629894750432,-0.324276,0.820755,-0.523197
1629894750442,-0.297802,0.769088,-0.509106
1629894750452,-0.262971,0.710772,-0.484523
1629894750461,-0.23125099999999998,0.658556,-0.456402
1629894750471,-0.206058,0.6168319999999999,-0.437492
1629894750480,-0.187209,0.585722,-0.432917
1629894750490,-0.175741,0.561505,-0.435784
1629894750500,-0.171532,0.535397,-0.43615
1629894750509,-0.159637,0.505324,-0.42675599999999997
1629894750519,-0.15298799999999999,0.481351,-0.414983
1629894750528,-0.145424,0.46555199999999997,-0.41199399999999997
1629894750538,-0.143838,0.45933,-0.426024
1629894750548,-0.1403,0.460184,-0.4453
1629894750557,-0.136274,0.459269,-0.459513
1629894750567,-0.134627,0.46494199999999997,-0.46787
1629894750576,-0.133224,0.475861,-0.473848
1629894750586,-0.142069,0.49855299999999997,-0.500322
1629894750596,-0.158295,0.529114,-0.549915
1629894750605,-0.172447,0.556686,-0.5856
1629894750615,-0.182512,0.574742,-0.59475
1629894750624,-0.190015,0.589626,-0.587735
1629894750634,-0.199592,0.6104269999999999,-0.604754
1629894750644,-0.198433,0.624518,-0.619211
1629894750653,-0.20008,0.6369009999999999,-0.636535
1629894750663,-0.226371,0.659532,-0.696925
1629894750672,-0.251991,0.725961,-0.767319
1629894750682,-0.271572,0.787754,-0.856074
1629894750692,-0.271938,0.791841,-0.813252
1629894750701,-0.278404,0.782081,-0.7409669999999999
1629894750711,-0.315126,0.80825,-0.8115439999999999
1629894750720,-0.340136,0.863943,-0.928908
1629894750730,-0.348066,0.890844,-0.970998
1629894750740,-0.344894,0.883402,-0.9317139999999999
1629894750749,-0.33244999999999997,0.871507,-0.876265
1629894750759,-0.328302,0.9067649999999999,-0.884805
1629894750768,-0.3599,0.969046,-0.9907009999999999
1629894750778,-0.387045,1.007842,-1.0821399999999999
1629894750788,-0.378139,1.006744,-1.074454
1629894750797,-0.338855,0.996618,-1.030839
1629894750807,-0.277306,0.99186,-1.017907
1629894750816,-0.20782699999999998,0.982466,-1.0267519999999999
1629894750826,-0.122061,0.930738,-0.968009
1629894750836,-0.029036,0.860344,-0.858575
1629894750845,0.049104999999999996,0.7999539999999999,-0.793366
1629894750855,0.112057,0.731146,-0.745908
1629894750864,0.14274,0.674416,-0.702964
1629894750874,0.12627,0.661362,-0.7370019999999999
1629894750884,0.106506,0.6794789999999999,-0.81313
1629894750893,0.093513,0.6867989999999999,-0.833504
1629894750903,0.09516,0.676185,-0.787388
1629894750912,0.09394,0.645685,-0.7093079999999999
1629894750922,0.097478,0.620309,-0.676978
1629894750932,0.088938,0.600484,-0.686311
1629894750941,0.081984,0.603534,-0.715225
1629894750951,0.084485,0.608475,-0.736331
1629894750960,0.087108,0.591761,-0.707722
1629894750970,0.085339,0.567666,-0.6554449999999999
1629894750980,0.067344,0.542778,-0.617991
1629894750989,0.059902,0.52216,-0.573339
1629894750999,0.035563,0.4941,-0.55754
1629894751008,0.016287,0.474336,-0.548756
1629894751018,0.001952,0.457317,-0.528504
1629894751028,-0.009271999999999999,0.452254,-0.51118
1629894751037,0.0023179999999999997,0.448777,-0.499407
1629894751047,-0.013237,0.443897,-0.49294099999999996
1629894751056,-0.010187,0.450424,-0.502884
1629894751066,-0.023729,0.45292499999999997,-0.52704
1629894751076,-0.046726,0.460916,-0.543144
1629894751085,-0.053191999999999996,0.47817899999999997,-0.5453399999999999
1629894751095,-0.07618899999999999,0.491172,-0.563335
1629894751104,-0.090097,0.509045,-0.589809
1629894751114,-0.113277,0.5200859999999999,-0.6098169999999999
1629894751124,-0.10498099999999999,0.541131,-0.609634
1629894751133,-0.094794,0.575596,-0.630069
1629894751143,-0.08326499999999999,0.604815,-0.644099
1629894751152,-0.092415,0.61549,-0.652578
1629894751162,-0.092842,0.635498,-0.652517
1629894751172,-0.099674,0.6454409999999999,-0.681065
1629894751181,-0.10315099999999999,0.652212,-0.67222
1629894751191,-0.113216,0.657153,-0.673745
1629894751200,-0.137128,0.684786,-0.7144929999999999
1629894751210,-0.146034,0.745969,-0.79605
1629894751220,-0.116754,0.796782,-0.8158139999999999
1629894751229,-0.134261,0.824781,-0.85644
1629894751239,-0.197518,0.820389,-0.8644919999999999
1629894751248,-0.223016,0.883524,-0.9429379999999999
1629894751258,-0.214964,0.946781,-1.009306
1629894751268,-0.214415,0.958432,-0.9721569999999999
1629894751277,-0.20380099999999998,0.967765,-0.901519
1629894751287,-0.178364,1.02907,-0.903654
1629894751296,-0.156526,1.141859,-1.016809
1629894751306,-0.139812,1.195478,-1.048712
1629894751316,-0.161406,1.189988,-0.993812
1629894751325,-0.211792,1.149789,-0.918538
1629894751335,-0.249368,1.112701,-0.8322229999999999
1629894751344,-0.24357299999999998,1.061705,-0.720471
1629894751354,-0.214415,0.957944,-0.516487
1629894751364,-0.18178,0.866139,-0.305427
1629894751373,-0.175924,0.843447,-0.213012
1629894751383,-0.191235,0.923601,-0.287127
1629894751392,-0.202032,1.05835,-0.39009499999999997
1629894751402,-0.188368,1.117276,-0.376187
1629894751412,-0.186782,1.157719,-0.350506
1629894751421,-0.140727,1.172054,-0.376492
1629894751431,-0.135908,1.1430179999999999,-0.403454
1629894751440,-0.11223999999999999,1.0876299999999999,-0.385459
1629894751450,-0.11956,1.043588,-0.374296
1629894751460,-0.114619,1.009062,-0.380091
1629894751469,-0.11638799999999999,0.96014,-0.383141
1629894751479,-0.112972,0.9095099999999999,-0.390156
1629894751488,-0.105469,0.847473,-0.393267
1629894751498,-0.07869,0.777994,-0.385276
1629894751508,-0.050996,0.718702,-0.371612
1629894751517,-0.029463,0.673196,-0.374296
1629894751527,-0.022875,0.6457459999999999,-0.406809
1629894751536,-0.012565999999999999,0.58072,-0.41382399999999997
1629894751546,-0.005246,0.554368,-0.42553599999999997
1629894751556,0.015372,0.529907,-0.423279
1629894751565,-0.002989,0.500688,-0.409737
1629894751575,-0.025193,0.465003,-0.42395
1629894751584,0.014579,0.462075,-0.359717
1629894751594,0.023667999999999998,0.4758,-0.405101
1629894751604,0.009211,0.449326,-0.438712
1629894751613,0.005856,0.42273,-0.422852
1629894751623,-0.005612,0.435601,-0.444751
1629894751632,-0.000122,0.463234,-0.46543
1629894751642,-0.024704999999999998,0.52216,-0.535031
1629894751652,-0.061488,0.578158,-0.601643
1629894751661,-0.12444,0.610183,-0.656482
1629894751671,-0.15311,0.6131719999999999,-0.671549
1629894751680,-0.159088,0.631838,-0.691008
1629894751690,-0.163358,0.653981,-0.718885
1629894751700,-0.162565,0.6630699999999999,-0.720898
1629894751709,-0.156099,0.686372,-0.711504
1629894751719,-0.156221,0.734928,-0.728279
1629894751728,-0.17934,0.84607,-0.818071
1629894751738,-0.175436,0.92964,-0.874862
1629894751748,-0.18178,0.9140849999999999,-0.784277
1629894751757,-0.215269,0.877363,-0.707966
1629894751767,-0.240767,0.906948,-0.807701
1629894751776,-0.244122,0.9712419999999999,-0.943914
1629894751786,-0.23003099999999999,1.003572,-0.980148
1629894751796,-0.214415,1.03395,-0.9432429999999999
1629894751805,-0.210877,1.093547,-0.980819
1629894751815,-0.21594,1.135515,-1.036695
1629894751824,-0.223138,1.124169,-1.019981
1629894751834,-0.201422,1.084763,-0.966118
1629894751844,-0.13694499999999998,1.037183,-0.891759
1629894751853,-0.058438,0.985028,-0.830759
1629894751863,0.040015999999999996,0.9034099999999999,-0.718397
1629894751872,0.145485,0.803431,-0.552416
1629894751882,0.206729,0.756644,-0.477325
1629894751892,0.217099,0.80703,-0.571021
1629894751901,0.214964,0.8873059999999999,-0.702049
1629894751911,0.213622,0.9110349999999999,-0.7163229999999999
1629894751920,0.20014099999999999,0.894382,-0.615978
1629894751930,0.187514,0.884927,-0.5441199999999999
1629894751940,0.168116,0.880962,-0.540948
1629894751949,0.159576,0.873764,-0.5623589999999999
1629894751959,0.150121,0.864675,-0.575962
1629894751968,0.146583,0.860039,-0.612623
1629894751978,0.139995,0.8346629999999999,-0.6332409999999999
1629894751988,0.121695,0.793854,-0.608841
1629894751997,0.099064,0.747738,-0.572851
1629894752007,0.08064199999999999,0.709369,-0.527345
1629894752016,0.07417599999999999,0.677649,-0.486292
1629894752026,0.070699,0.644404,-0.46238
1629894752036,0.046726,0.615551,-0.4453
1629894752045,0.041602,0.58377,-0.42492599999999997
1629894752055,0.040015999999999996,0.5611389999999999,-0.419558
1629894752064,0.031964,0.53253,-0.405345
1629894752074,0.022875,0.508618,-0.391376
1629894752084,0.00366,0.499102,-0.393267
1629894752093,-0.0062829999999999995,0.505568,-0.416325
1629894752103,-0.020191,0.50813,-0.429745
1629894752112,-0.035136,0.51484,-0.42309599999999997
1629894752122,-0.05307,0.530212,-0.42980599999999997
1629894752132,-0.056486,0.552965,-0.431209
1629894752141,-0.07002799999999999,0.577304,-0.458476
1629894752151,-0.075274,0.605547,-0.496357
1629894752160,-0.089792,0.634339,-0.537227
1629894752170,-0.104737,0.664412,-0.560102
1629894752180,-0.115412,0.692106,-0.56547
1629894752189,-0.10858,0.7184579999999999,-0.553453
1629894752199,-0.098637,0.747555,-0.541741
1629894752208,-0.098271,0.765672,-0.53192
1629894752218,-0.10284599999999999,0.8054439999999999,-0.563518
1629894752228,-0.108092,0.884744,-0.651541
1629894752237,-0.074115,0.94611,-0.706624
1629894752247,-0.057462,0.936716,-0.644892
1629894752256,-0.074603,0.915976,-0.589382
1629894752266,-0.101199,0.9712419999999999,-0.666608
1629894752276,-0.11083699999999999,1.082933,-0.824354
1629894752285,-0.103334,1.138809,-0.863089
1629894752295,-0.129381,1.117642,-0.779641
1629894752304,-0.141764,1.094706,-0.7099179999999999
1629894752314,-0.121085,1.11813,-0.68747
1629894752324,-0.098637,1.21085,-0.7610359999999999
1629894752333,-0.083082,1.293566,-0.881999
1629894752343,-0.093696,1.250378,-0.83448
1629894752352,-0.143167,1.176263,-0.702049
1629894752362,-0.17019,1.164917,-0.642513
1629894752372,-0.165371,1.153876,-0.613355
1629894752381,-0.156831,1.071587,-0.497577
1629894752391,-0.142313,0.921405,-0.279014
1629894752400,-0.155977,0.819901,-0.123891
1629894752410,-0.181536,0.848205,-0.150731
1629894752420,-0.192028,0.972706,-0.310429
1629894752429,-0.194346,1.050115,-0.386252
1629894752439,-0.224907,1.062803,-0.368928
1629894752448,-0.255468,1.064816,-0.389973
1629894752458,-0.266936,1.04249,-0.411567
1629894752468,-0.267668,1.026996,-0.430477
1629894752477,-0.248026,1.001559,-0.441091
1629894752487,-0.235643,0.97417,-0.430172
1629894752496,-0.236619,0.9697169999999999,-0.461831
1629894752506,-0.239181,0.951661,-0.489342
1629894752516,-0.244122,0.920917,-0.475068
1629894752525,-0.236924,0.890905,-0.458598
1629894752535,-0.21581799999999998,0.854793,-0.447557
1629894752544,-0.18727,0.816241,-0.432612
1629894752554,-0.158417,0.7878149999999999,-0.421388
1629894752564,-0.131882,0.760243,-0.415898
1629894752573,-0.116937,0.731878,-0.419375
1629894752583,-0.11223999999999999,0.697901,-0.413458
1629894752592,-0.108641,0.658678,-0.397415
1629894752602,-0.110898,0.618906,-0.385581
1629894752612,-0.10797,0.59353,-0.37759
1629894752621,-0.098393,0.582611,-0.384788
1629894752631,-0.08942599999999999,0.573827,-0.383019
1629894752640,-0.080764,0.572058,-0.3843
1629894752650,-0.07972699999999999,0.5614439999999999,-0.385947
1629894752660,-0.088328,0.547414,-0.38613
1629894752669,-0.090524,0.544486,-0.380335
1629894752679,-0.089975,0.545279,-0.382836
1629894752688,-0.094184,0.55388,-0.401868
1629894752698,-0.09406199999999999,0.570472,-0.42919599999999997
1629894752708,-0.105286,0.593591,-0.468724
1629894752717,-0.121085,0.634705,-0.52948
1629894752727,-0.131089,0.651968,-0.5551
1629894752736,-0.141764,0.653554,-0.557906
1629894752746,-0.15512299999999998,0.675758,-0.586576
1629894752756,-0.171349,0.730475,-0.661972
1629894752765,-0.203374,0.828746,-0.793061
1629894752775,-0.192821,0.845582,-0.81374
1629894752784,-0.223992,0.7902549999999999,-0.723155
1629894752794,-0.248636,0.810446,-0.748104
1629894752804,-0.240889,0.8976149999999999,-0.88328
1629894752813,-0.232227,0.96197,-0.969961
1629894752823,-0.242597,0.964593,-0.9487329999999999
1629894752832,-0.253272,0.948062,-0.881084
1629894752842,-0.251015,0.976366,-0.8775459999999999
1629894752852,-0.25132,1.049139,-0.972218
1629894752861,-0.245586,1.103734,-1.046394
1629894752871,-0.234911,1.105991,-1.024434
1629894752880,-0.207278,1.091778,-0.976
1629894752890,-0.15189,1.078236,-0.936838
1629894752900,-0.084363,1.0474919999999999,-0.878949
1629894752909,-0.00793,0.97051,-0.750727
1629894752919,0.07124799999999999,0.905423,-0.625799
1629894752928,0.153659,0.85827,-0.539118
1629894752938,0.199775,0.826855,-0.47824
1629894752948,0.20252,0.854549,-0.5152059999999999
1629894752957,0.199531,0.920368,-0.616161
1629894752967,0.197579,0.932141,-0.643245
1629894752976,0.163419,0.88999,-0.573095
1629894752986,0.138165,0.8559519999999999,-0.536129
1629894752996,0.136823,0.8337479999999999,-0.5191709999999999
1629894753005,0.144082,0.82472,-0.517402
1629894753015,0.147864,0.828807,-0.531798
1629894753024,0.144875,0.841129,-0.562847
1629894753034,0.141154,0.834846,-0.571631
1629894753044,0.136213,0.803736,-0.532591
1629894753053,0.121268,0.767868,-0.493063
1629894753063,0.117669,0.741333,-0.462258
1629894753072,0.112972,0.713456,-0.433893
1629894753082,0.098759,0.684298,-0.413763
1629894753092,0.08845,0.6606299999999999,-0.407358
1629894753101,0.079605,0.640073,-0.407114
1629894753111,0.067466,0.6137819999999999,-0.412238
1629894753120,0.055632,0.590419,-0.419741
1629894753130,0.045506,0.575657,-0.422913
1629894753140,0.031598,0.5705939999999999,-0.43633299999999997
1629894753149,0.019581,0.5734,-0.448838
1629894753159,0.008113,0.575718,-0.45078999999999997
1629894753168,-0.00793,0.573217,-0.44834999999999997
1629894753178,-0.026657,0.575474,-0.44926499999999997
1629894753188,-0.041846,0.584502,-0.46250199999999997
1629894753197,-0.049349,0.60207,-0.48531599999999997
1629894753207,-0.057401,0.61427,-0.510631
1629894753216,-0.062037,0.627873,-0.521367
1629894753226,-0.06770999999999999,0.635742,-0.520208
1629894753236,-0.065697,0.645868,-0.5176459999999999
1629894753245,-0.073627,0.68137,-0.569862
1629894753255,-0.06466,0.698938,-0.598776
1629894753264,-0.057706,0.723155,-0.600301
1629894753274,-0.076311,0.743285,-0.610793
1629894753284,-0.101687,0.797087,-0.700463
1629894753293,-0.117547,0.843813,-0.796782
1629894753303,-0.11651,0.823012,-0.7625
1629894753312,-0.11895,0.802211,-0.722789
1629894753322,-0.133041,0.865956,-0.819962
1629894753332,-0.133834,0.956907,-0.964898
1629894753341,-0.137128,0.997228,-0.996862
1629894753351,-0.11163,0.996069,-0.934337
1629894753360,-0.098759,0.99674,-0.848998
1629894753370,-0.08113,0.999668,-0.803797
1629894753380,-0.059841,1.023885,-0.815997
1629894753389,-0.05795,1.112518,-0.920856
1629894753399,-0.030683,1.171627,-0.991433
1629894753408,-0.027206,1.096841,-0.843996
1629894753418,-0.0732,1.006256,-0.665876
1629894753428,-0.11516799999999999,0.9688019999999999,-0.605852
1629894753437,-0.122671,0.95343,-0.588711
1629894753447,-0.089975,0.867725,-0.449814
1629894753456,-0.094428,0.727364,-0.220515
1629894753466,-0.142679,0.733281,-0.193553
1629894753476,-0.17202,0.923418,-0.422852
1629894753485,-0.155916,1.061339,-0.574376
1629894753495,-0.148596,1.058716,-0.487329
1629894753504,-0.175558,1.024312,-0.39711
1629894753514,-0.194102,1.0258369999999999,-0.40443
1629894753524,-0.192638,1.062193,-0.457927
1629894753533,-0.199714,1.058472,-0.451583
1629894753543,-0.20569199999999999,1.050969,-0.419558
1629894753552,-0.211487,1.060485,-0.43999299999999997
1629894753562,-0.217038,1.05103,-0.46116
1629894753572,-0.22082,1.0187,-0.453657
1629894753581,-0.209901,0.973926,-0.436821
1629894753591,-0.18666,0.925187,-0.417118
1629894753600,-0.164822,0.869128,-0.402783
1629894753610,-0.151158,0.813557,-0.398635
1629894753620,-0.139751,0.771406,-0.404796
1629894753629,-0.132858,0.7318169999999999,-0.412177
1629894753639,-0.12834399999999999,0.689666,-0.405955
1629894753648,-0.116815,0.64416,-0.3843
1629894753658,-0.11022699999999999,0.601826,-0.358497
1629894753668,-0.11254499999999999,0.57401,-0.35441
1629894753677,-0.116266,0.558577,-0.373991
1629894753687,-0.12505,0.548878,-0.40626
1629894753696,-0.126941,0.538569,-0.423462
1629894753706,-0.119804,0.530395,-0.41626399999999997
1629894753716,-0.111752,0.526125,-0.416996
1629894753725,-0.113094,0.534604,-0.431148
1629894753735,-0.109861,0.55449,-0.451522
1629894753744,-0.099186,0.565348,-0.457378
1629894753754,-0.101565,0.58011,-0.482388
1629894753764,-0.097722,0.602985,-0.504775
1629894753773,-0.108336,0.642025,-0.5617489999999999
1629894753783,-0.105591,0.6584949999999999,-0.578402
1629894753792,-0.11041,0.656238,-0.555466
1629894753802,-0.120292,0.676185,-0.555954
1629894753812,-0.132736,0.749751,-0.603229
1629894753821,-0.176961,0.818498,-0.719373
1629894753831,-0.156648,0.834114,-0.726876
1629894753840,-0.12895399999999999,0.8504619999999999,-0.684481
1629894753850,-0.137921,0.8781559999999999,-0.651541
1629894753860,-0.160247,0.950746,-0.723582
1629894753869,-0.17934,1.012783,-0.8133739999999999
1629894753879,-0.196237,1.026508,-0.853146
1629894753888,-0.20191,1.025593,-0.820694
1629894753898,-0.199958,1.067805,-0.8113
1629894753908,-0.20258099999999998,1.159,-0.86925
1629894753917,-0.19086899999999998,1.2327489999999999,-0.939156
1629894753927,-0.167384,1.243302,-0.954406
1629894753936,-0.131028,1.2235989999999999,-0.923418
1629894753946,-0.072407,1.203835,-0.893833
1629894753956,-0.003355,1.145885,-0.847961
1629894753965,0.082472,1.013942,-0.728096
1629894753975,0.180926,0.8644919999999999,-0.570045
1629894753984,0.253882,0.7792749999999999,-0.478118
1629894753994,0.29365399999999997,0.766587,-0.461038
1629894754004,0.291885,0.8115439999999999,-0.511851
1629894754013,0.279746,0.882792,-0.59536
1629894754023,0.28365,0.905972,-0.615063
1629894754032,0.29158,0.881023,-0.532957
1629894754042,0.30567099999999997,0.85888,-0.45322999999999997
1629894754052,0.309148,0.843325,-0.434015
1629894754061,0.30719599999999997,0.824171,-0.428708
1629894754071,0.299083,0.8285629999999999,-0.455243
1629894754080,0.285419,0.8492419999999999,-0.51423
1629894754090,0.263703,0.838567,-0.534543
1629894754100,0.24448799999999998,0.803736,-0.512156
1629894754109,0.219478,0.765428,-0.469944
1629894754119,0.201422,0.731634,-0.43615
1629894754128,0.17507,0.702598,-0.409127
1629894754138,0.149511,0.678076,-0.38295799999999997
1629894754148,0.125538,0.658739,-0.37332
1629894754157,0.10248,0.6384259999999999,-0.367952
1629894754167,0.081008,0.621224,-0.36478
1629894754176,0.05856,0.604876,-0.371978
1629894754186,0.042334,0.5921879999999999,-0.388448
1629894754196,0.031232,0.582184,-0.40485699999999997
1629894754205,0.01952,0.584624,-0.422608
1629894754215,0.0055509999999999995,0.585295,-0.430172
1629894754224,-0.008052,0.589382,-0.433527
1629894754234,-0.02135,0.5955429999999999,-0.437309
1629894754244,-0.034831,0.606706,-0.445727
1629894754253,-0.047030999999999996,0.623664,-0.45933
1629894754263,-0.058011,0.647698,-0.482022
1629894754272,-0.068625,0.6697799999999999,-0.495137
1629894754282,-0.074542,0.688812,-0.506422
1629894754292,-0.077775,0.70638,-0.5182559999999999
1629894754301,-0.076555,0.724924,-0.535702
1629894754311,-0.071065,0.73627,-0.55754
1629894754320,-0.061121999999999996,0.747738,-0.57157
1629894754330,-0.058438,0.7832399999999999,-0.588284
1629894754340,-0.07686,0.873398,-0.668316
1629894754349,-0.090646,0.935313,-0.774822
1629894754359,-0.097356,0.916525,-0.7899499999999999
1629894754368,-0.11516799999999999,0.905789,-0.762805
1629894754378,-0.13054,0.963434,-0.796355
1629894754388,-0.139019,1.047614,-0.8873059999999999
1629894754397,-0.135603,1.092388,-0.942694
1629894754407,-0.125599,1.0879349999999999,-0.918965
1629894754416,-0.108519,1.071404,-0.856379
1629894754426,-0.080093,1.068842,-0.826916
1629894754436,-0.059841,1.1222779999999999,-0.880962
1629894754445,-0.061671,1.181143,-0.978928
1629894754455,-0.076982,1.1289879999999999,-0.95038
1629894754464,-0.10144299999999999,1.031754,-0.8091039999999999
1629894754474,-0.117425,0.958615,-0.678991
1629894754484,-0.124013,0.9110349999999999,-0.5915779999999999
1629894754493,-0.113704,0.83814,-0.504104
1629894754503,-0.087108,0.716262,-0.327021
1629894754512,-0.097051,0.686311,-0.194956
1629894754522,-0.14005599999999999,0.829295,-0.288286
1629894754532,-0.163297,0.984784,-0.48122899999999996
1629894754541,-0.175619,1.038891,-0.532713
1629894754551,-0.190137,1.047248,-0.488854
1629894754560,-0.191235,1.042429,-0.458354
1629894754570,-0.190625,1.051762,-0.470066
1629894754580,-0.184159,1.056154,-0.481717
1629894754589,-0.186294,1.034194,-0.46482
1629894754599,-0.19947,1.010831,-0.455487
1629894754608,-0.223382,0.9837469999999999,-0.468175
1629894754618,-0.238998,0.9511729999999999,-0.47702
1629894754628,-0.238144,0.909022,-0.481046
1629894754637,-0.222223,0.853146,-0.47268899999999997
1629894754647,-0.197457,0.795196,-0.44926499999999997
1629894754656,-0.171044,0.738588,-0.428403
1629894754666,-0.149023,0.696742,-0.426634
1629894754676,-0.13078399999999998,0.667096,-0.43663799999999997
1629894754685,-0.122976,0.634644,-0.446459
1629894754695,-0.118462,0.59292,-0.443714
1629894754704,-0.11901099999999999,0.549732,-0.429928
1629894754714,-0.122122,0.514108,-0.418765
1629894754724,-0.126148,0.49550299999999997,-0.422608
1629894754733,-0.124928,0.487695,-0.434564
1629894754743,-0.119682,0.487268,-0.450058
1629894754752,-0.113826,0.489525,-0.463356
1629894754762,-0.109739,0.496174,-0.47604399999999997
1629894754772,-0.10729899999999999,0.509594,-0.489952
1629894754781,-0.108702,0.527406,-0.513925
1629894754791,-0.112728,0.539972,-0.541924
1629894754800,-0.114924,0.544791,-0.558638
1629894754810,-0.11870599999999999,0.550769,-0.5687639999999999
1629894754820,-0.128283,0.567727,-0.5894429999999999
1629894754829,-0.135542,0.586149,-0.606523
1629894754839,-0.142252,0.597617,-0.605364
1629894754848,-0.14884,0.620126,-0.60329
1629894754858,-0.163663,0.681492,-0.641293
1629894754868,-0.189588,0.784094,-0.762134
1629894754877,-0.202398,0.8325279999999999,-0.812825
1629894754887,-0.20679,0.825391,-0.756034
1629894754896,-0.219356,0.833626,-0.727608
1629894754906,-0.238815,0.892003,-0.814167
1629894754916,-0.260531,0.9520879999999999,-0.922442
1629894754925,-0.265472,0.977891,-0.960262
1629894754935,-0.252174,0.978928,-0.925858
1629894754944,-0.231678,0.990274,-0.87962
1629894754954,-0.226493,1.054873,-0.914024
1629894754964,-0.240828,1.1234979999999999,-1.003633
1629894754973,-0.238144,1.1344779999999999,-1.019859
1629894754983,-0.208376,1.111359,-0.978501
1629894754992,-0.15359799999999998,1.087386,-0.939156
1629894755002,-0.091317,1.067744,-0.928542
1629894755012,-0.014457,1.006744,-0.88389
1629894755021,0.057401,0.902983,-0.792634
1629894755031,0.158173,0.865468,-0.724863
1629894755040,0.212646,0.819169,-0.678869
1629894755050,0.232654,0.790072,-0.653615
1629894755060,0.221796,0.79849,-0.6840539999999999
1629894755069,0.193126,0.820328,-0.75823
1629894755079,0.152195,0.806908,-0.7801899999999999
1629894755088,0.120048,0.7686,-0.73932
1629894755098,0.10931199999999999,0.718885,-0.670268
1629894755108,0.110654,0.679296,-0.611586
1629894755117,0.114253,0.655872,-0.577243
1629894755127,0.111996,0.662399,-0.586942
1629894755136,0.10614,0.682041,-0.633729
1629894755146,0.08973099999999999,0.681675,-0.656848
1629894755156,0.067222,0.657946,-0.639524
1629894755165,0.048922,0.627385,-0.603168
1629894755175,0.034648,0.593835,-0.554551
1629894755184,0.018483,0.561383,-0.505568
1629894755194,0.000549,0.541192,-0.473848
1629894755204,-0.016836,0.530578,-0.46311199999999997
1629894755213,-0.035075,0.5170359999999999,-0.461648
1629894755223,-0.05063,0.50142,-0.46250199999999997
1629894755232,-0.066307,0.48348599999999997,-0.457256
1629894755242,-0.079178,0.46829699999999996,-0.452803
1629894755252,-0.093147,0.460123,-0.45017999999999997
1629894755261,-0.108702,0.459574,-0.452864
1629894755271,-0.121695,0.46890699999999996,-0.461526
1629894755280,-0.134749,0.49166,-0.479643
1629894755290,-0.151646,0.523624,-0.509655
1629894755300,-0.16958,0.560041,-0.5477799999999999
1629894755309,-0.19025899999999998,0.592981,-0.5873079999999999
1629894755319,-0.207766,0.612623,-0.617198
1629894755328,-0.22228399999999998,0.61549,-0.626165
1629894755338,-0.232044,0.6156119999999999,-0.625982
1629894755348,-0.235765,0.623664,-0.638853
1629894755357,-0.23668,0.6365959999999999,-0.660081
1629894755367,-0.23619199999999999,0.647271,-0.670146
1629894755376,-0.229848,0.658007,-0.6676449999999999
1629894755386,-0.227713,0.685701,-0.6800889999999999
1629894755396,-0.229543,0.742248,-0.724009
1629894755405,-0.23558199999999999,0.793671,-0.797636
1629894755415,-0.22600499999999998,0.8008689999999999,-0.808128
1629894755424,-0.218807,0.791048,-0.7777499999999999
1629894755434,-0.240828,0.821975,-0.80886
1629894755444,-0.276818,0.88389,-0.896334
1629894755453,-0.299388,0.936838,-0.940986
1629894755463,-0.291336,0.966606,-0.906399
1629894755472,-0.27572,1.007354,-0.8754109999999999
1629894755482,-0.271267,1.084824,-0.943365
1629894755492,-0.263093,1.143872,-1.023336
1629894755501,-0.266875,1.161989,-1.017724
1629894755511,-0.276208,1.163758,-0.948489
1629894755520,-0.269864,1.161867,-0.841739
1629894755530,-0.253211,1.147227,-0.742248
1629894755540,-0.219966,1.097329,-0.6146969999999999
1629894755549,-0.178303,1.019615,-0.459391
1629894755559,-0.137189,0.945622,-0.314699
1629894755568,-0.125904,0.939949,-0.271328
1629894755578,-0.130967,1.009184,-0.339221
1629894755588,-0.146461,1.082628,-0.43188
1629894755597,-0.16775,1.094279,-0.453108
1629894755607,-0.176595,1.079334,-0.455304
1629894755616,-0.166957,1.042673,-0.447984
1629894755626,-0.152866,1.00772,-0.432002
1629894755636,-0.137006,0.9706319999999999,-0.408822
1629894755645,-0.131821,0.9435479999999999,-0.387533
1629894755655,-0.13359,0.9329339999999999,-0.390461
1629894755664,-0.134078,0.91622,-0.40077
1629894755674,-0.131455,0.8848659999999999,-0.39955
1629894755684,-0.119072,0.844179,-0.400953
1629894755693,-0.098942,0.796294,-0.400709
1629894755703,-0.07198,0.755302,-0.403759
1629894755712,-0.044835,0.72041,-0.404979
1629894755722,-0.025986,0.6867989999999999,-0.40150199999999997
1629894755732,-0.015006,0.655262,-0.397903
1629894755741,-0.012078,0.622993,-0.38856999999999997
1629894755751,-0.016042999999999998,0.5903579999999999,-0.373686
1629894755760,-0.019093,0.567422,-0.364963
1629894755770,-0.021777,0.557906,-0.36966
1629894755780,-0.025681,0.553575,-0.373686
1629894755789,-0.032818,0.552111,-0.369538
1629894755799,-0.03843,0.552477,-0.372222
1629894755808,-0.044652,0.557052,-0.382104
1629894755818,-0.049166,0.5644939999999999,-0.400404
1629894755828,-0.053436,0.57279,-0.41595899999999997
1629894755837,-0.058621,0.576511,-0.424804
1629894755847,-0.07063799999999999,0.58926,-0.434808
1629894755856,-0.08234999999999999,0.608414,-0.463478
1629894755866,-0.082411,0.639158,-0.47573899999999997
1629894755876,-0.092964,0.673562,-0.484523
1629894755885,-0.107665,0.711077,-0.504287
1629894755895,-0.116632,0.725046,-0.510082
1629894755904,-0.134932,0.734379,-0.512034
1629894755914,-0.157258,0.779092,-0.549549
1629894755924,-0.18318299999999998,0.87474,-0.62403
1629894755933,-0.207583,0.9840519999999999,-0.744078
1629894755943,-0.22265,0.97417,-0.7418819999999999
1629894755952,-0.254492,0.917745,-0.647332
1629894755962,-0.27816,0.94245,-0.660752
1629894755972,-0.28072199999999997,1.013088,-0.7589009999999999
1629894755981,-0.286944,1.048712,-0.81313
1629894755991,-0.2806,1.042185,-0.795013
1629894756000,-0.25882299999999997,1.0401719999999999,-0.74908
1629894756010,-0.242414,1.088179,-0.7321219999999999
1629894756020,-0.238876,1.195417,-0.819047
1629894756029,-0.234911,1.249585,-0.892979
1629894756039,-0.221125,1.212558,-0.858758
1629894756048,-0.189161,1.152107,-0.778238
1629894756058,-0.123464,1.101416,-0.727181
1629894756068,-0.058621,1.043466,-0.683383
1629894756077,0.0026839999999999998,0.932873,-0.593957
1629894756087,0.051972,0.843935,-0.50203
1629894756096,0.088999,0.8371029999999999,-0.515877
1629894756106,0.121878,0.862784,-0.581818
1629894756116,0.12864899999999999,0.911096,-0.646356
1629894756125,0.130662,0.959225,-0.691191
1629894756135,0.127368,0.957395,-0.6603249999999999
1629894756144,0.114619,0.922747,-0.585905
1629894756154,0.101077,0.878583,-0.52399
1629894756164,0.086376,0.8571719999999999,-0.51057
1629894756173,0.073444,0.854,-0.535458
1629894756183,0.061549,0.862784,-0.551196
1629894756192,0.048922,0.881389,-0.56181
1629894756202,0.034587,0.872605,-0.5483899999999999
1629894756212,0.020435,0.8404579999999999,-0.51179
1629894756221,0.010248,0.800808,-0.470554
1629894756231,0.0030499999999999998,0.768295,-0.443714
1629894756240,-0.00976,0.7309019999999999,-0.420534
1629894756250,-0.02257,0.696681,-0.397842
1629894756260,-0.039101,0.6642899999999999,-0.384605
1629894756269,-0.052521,0.632143,-0.373259
1629894756279,-0.062708,0.602558,-0.362828
1629894756288,-0.070699,0.584319,-0.356545
1629894756298,-0.076372,0.580659,-0.353495
1629894756308,-0.07869,0.592249,-0.35343399999999997
1629894756317,-0.079788,0.6171369999999999,-0.350689
1629894756327,-0.07124799999999999,0.638548,-0.34465
1629894756336,-0.064111,0.651846,-0.338733
1629894756346,-0.056486,0.659471,-0.33031499999999997
1629894756356,-0.051727999999999996,0.687348,-0.343003
1629894756365,-0.062891,0.7047329999999999,-0.368135
1629894756375,-0.083509,0.714676,-0.40546699999999997
1629894756384,-0.1159,0.712175,-0.450546
1629894756394,-0.150609,0.703025,-0.481168
1629894756404,-0.166347,0.7080879999999999,-0.499407
1629894756413,-0.16469999999999999,0.727608,-0.518683
1629894756423,-0.153781,0.74725,-0.53497
1629894756432,-0.14066599999999999,0.755302,-0.544974
1629894756442,-0.132614,0.776408,-0.579134
1629894756452,-0.132431,0.851804,-0.647149
1629894756461,-0.123281,0.907802,-0.714249
1629894756471,-0.10931199999999999,0.888892,-0.681492
1629894756480,-0.100162,0.901336,-0.649223
1629894756490,-0.107665,1.000522,-0.709186
1629894756500,-0.11254499999999999,1.092266,-0.794769
1629894756509,-0.121207,1.0900699999999999,-0.7899499999999999
1629894756519,-0.123769,1.038708,-0.699792
1629894756528,-0.119133,1.027484,-0.621224
1629894756538,-0.126941,1.1347829999999999,-0.658312
1629894756548,-0.13237,1.272826,-0.797941
1629894756557,-0.144997,1.28283,-0.833687
1629894756567,-0.162138,1.234152,-0.754692
1629894756576,-0.161711,1.182302,-0.667828
1629894756586,-0.15372,1.133746,-0.585661
1629894756596,-0.14835199999999998,1.067622,-0.513803
1629894756605,-0.127795,0.929518,-0.360571
1629894756615,-0.123342,0.841739,-0.206729
1629894756624,-0.135969,0.940376,-0.256566
1629894756634,-0.127612,1.0763449999999999,-0.420656
1629894756644,-0.124806,1.10715,-0.44408
1629894756653,-0.133407,1.097634,-0.393206
1629894756663,-0.135542,1.085678,-0.374113
1629894756672,-0.142252,1.084214,-0.379115
1629894756682,-0.146095,1.080371,-0.380396
1629894756692,-0.150548,1.065426,-0.362706
1629894756701,-0.163724,1.056642,-0.358131
1629894756711,-0.17568,1.048712,-0.369477
1629894756720,-0.17854699999999998,1.019249,-0.368745
1629894756730,-0.169519,0.981734,-0.355813
1629894756740,-0.15268299999999999,0.94611,-0.349042
1629894756749,-0.132675,0.9037149999999999,-0.348066
1629894756759,-0.112362,0.854366,-0.35404399999999997
1629894756768,-0.092964,0.8042239999999999,-0.354898
1629894756778,-0.081008,0.7637809999999999,-0.364963
1629894756788,-0.070577,0.724436,-0.367464
1629894756797,-0.069113,0.673074,-0.346724
1629894756807,-0.078202,0.625311,-0.320616
1629894756816,-0.080215,0.591822,-0.312747
1629894756826,-0.06466,0.574132,-0.3111
1629894756836,-0.053801999999999996,0.561261,-0.311649
1629894756845,-0.047702,0.556259,-0.325923
1629894756855,-0.033306,0.560041,-0.33611
1629894756864,-0.035502,0.552233,-0.331291
1629894756874,-0.036234,0.546682,-0.340258
1629894756884,-0.042943999999999996,0.549061,-0.351238
1629894756893,-0.040809,0.55571,-0.360266
1629894756903,-0.041236,0.564921,-0.366427
1629894756912,-0.041419,0.583892,-0.379115
1629894756922,-0.037576,0.603351,-0.392596
1629894756932,-0.037881,0.636047,-0.401929
1629894756941,-0.044591,0.692777,-0.440847
1629894756951,-0.049898,0.73383,-0.479948
1629894756960,-0.065514,0.769149,-0.50752
1629894756970,-0.089182,0.823622,-0.55205
1629894756980,-0.110776,0.893406,-0.622139
1629894756989,-0.12749,0.911828,-0.638609
1629894756999,-0.160003,0.893894,-0.607865
1629894757008,-0.187514,0.918721,-0.615429
1629894757018,-0.2013,1.005463,-0.704977
1629894757028,-0.210572,1.076894,-0.791658
1629894757037,-0.205143,1.099586,-0.795257
1629894757047,-0.197518,1.0943399999999999,-0.731146
1629894757056,-0.19086899999999998,1.096841,-0.67588
1629894757066,-0.171349,1.12179,-0.652395
1629894757076,-0.16165,1.167357,-0.653249
1629894757085,-0.17263,1.2993,-0.7421869999999999
1629894757095,-0.165371,1.37738,-0.863211
1629894757104,-0.155977,1.295396,-0.824415
1629894757114,-0.150304,1.213656,-0.761097
1629894757124,-0.11083699999999999,1.150765,-0.744627
1629894757133,-0.07015,1.108675,-0.7394419999999999
1629894757143,-0.028121,0.999973,-0.69784
1629894757152,0.018056,0.8510719999999999,-0.5848679999999999
1629894757162,0.046116,0.781959,-0.5210009999999999
1629894757172,0.088999,0.790377,-0.543327
1629894757181,0.132065,0.812032,-0.5612
1629894757191,0.16439499999999999,0.868396,-0.573949
1629894757200,0.194468,0.905423,-0.584685
1629894757210,0.201788,0.904996,-0.557296
1629894757220,0.191723,0.884439,-0.517158
1629894757229,0.181536,0.844667,-0.47336
1629894757239,0.162443,0.837469,-0.463356
1629894757248,0.154696,0.841068,-0.475068
1629894757258,0.144936,0.853024,-0.482083
1629894757268,0.133041,0.866444,-0.504348
1629894757277,0.124928,0.847656,-0.497699
1629894757287,0.107116,0.8133739999999999,-0.461038
1629894757296,0.090951,0.789279,-0.434259
1629894757306,0.074054,0.769271,-0.419131
1629894757316,0.057279,0.740784,-0.396256
1629894757325,0.039162,0.71736,-0.381372
1629894757335,0.028487,0.697535,-0.379847
1629894757344,0.014945,0.67222,-0.373747
1629894757354,0.001464,0.651114,-0.364414
1629894757364,-0.007625,0.63989,-0.35831399999999997
1629894757373,-0.011895,0.636779,-0.36234
1629894757383,-0.020679,0.638975,-0.37063599999999997
1629894757392,-0.030012,0.6405609999999999,-0.379176
1629894757402,-0.036782999999999996,0.643733,-0.38064
1629894757412,-0.04514,0.653432,-0.377224
1629894757421,-0.047945999999999996,0.666913,-0.375577
1629894757431,-0.046787,0.681858,-0.383141
1629894757440,-0.053009,0.700585,-0.395768
1629894757450,-0.053131,0.736026,-0.418521
1629894757460,-0.05185,0.767624,-0.435296
1629894757469,-0.05307,0.780312,-0.438834
1629894757479,-0.054046,0.775798,-0.43163599999999996
1629894757488,-0.052886999999999997,0.785192,-0.434198
1629894757498,-0.049654,0.803248,-0.462075
1629894757508,-0.04331,0.812032,-0.482449
1629894757517,-0.041053,0.80459,-0.490684
1629894757527,-0.047030999999999996,0.8264279999999999,-0.51667
1629894757536,-0.053191999999999996,0.897737,-0.589504
1629894757546,-0.04453,0.910974,-0.629154
1629894757556,-0.045262,0.890783,-0.603778
1629894757565,-0.045566999999999996,0.928115,-0.602314
1629894757575,-0.053131,1.025349,-0.655201
1629894757584,-0.061305,1.108004,-0.702354
1629894757594,-0.06508699999999999,1.1289879999999999,-0.70577
1629894757604,-0.063806,1.107455,-0.658556
1629894757613,-0.060939,1.090192,-0.611586
1629894757623,-0.057888999999999996,1.123559,-0.604327
1629894757632,-0.063806,1.246047,-0.694729
1629894757642,-0.06161,1.308816,-0.778909
1629894757652,-0.073322,1.2428139999999999,-0.715225
1629894757661,-0.089853,1.151497,-0.593042
1629894757671,-0.09204899999999999,1.107394,-0.514352
1629894757680,-0.083387,1.066585,-0.470798
1629894757690,-0.066917,0.937631,-0.358375
1629894757700,-0.07063799999999999,0.801723,-0.193187
1629894757709,-0.097112,0.83753,-0.134688
1629894757719,-0.101992,1.036634,-0.262422
1629894757728,-0.094855,1.161257,-0.39997699999999997
1629894757738,-0.102907,1.161867,-0.378444
1629894757748,-0.121878,1.155706,-0.335012
1629894757757,-0.127063,1.16083,-0.334402
1629894757767,-0.13511499999999999,1.179435,-0.35319
1629894757776,-0.14249599999999998,1.168394,-0.349957
1629894757786,-0.155184,1.1407,-0.323056
1629894757796,-0.16622499999999998,1.128134,-0.31585799999999997
1629894757805,-0.165493,1.11569,-0.33488999999999997
1629894757815,-0.156831,1.082262,-0.348493
1629894757824,-0.137433,1.0325469999999999,-0.354471
