timestamp,ax,ay,az
1630937420104,-0.31072998046875,-0.02996826171875,0.94293212890625
1630937420104,-0.31561279296875,-0.02520751953125,0.9202880859375
1630937420105,-0.32513427734375,-0.0269775390625,0.902099609375
1630937420147,-0.33575439453125,-0.03204345703125,0.89019775390625
1630937420155,-0.337646484375,-0.031005859375,0.8822021484375
1630937420155,-0.342041015625,-0.03814697265625,0.87554931640625
1630937420245,-0.34454345703125,-0.0333251953125,0.87310791015625
1630937420246,-0.33026123046875,-0.02056884765625,0.89056396484375
1630937420247,-0.3336181640625,-0.0252685546875,0.87322998046875
1630937420277,-0.29632568359375,-0.0167236328125,1.00189208984375
1630937420278,-0.31683349609375,-0.02423095703125,0.96246337890625
1630937420289,-0.32177734375,-0.02264404296875,0.90643310546875
1630937420324,-0.279052734375,-0.010498046875,1.0228271484375
1630937420324,-0.25714111328125,-0.00921630859375,1.03240966796875
1630937420333,-0.24810791015625,-0.0076904296875,1.04473876953125
1630937420383,-0.2265625,0.0010986328125,1.0111083984375
1630937420383,-0.23529052734375,-0.00494384765625,1.03717041015625
1630937420383,-0.22467041015625,-0.000732421875,1.0277099609375
1630937420441,-0.233642578125,-0.00213623046875,0.9678955078125
1630937420441,-0.22955322265625,0.00164794921875,1.00274658203125
1630937420441,-0.2298583984375,-0.001953125,0.9853515625
1630937420502,-0.23895263671875,-0.0008544921875,0.954345703125
1630937420503,-0.2437744140625,-0.0045166015625,0.94677734375
1630937420507,-0.24859619140625,-0.00372314453125,0.94158935546875
1630937420562,-0.2618408203125,-0.01763916015625,0.9404296875
1630937420562,-0.26123046875,-0.01123046875,0.94024658203125
1630937420562,-0.251220703125,-0.0081787109375,0.94207763671875
1630937420622,-0.27899169921875,-0.03240966796875,0.94500732421875
1630937420622,-0.27362060546875,-0.03106689453125,0.94378662109375
1630937420622,-0.265625,-0.0257568359375,0.94720458984375
1630937420686,-0.2769775390625,-0.032470703125,0.94281005859375
1630937420687,-0.27490234375,-0.031982421875,0.94390869140625
1630937420687,-0.27783203125,-0.02789306640625,0.9483642578125
1630937420740,-0.281982421875,-0.02301025390625,0.955810546875
1630937420740,-0.27642822265625,-0.02203369140625,0.9549560546875
1630937420740,-0.27838134765625,-0.01959228515625,0.95684814453125
1630937420804,-0.27569580078125,-0.00872802734375,0.94488525390625
1630937420804,-0.27557373046875,-0.01214599609375,0.953857421875
1630937420804,-0.28387451171875,-0.01837158203125,0.955322265625
1630937420864,-0.28033447265625,-0.00811767578125,0.93902587890625
1630937420864,-0.282470703125,-0.00592041015625,0.9447021484375
1630937420864,-0.280029296875,-0.00628662109375,0.94940185546875
1630937420921,-0.28936767578125,-0.01824951171875,0.95574951171875
1630937420921,-0.28619384765625,-0.00921630859375,0.94415283203125
1630937420921,-0.2939453125,-0.0126953125,0.95068359375
1630937420977,-0.29803466796875,-0.0203857421875,0.9710693359375
1630937420978,-0.29266357421875,-0.02105712890625,0.97216796875
1630937420978,-0.2957763671875,-0.02264404296875,0.9632568359375
1630937421037,-0.3028564453125,-0.0272216796875,0.96759033203125
1630937421037,-0.29791259765625,-0.02252197265625,0.97747802734375
1630937421045,-0.29779052734375,-0.02685546875,0.9786376953125
1630937421114,-0.3021240234375,-0.0120849609375,0.94921875
1630937421114,-0.3040771484375,-0.029296875,0.953369140625
1630937421114,-0.30810546875,-0.0203857421875,0.946533203125
1630937421203,-0.29376220703125,-0.00567626953125,0.94091796875
1630937421203,-0.27105712890625,-0.00579833984375,0.94744873046875
1630937421204,-0.27923583984375,-0.00244140625,0.93072509765625
1630937421204,-0.27301025390625,-0.002197265625,0.94305419921875
1630937421204,-0.2886962890625,-0.003662109375,0.93621826171875
1630937421204,-0.2882080078125,-0.00390625,0.93658447265625
1630937421270,-0.2646484375,-0.00848388671875,0.9547119140625
1630937421270,-0.2637939453125,-0.00933837890625,0.9693603515625
1630937421270,-0.26568603515625,-0.00762939453125,0.96636962890625
1630937421335,-0.26519775390625,-0.01873779296875,0.960205078125
1630937421336,-0.26361083984375,-0.01727294921875,0.9599609375
1630937421336,-0.26568603515625,-0.01190185546875,0.9688720703125
1630937421383,-0.2801513671875,-0.0133056640625,0.95947265625
1630937421383,-0.27392578125,-0.02099609375,0.9693603515625
1630937421384,-0.266357421875,-0.02178955078125,0.95880126953125
1630937421487,-0.29473876953125,-0.009521484375,0.94921875
1630937421487,-0.30145263671875,-0.01031494140625,0.9576416015625
1630937421487,-0.28985595703125,-0.0115966796875,0.95269775390625
1630937421514,-0.319580078125,-0.0177001953125,0.95672607421875
1630937421514,-0.30859375,-0.009033203125,0.95538330078125
1630937421515,-0.3148193359375,-0.00982666015625,0.95513916015625
1630937421579,-0.33856201171875,-0.02471923828125,0.9285888671875
1630937421579,-0.33331298828125,-0.03265380859375,0.94146728515625
1630937421580,-0.324951171875,-0.02447509765625,0.9456787109375
1630937421625,-0.34417724609375,-0.0205078125,0.90234375
1630937421625,-0.353515625,-0.02398681640625,0.8997802734375
1630937421625,-0.3447265625,-0.02337646484375,0.91741943359375
1630937421714,-0.37371826171875,-0.0284423828125,0.9105224609375
1630937421714,-0.36248779296875,-0.025146484375,0.90814208984375
1630937421720,-0.35675048828125,-0.0235595703125,0.91265869140625
1630937421743,-0.3939208984375,-0.0286865234375,0.89593505859375
1630937421747,-0.37982177734375,-0.02886962890625,0.905517578125
1630937421798,-0.39556884765625,-0.0302734375,0.90240478515625
1630937421807,-0.40716552734375,-0.02972412109375,0.89385986328125
1630937421808,-0.41168212890625,-0.03302001953125,0.89404296875
1630937421896,-0.41229248046875,-0.03228759765625,0.89703369140625
1630937421897,-0.41827392578125,-0.02581787109375,0.89569091796875
1630937421897,-0.41961669921875,-0.02752685546875,0.88909912109375
1630937421928,-0.43402099609375,-0.024169921875,0.89300537109375
1630937421928,-0.42266845703125,-0.022705078125,0.89813232421875
1630937421929,-0.430419921875,-0.018310546875,0.90057373046875
1630937421980,-0.45123291015625,-0.0316162109375,0.86859130859375
1630937421980,-0.4393310546875,-0.03118896484375,0.8890380859375
1630937421980,-0.44097900390625,-0.031982421875,0.87493896484375
1630937422056,-0.45880126953125,-0.03460693359375,0.85809326171875
1630937422056,-0.45391845703125,-0.03839111328125,0.84869384765625
1630937422057,-0.4542236328125,-0.03594970703125,0.85711669921875
1630937422090,-0.4630126953125,-0.02618408203125,0.853759765625
1630937422096,-0.46331787109375,-0.024658203125,0.8624267578125
1630937422096,-0.466064453125,-0.026123046875,0.87060546875
1630937422190,-0.468017578125,-0.02374267578125,0.863525390625
1630937422190,-0.469482421875,-0.021728515625,0.8668212890625
1630937422191,-0.46826171875,-0.015869140625,0.86529541015625
1630937422211,-0.468017578125,-0.00555419921875,0.859130859375
1630937422213,-0.46795654296875,-0.009765625,0.86163330078125
1630937422215,-0.4700927734375,-0.00439453125,0.8609619140625
1630937422274,-0.4732666015625,0.000244140625,0.8587646484375
1630937422274,-0.4669189453125,-0.00384521484375,0.854248046875
1630937422274,-0.47003173828125,-0.00323486328125,0.85723876953125
1630937422352,-0.46728515625,0.008056640625,0.8636474609375
1630937422352,-0.47003173828125,0.0111083984375,0.86663818359375
1630937422354,-0.46533203125,0.01507568359375,0.859375
1630937422438,-0.4661865234375,0.010986328125,0.886962890625
1630937422438,-0.463623046875,0.01953125,0.87823486328125
1630937422438,-0.4622802734375,0.02392578125,0.86773681640625
1630937422476,-0.46868896484375,0.0020751953125,0.89617919921875
1630937422477,-0.45806884765625,-0.00933837890625,0.8760986328125
1630937422478,-0.4671630859375,-0.00506591796875,0.88677978515625
1630937422535,-0.461181640625,-0.0167236328125,0.871826171875
1630937422535,-0.46258544921875,-0.03265380859375,0.871826171875
1630937422535,-0.46051025390625,-0.023681640625,0.8701171875
1630937422612,-0.45458984375,-0.0369873046875,0.876708984375
1630937422613,-0.45611572265625,-0.03515625,0.8765869140625
1630937422613,-0.45916748046875,-0.03302001953125,0.87725830078125
1630937422630,-0.4501953125,-0.02874755859375,0.86505126953125
1630937422638,-0.45452880859375,-0.03021240234375,0.871337890625
1630937422647,-0.4530029296875,-0.031494140625,0.874267578125
1630937422722,-0.452880859375,-0.0345458984375,0.874267578125
1630937422723,-0.44793701171875,-0.04296875,0.86444091796875
1630937422723,-0.44769287109375,-0.03680419921875,0.86724853515625
1630937422760,-0.4383544921875,-0.0506591796875,0.85638427734375
1630937422766,-0.44146728515625,-0.0513916015625,0.8597412109375
1630937422767,-0.44573974609375,-0.04705810546875,0.86187744140625
1630937422810,-0.4237060546875,-0.0450439453125,0.88323974609375
1630937422810,-0.4276123046875,-0.0517578125,0.8724365234375
1630937422810,-0.4349365234375,-0.0537109375,0.86138916015625
1630937422855,-0.42291259765625,-0.031494140625,0.89276123046875
1630937422855,-0.4244384765625,0.0001220703125,0.91845703125
1630937422856,-0.42401123046875,-0.01544189453125,0.9097900390625
1630937422954,-0.42242431640625,0.02764892578125,0.92327880859375
1630937422955,-0.42364501953125,0.0198974609375,0.92120361328125
1630937422955,-0.41766357421875,0.03125,0.91473388671875
1630937422980,-0.41644287109375,0.01104736328125,0.91259765625
1630937422980,-0.417724609375,0.02935791015625,0.911865234375
1630937422980,-0.41534423828125,0.01849365234375,0.91064453125
1630937423037,-0.4156494140625,-0.00494384765625,0.89703369140625
1630937423037,-0.4110107421875,-0.002197265625,0.90850830078125
1630937423037,-0.41180419921875,-0.00628662109375,0.89617919921875
1630937423144,-0.4122314453125,-0.01129150390625,0.89520263671875
1630937423145,-0.41156005859375,-0.01068115234375,0.89447021484375
1630937423145,-0.41058349609375,-0.00787353515625,0.89556884765625
1630937423168,-0.42034912109375,-0.00836181640625,0.88836669921875
1630937423168,-0.4189453125,-0.00701904296875,0.88800048828125
1630937423168,-0.41571044921875,-0.0050048828125,0.89227294921875
1630937423239,-0.41876220703125,-0.01593017578125,0.8834228515625
1630937423239,-0.4202880859375,-0.01849365234375,0.875732421875
1630937423239,-0.42071533203125,-0.01629638671875,0.8890380859375
1630937423303,-0.4224853515625,-0.02459716796875,0.8731689453125
1630937423303,-0.4267578125,-0.02471923828125,0.86602783203125
1630937423305,-0.42205810546875,-0.0230712890625,0.8720703125
1630937423355,-0.4229736328125,-0.01788330078125,0.85675048828125
1630937423355,-0.424072265625,-0.01971435546875,0.86083984375
1630937423355,-0.41552734375,-0.01287841796875,0.85980224609375
1630937423389,-0.39892578125,-0.00921630859375,0.95306396484375
1630937423389,-0.41204833984375,-0.0108642578125,0.8790283203125
1630937423390,-0.4088134765625,-0.0101318359375,0.8978271484375
1630937423439,-0.3662109375,-0.01043701171875,1.05072021484375
1630937423439,-0.38787841796875,-0.00836181640625,1.01220703125
1630937423439,-0.35626220703125,-0.0140380859375,1.0645751953125
1630937423522,-0.36285400390625,-0.0203857421875,1.01617431640625
1630937423524,-0.35430908203125,-0.018798828125,1.05780029296875
1630937423535,-0.35284423828125,-0.01483154296875,1.080078125
1630937423573,-0.41485595703125,-0.0164794921875,0.82574462890625
1630937423573,-0.37835693359375,-0.0159912109375,0.9505615234375
1630937423573,-0.400390625,-0.01348876953125,0.87115478515625
1630937423655,-0.485107421875,-0.02960205078125,0.6810302734375
1630937423655,-0.386962890625,-0.010986328125,0.757568359375
1630937423655,-0.4713134765625,-0.0167236328125,0.70318603515625
1630937423684,-0.4691162109375,-0.03741455078125,0.7293701171875
1630937423684,-0.49169921875,-0.04852294921875,0.71612548828125
1630937423685,-0.43475341796875,-0.0372314453125,0.6943359375
1630937423745,-0.45361328125,-0.02142333984375,0.88336181640625
1630937423745,-0.47705078125,-0.0224609375,0.7896728515625
1630937423878,-0.43072509765625,-0.026611328125,0.91351318359375
1630937423878,-0.4388427734375,-0.02264404296875,0.89447021484375
1630937423886,-0.38037109375,-0.03961181640625,0.9735107421875
1630937423886,-0.39105224609375,-0.037109375,0.9703369140625
1630937423886,-0.39984130859375,-0.03399658203125,0.94866943359375
1630937423886,-0.412109375,-0.0284423828125,0.9306640625
1630937423926,-0.335205078125,-0.04052734375,0.967041015625
1630937423929,-0.32769775390625,-0.033935546875,0.9617919921875
1630937423932,-0.35345458984375,-0.04193115234375,0.9658203125
1630937424015,-0.3349609375,-0.0291748046875,0.96051025390625
1630937424015,-0.3648681640625,-0.034912109375,0.96185302734375
1630937424015,-0.35064697265625,-0.03741455078125,0.96124267578125
1630937424086,-0.3458251953125,-0.01654052734375,0.93756103515625
1630937424087,-0.34576416015625,-0.0123291015625,0.94854736328125
1630937424087,-0.311279296875,-0.01934814453125,0.957763671875
1630937424105,-0.34796142578125,-0.0228271484375,0.93035888671875
1630937424105,-0.3226318359375,-0.010498046875,0.9427490234375
1630937424105,-0.32421875,-0.02264404296875,0.91424560546875
1630937424171,-0.3070068359375,-0.03607177734375,0.9210205078125
1630937424171,-0.321044921875,-0.03009033203125,0.9141845703125
1630937424172,-0.32916259765625,-0.03741455078125,0.91680908203125
1630937424221,-0.308837890625,-0.0352783203125,0.916015625
1630937424221,-0.30615234375,-0.03704833984375,0.91387939453125
1630937424221,-0.3157958984375,-0.037109375,0.90997314453125
1630937424310,-0.29901123046875,-0.03472900390625,0.9368896484375
1630937424311,-0.2984619140625,-0.03240966796875,0.93505859375
1630937424313,-0.2984619140625,-0.03314208984375,0.91986083984375
1630937424345,-0.293701171875,-0.02783203125,0.95550537109375
1630937424346,-0.2978515625,-0.033935546875,0.95166015625
1630937424353,-0.29345703125,-0.027099609375,0.9525146484375
1630937424409,-0.30462646484375,-0.0272216796875,0.9547119140625
1630937424409,-0.3006591796875,-0.02685546875,0.969482421875
1630937424409,-0.3023681640625,-0.02972412109375,0.9564208984375
1630937424472,-0.31298828125,-0.017333984375,0.9488525390625
1630937424472,-0.30926513671875,-0.02508544921875,0.95166015625
1630937424473,-0.3145751953125,-0.02142333984375,0.95391845703125
1630937424528,-0.317626953125,-0.00909423828125,0.95648193359375
1630937424529,-0.31536865234375,-0.01678466796875,0.9619140625
1630937424529,-0.31622314453125,-0.0125732421875,0.961669921875
1630937424556,-0.31597900390625,0.020263671875,0.93255615234375
1630937424556,-0.3140869140625,0.0240478515625,0.92840576171875
1630937424556,-0.31787109375,0.0068359375,0.94500732421875
1630937424625,-0.31524658203125,0.03118896484375,0.94732666015625
1630937424625,-0.306884765625,0.03253173828125,0.93756103515625
1630937424625,-0.306640625,0.0235595703125,0.94140625
1630937424728,-0.2967529296875,0.01861572265625,0.94830322265625
1630937424728,-0.2900390625,-0.006591796875,0.9364013671875
1630937424728,-0.29376220703125,0.006103515625,0.9454345703125
1630937424757,-0.28546142578125,-0.01708984375,0.9417724609375
1630937424757,-0.28228759765625,-0.028564453125,0.94244384765625
1630937424758,-0.2802734375,-0.03826904296875,0.940673828125
1630937424817,-0.2774658203125,-0.04425048828125,0.93792724609375
1630937424818,-0.27191162109375,-0.0498046875,0.9378662109375
1630937424818,-0.27423095703125,-0.0458984375,0.94122314453125
1630937424870,-0.26678466796875,-0.037353515625,0.95904541015625
1630937424871,-0.26373291015625,-0.02386474609375,0.9674072265625
1630937424871,-0.271728515625,-0.0418701171875,0.9549560546875
1630937424937,-0.25494384765625,-0.003173828125,1.0111083984375
1630937424938,-0.26214599609375,-0.01104736328125,0.9932861328125
1630937424938,-0.26214599609375,-0.0137939453125,0.96527099609375
1630937424990,-0.26446533203125,0.0025634765625,0.99609375
1630937424991,-0.261474609375,6.103515625e-05,1.00341796875
1630937424995,-0.257080078125,0.000244140625,1.01434326171875
1630937425050,-0.28253173828125,0.0166015625,0.92913818359375
1630937425050,-0.26715087890625,0.0076904296875,0.96600341796875
1630937425050,-0.276611328125,0.0120849609375,0.9498291015625
1630937425137,-0.2977294921875,0.01153564453125,0.88775634765625
1630937425137,-0.294921875,0.01458740234375,0.90008544921875
1630937425138,-0.29034423828125,0.013671875,0.918212890625
1630937425194,-0.30523681640625,0.01104736328125,0.89019775390625
1630937425194,-0.3094482421875,0.00823974609375,0.95513916015625
1630937425209,-0.30621337890625,0.0087890625,0.907958984375
1630937425226,-0.27764892578125,0.01263427734375,1.02142333984375
1630937425226,-0.29132080078125,0.01043701171875,1.00299072265625
1630937425226,-0.30126953125,0.009521484375,0.984619140625
1630937425278,-0.26593017578125,0.007080078125,0.9913330078125
1630937425279,-0.2713623046875,0.00482177734375,0.96649169921875
1630937425279,-0.26861572265625,0.010498046875,1.01251220703125
1630937425343,-0.28436279296875,-0.001953125,0.9208984375
1630937425343,-0.279541015625,-0.0028076171875,0.93023681640625
1630937425343,-0.275634765625,0.00238037109375,0.94512939453125
1630937425418,-0.2916259765625,-0.0072021484375,0.90228271484375
1630937425418,-0.29425048828125,-0.00860595703125,0.89984130859375
1630937425419,-0.29205322265625,-0.00946044921875,0.90899658203125
1630937425474,-0.30133056640625,-0.02001953125,0.92596435546875
1630937425474,-0.29962158203125,-0.0191650390625,0.91998291015625
1630937425474,-0.2989501953125,-0.01348876953125,0.91717529296875
1630937425539,-0.30328369140625,-0.02020263671875,0.93658447265625
1630937425539,-0.3016357421875,-0.02142333984375,0.9364013671875
1630937425539,-0.29962158203125,-0.017333984375,0.933837890625
1630937425591,-0.28656005859375,-0.0137939453125,0.9871826171875
1630937425591,-0.2991943359375,-0.01800537109375,0.95599365234375
1630937425592,-0.292724609375,-0.01275634765625,0.96844482421875
1630937425656,-0.27764892578125,-0.0093994140625,0.99566650390625
1630937425656,-0.27313232421875,-0.00152587890625,0.98095703125
1630937425656,-0.2745361328125,-0.0081787109375,0.989501953125
1630937425696,-0.2708740234375,-0.0068359375,0.971923828125
1630937425700,-0.272216796875,-0.00634765625,0.9647216796875
1630937425700,-0.27703857421875,-0.0052490234375,0.949462890625
1630937425787,-0.28863525390625,-0.0079345703125,0.92547607421875
1630937425787,-0.287109375,-0.00634765625,0.93597412109375
1630937425788,-0.28338623046875,-0.00677490234375,0.9420166015625
1630937425807,-0.29949951171875,-0.02001953125,0.9324951171875
1630937425808,-0.29840087890625,-0.01312255859375,0.93121337890625
1630937425809,-0.294921875,-0.00909423828125,0.9288330078125
1630937425876,-0.30755615234375,-0.02239990234375,0.935791015625
1630937425876,-0.3040771484375,-0.021484375,0.93048095703125
1630937425876,-0.3038330078125,-0.017822265625,0.9307861328125
1630937425941,-0.29901123046875,-0.0159912109375,0.9376220703125
1630937425941,-0.297119140625,-0.01141357421875,0.9442138671875
1630937425941,-0.29437255859375,-0.00726318359375,0.95257568359375
1630937425986,-0.2882080078125,-0.00250244140625,0.95184326171875
1630937425986,-0.2904052734375,-0.007568359375,0.95196533203125
1630937425986,-0.28076171875,0.0013427734375,0.9566650390625
1630937426072,-0.2841796875,0.00750732421875,0.9666748046875
1630937426072,-0.28570556640625,0.00634765625,0.9656982421875
1630937426072,-0.281982421875,0.00445556640625,0.966552734375
1630937426097,-0.28680419921875,0.00994873046875,0.95941162109375
1630937426097,-0.28924560546875,0.0078125,0.9598388671875
1630937426098,-0.29669189453125,0.0062255859375,0.96173095703125
1630937426191,-0.29656982421875,0.0047607421875,0.95703125
1630937426195,-0.305908203125,0.0020751953125,0.94549560546875
1630937426196,-0.29705810546875,0.0091552734375,0.95416259765625
1630937426228,-0.31121826171875,-0.006103515625,0.9326171875
1630937426228,-0.31005859375,0.001708984375,0.941162109375
1630937426236,-0.3092041015625,-0.00299072265625,0.93145751953125
1630937426298,-0.3155517578125,-0.007568359375,0.92266845703125
1630937426298,-0.3148193359375,-0.0064697265625,0.92864990234375
1630937426298,-0.31219482421875,-0.01116943359375,0.927001953125
1630937426390,-0.314208984375,-0.00799560546875,0.91937255859375
1630937426391,-0.31292724609375,-0.00775146484375,0.9290771484375
1630937426391,-0.310791015625,-0.003662109375,0.934326171875
1630937426422,-0.310546875,0.00286865234375,0.94476318359375
1630937426430,-0.30499267578125,0.0047607421875,0.94580078125
1630937426431,-0.30816650390625,0.00469970703125,0.9439697265625
1630937426482,-0.307861328125,0.00390625,0.95965576171875
1630937426482,-0.3011474609375,0.00152587890625,0.95343017578125
1630937426482,-0.3062744140625,0.00457763671875,0.95367431640625
1630937426524,-0.306640625,0.00555419921875,0.954345703125
1630937426532,-0.30255126953125,0.004150390625,0.95068359375
1630937426532,-0.30841064453125,0.000732421875,0.95257568359375
1630937426589,-0.3162841796875,-0.00238037109375,0.955810546875
1630937426589,-0.3092041015625,-0.00341796875,0.95587158203125
1630937426591,-0.3193359375,-6.103515625e-05,0.9586181640625
1630937426633,-0.32122802734375,-0.0048828125,0.94158935546875
1630937426633,-0.32696533203125,-0.0072021484375,0.9293212890625
1630937426635,-0.329833984375,-0.0111083984375,0.913818359375
1630937426727,-0.336181640625,0.016845703125,0.80926513671875
1630937426728,-0.32696533203125,0.01019287109375,0.833984375
1630937426729,-0.32977294921875,-0.01043701171875,0.885498046875
1630937426787,-0.337890625,-0.0091552734375,0.8961181640625
1630937426787,-0.344970703125,-0.004638671875,0.8328857421875
1630937426787,-0.33447265625,-0.00946044921875,0.852783203125
1630937426818,-0.31341552734375,-0.0133056640625,1.01861572265625
1630937426819,-0.295654296875,-0.0242919921875,1.04779052734375
1630937426819,-0.323974609375,-0.00836181640625,0.9598388671875
1630937426880,-0.25054931640625,-0.0069580078125,1.04852294921875
1630937426880,-0.2568359375,-0.0103759765625,1.0638427734375
1630937426881,-0.2762451171875,-0.016357421875,1.06622314453125
1630937426923,-0.25958251953125,0.00244140625,1.00238037109375
1630937426923,-0.267822265625,0.00787353515625,0.97149658203125
1630937426931,-0.25286865234375,-0.00115966796875,1.02667236328125
1630937427007,-0.2784423828125,0.02691650390625,0.8746337890625
1630937427007,-0.2716064453125,0.01800537109375,0.9046630859375
1630937427007,-0.2659912109375,0.01409912109375,0.95062255859375
1630937427058,-0.31573486328125,0.00927734375,0.886962890625
1630937427058,-0.29791259765625,0.028076171875,0.86956787109375
1630937427059,-0.30816650390625,0.018310546875,0.87213134765625
1630937427114,-0.32012939453125,0.0089111328125,0.8984375
1630937427114,-0.32061767578125,0.001708984375,0.9432373046875
1630937427116,-0.32757568359375,-0.0001220703125,0.92779541015625
1630937427190,-0.3079833984375,-0.01092529296875,0.98956298828125
1630937427191,-0.29571533203125,-0.01171875,0.99188232421875
1630937427191,-0.31597900390625,-0.0074462890625,0.9635009765625
1630937427214,-0.28533935546875,-0.015625,0.98272705078125
1630937427214,-0.2808837890625,-0.01580810546875,0.971923828125
1630937427216,-0.2769775390625,-0.01837158203125,0.97412109375
1630937427284,-0.2864990234375,-0.01080322265625,0.94036865234375
1630937427285,-0.28668212890625,-0.01165771484375,0.95782470703125
1630937427286,-0.28179931640625,-0.0145263671875,0.96905517578125
1630937427342,-0.29559326171875,-0.01165771484375,0.9256591796875
1630937427342,-0.30462646484375,-0.01220703125,0.9273681640625
1630937427342,-0.28955078125,-0.01318359375,0.93011474609375
1630937427438,-0.31243896484375,-0.0145263671875,0.931884765625
1630937427440,-0.31732177734375,-0.013671875,0.91790771484375
1630937427440,-0.31732177734375,-0.02001953125,0.93817138671875
1630937427508,-0.32025146484375,-0.02911376953125,0.94390869140625
1630937427508,-0.32257080078125,-0.027099609375,0.94305419921875
1630937427509,-0.31951904296875,-0.02862548828125,0.93603515625
1630937427531,-0.3048095703125,-0.03167724609375,0.9600830078125
1630937427531,-0.31097412109375,-0.03094482421875,0.96051025390625
1630937427531,-0.317138671875,-0.02899169921875,0.9488525390625
1630937427598,-0.28985595703125,-0.028564453125,0.9453125
1630937427598,-0.2930908203125,-0.027587890625,0.95220947265625
1630937427599,-0.3043212890625,-0.03009033203125,0.9593505859375
1630937427661,-0.27587890625,-0.0189208984375,0.9376220703125
1630937427661,-0.2796630859375,-0.01959228515625,0.93560791015625
1630937427661,-0.28375244140625,-0.02490234375,0.947021484375
1630937427706,-0.27325439453125,-0.01947021484375,0.93341064453125
1630937427715,-0.2703857421875,-0.02227783203125,0.93133544921875
1630937427716,-0.26763916015625,-0.01824951171875,0.9393310546875
1630937427772,-0.27435302734375,-0.037841796875,0.9398193359375
1630937427787,-0.26708984375,-0.0316162109375,0.93707275390625
1630937427792,-0.27288818359375,-0.03570556640625,0.93212890625
1630937427835,-0.27410888671875,-0.0401611328125,0.94219970703125
1630937427843,-0.27386474609375,-0.0377197265625,0.9432373046875
1630937427862,-0.2733154296875,-0.0240478515625,0.953857421875
1630937427862,-0.27471923828125,-0.0286865234375,0.94451904296875
1630937427862,-0.27630615234375,-0.0140380859375,0.96221923828125
1630937427937,-0.28240966796875,-0.00732421875,0.9796142578125
1630937427937,-0.26849365234375,0.02386474609375,1.026611328125
1630937427938,-0.280517578125,0.01397705078125,1.03814697265625
1630937427981,-0.25958251953125,0.0423583984375,0.99871826171875
1630937427981,-0.2425537109375,0.05572509765625,1.0289306640625
1630937427981,-0.25115966796875,0.0556640625,1.01641845703125
1630937428064,-0.2916259765625,0.08807373046875,0.98736572265625
1630937428065,-0.2755126953125,0.05218505859375,0.99627685546875
1630937428065,-0.27093505859375,0.07696533203125,0.9765625
1630937428161,-0.30841064453125,0.07830810546875,0.96820068359375
1630937428161,-0.31866455078125,0.06195068359375,0.932373046875
1630937428161,-0.31500244140625,0.04071044921875,0.89471435546875
1630937428178,-0.37750244140625,-0.0494384765625,0.86688232421875
1630937428179,-0.3682861328125,-0.02978515625,0.88763427734375
1630937428183,-0.30560302734375,0.01129150390625,0.90753173828125
1630937428222,-0.37310791015625,-0.0716552734375,0.855712890625
1630937428222,-0.386474609375,-0.0933837890625,0.827880859375
1630937428222,-0.3846435546875,-0.0841064453125,0.8463134765625
1630937428289,-0.394775390625,-0.10186767578125,0.83074951171875
1630937428289,-0.36053466796875,-0.09918212890625,0.8336181640625
1630937428289,-0.358642578125,-0.0924072265625,0.8446044921875
1630937428359,-0.36895751953125,-0.07220458984375,0.85711669921875
1630937428365,-0.34051513671875,-0.078369140625,0.85760498046875
1630937428366,-0.33746337890625,-0.0523681640625,0.85809326171875
1630937428403,-0.32415771484375,-0.03955078125,0.85205078125
1630937428405,-0.33148193359375,-0.03106689453125,0.845458984375
1630937428407,-0.29010009765625,-0.01422119140625,0.88055419921875
1630937428463,-0.2386474609375,0.02215576171875,1.00152587890625
1630937428472,-0.27667236328125,-0.00384521484375,0.96014404296875
1630937428472,-0.2646484375,0.01171875,0.9722900390625
1630937428538,-0.23199462890625,0.02362060546875,1.0657958984375
1630937428538,-0.2076416015625,0.0277099609375,1.1275634765625
1630937428538,-0.2197265625,0.0205078125,1.13055419921875
1630937428606,-0.16864013671875,0.02764892578125,1.02801513671875
1630937428606,-0.17523193359375,0.03472900390625,1.04510498046875
1630937428606,-0.16961669921875,0.03125,1.08148193359375
1630937428626,-0.1761474609375,0.0035400390625,0.98822021484375
1630937428627,-0.17041015625,0.01397705078125,1.0159912109375
1630937428632,-0.174072265625,-0.00433349609375,0.96588134765625
1630937428714,-0.18475341796875,-0.00750732421875,0.921875
1630937428714,-0.17901611328125,-0.004150390625,0.9383544921875
1630937428714,-0.19281005859375,-0.00665283203125,0.9119873046875
1630937428769,-0.200439453125,-0.0032958984375,0.9017333984375
1630937428769,-0.19842529296875,-0.00531005859375,0.90106201171875
1630937428769,-0.1988525390625,-0.00909423828125,0.91961669921875
1630937428843,-0.1968994140625,-0.00775146484375,0.94671630859375
1630937428845,-0.18267822265625,-0.01446533203125,1.0347900390625
1630937428852,-0.19000244140625,-0.01312255859375,1.0059814453125
1630937428892,-0.16119384765625,-0.01580810546875,1.09124755859375
1630937428892,-0.1776123046875,-0.0120849609375,1.064453125
1630937428910,-0.16815185546875,-0.01275634765625,1.090576171875
1630937428940,-0.1844482421875,-0.00823974609375,1.008056640625
1630937428941,-0.17156982421875,-0.01171875,1.034423828125
1630937428941,-0.1654052734375,-0.0087890625,1.06005859375
1630937428985,-0.20965576171875,0.00634765625,0.94781494140625
1630937428985,-0.19110107421875,-0.00518798828125,0.9796142578125
1630937428985,-0.20526123046875,-0.00079345703125,0.95574951171875
1630937429051,-0.219482421875,0.00616455078125,0.93487548828125
1630937429052,-0.22760009765625,0.00811767578125,0.9349365234375
1630937429052,-0.23321533203125,-0.001220703125,0.935302734375
1630937429120,-0.23974609375,-0.01947021484375,0.94970703125
1630937429121,-0.24114990234375,-0.0380859375,0.96734619140625
1630937429121,-0.24566650390625,-0.04083251953125,0.9677734375
1630937429168,-0.24261474609375,-0.03717041015625,0.97027587890625
1630937429176,-0.24554443359375,-0.03350830078125,0.97003173828125
1630937429176,-0.24755859375,-0.03900146484375,0.97088623046875
1630937429228,-0.2479248046875,-0.025634765625,0.962890625
1630937429230,-0.24798583984375,-0.01800537109375,0.95611572265625
1630937429246,-0.24273681640625,-0.01605224609375,0.95159912109375
1630937429297,-0.2484130859375,-0.005126953125,0.94964599609375
1630937429297,-0.24786376953125,-0.00384521484375,0.9444580078125
1630937429298,-0.2470703125,-0.01043701171875,0.9505615234375
1630937429340,-0.24554443359375,0.00018310546875,0.936279296875
1630937429340,-0.24700927734375,0.0068359375,0.9437255859375
1630937429340,-0.2469482421875,0.00396728515625,0.9410400390625
1630937429411,-0.241943359375,0.00732421875,0.95721435546875
1630937429411,-0.2425537109375,0.0059814453125,0.9520263671875
1630937429412,-0.24578857421875,0.00738525390625,0.964599609375
1630937429472,-0.2454833984375,0.00018310546875,0.96783447265625
1630937429472,-0.2476806640625,0.00250244140625,0.96966552734375
1630937429484,-0.25006103515625,-0.0028076171875,0.9754638671875
1630937429518,-0.25335693359375,-0.00634765625,0.98431396484375
1630937429549,-0.25653076171875,-0.017822265625,0.98291015625
1630937429550,-0.25531005859375,-0.013916015625,0.98919677734375
1630937429623,-0.249267578125,-0.02081298828125,0.96014404296875
1630937429623,-0.251708984375,-0.017578125,0.9493408203125
1630937429624,-0.255615234375,-0.02130126953125,0.9765625
1630937429655,-0.23876953125,-0.02459716796875,0.92529296875
1630937429656,-0.24053955078125,-0.02752685546875,0.93511962890625
1630937429657,-0.24542236328125,-0.01983642578125,0.93560791015625
1630937429700,-0.24853515625,-0.033935546875,0.94647216796875
1630937429700,-0.25201416015625,-0.038330078125,0.94720458984375
1630937429701,-0.2593994140625,-0.03863525390625,0.9581298828125
1630937429792,-0.26678466796875,-0.031982421875,0.9744873046875
1630937429792,-0.27349853515625,-0.03106689453125,0.97442626953125
1630937429793,-0.26422119140625,-0.03680419921875,0.9671630859375
1630937429861,-0.27874755859375,-0.02978515625,0.972900390625
1630937429861,-0.279052734375,-0.025390625,0.96551513671875
1630937429861,-0.28155517578125,-0.01910400390625,0.95843505859375
1630937429877,-0.28338623046875,-0.0130615234375,0.94317626953125
1630937429877,-0.282958984375,-0.00732421875,0.93426513671875
1630937429878,-0.28009033203125,-0.0096435546875,0.93084716796875
1630937429968,-0.2711181640625,-0.003662109375,0.9222412109375
1630937429969,-0.278564453125,-0.00909423828125,0.91888427734375
1630937429969,-0.26458740234375,-0.00506591796875,0.92315673828125
1630937430004,-0.26214599609375,-0.00543212890625,0.93145751953125
1630937430004,-0.253173828125,-0.0040283203125,0.9674072265625
1630937430004,-0.25592041015625,-0.00274658203125,0.95269775390625
1630937430064,-0.24298095703125,-0.001708984375,0.98687744140625
1630937430064,-0.24188232421875,0.00054931640625,0.998779296875
1630937430065,-0.2474365234375,-0.0030517578125,0.9786376953125
1630937430138,-0.23797607421875,-0.00701904296875,1.00177001953125
1630937430138,-0.235595703125,-0.00494384765625,1.00732421875
1630937430138,-0.24005126953125,-0.010009765625,0.9920654296875
1630937430193,-0.25347900390625,-0.0184326171875,0.9635009765625
1630937430193,-0.25927734375,-0.01983642578125,0.9439697265625
1630937430194,-0.24566650390625,-0.0146484375,0.97308349609375
1630937430219,-0.27490234375,-0.03216552734375,0.9256591796875
1630937430219,-0.26580810546875,-0.03070068359375,0.9273681640625
1630937430220,-0.2655029296875,-0.02423095703125,0.9332275390625
1630937430305,-0.28070068359375,-0.0338134765625,0.9288330078125
1630937430305,-0.28826904296875,-0.039306640625,0.93218994140625
1630937430306,-0.28338623046875,-0.0364990234375,0.93267822265625
1630937430349,-0.28564453125,-0.03411865234375,0.9307861328125
1630937430349,-0.2767333984375,-0.0316162109375,0.956787109375
1630937430349,-0.283935546875,-0.03253173828125,0.94122314453125
1630937430443,-0.25054931640625,-0.01910400390625,1.0140380859375
1630937430443,-0.26654052734375,-0.02728271484375,0.9842529296875
1630937430443,-0.2593994140625,-0.0224609375,0.98834228515625
1630937430485,-0.24346923828125,-0.00311279296875,0.96661376953125
1630937430485,-0.24456787109375,-0.00653076171875,0.98712158203125
1630937430485,-0.247314453125,-0.012451171875,1.00738525390625
1630937430524,-0.253662109375,0.002197265625,0.927001953125
1630937430525,-0.2579345703125,-0.001220703125,0.94000244140625
1630937430533,-0.25128173828125,-0.00115966796875,0.9498291015625
1630937430602,-0.2650146484375,-0.00164794921875,0.9393310546875
1630937430602,-0.263916015625,-0.00750732421875,0.94439697265625
1630937430602,-0.25762939453125,-0.00048828125,0.93170166015625
1630937430661,-0.26715087890625,-0.0048828125,0.951904296875
1630937430661,-0.2655029296875,-0.00653076171875,0.94744873046875
1630937430662,-0.2684326171875,-0.0089111328125,0.95538330078125
1630937430723,-0.27532958984375,-0.02294921875,0.95458984375
1630937430731,-0.26885986328125,-0.0126953125,0.95880126953125
1630937430731,-0.2724609375,-0.02294921875,0.96160888671875
1630937430751,-0.2698974609375,-0.02801513671875,0.95635986328125
1630937430751,-0.27227783203125,-0.02484130859375,0.9434814453125
1630937430751,-0.26824951171875,-0.0252685546875,0.96112060546875
1630937430842,-0.2681884765625,-0.035888671875,0.96185302734375
1630937430843,-0.2664794921875,-0.0318603515625,0.96966552734375
1630937430843,-0.26068115234375,-0.03497314453125,0.96630859375
1630937430908,-0.2625732421875,-0.0396728515625,0.96624755859375
1630937430908,-0.2667236328125,-0.04205322265625,0.96075439453125
1630937430910,-0.25836181640625,-0.041015625,0.9678955078125
1630937430948,-0.2681884765625,-0.03857421875,0.96490478515625
1630937430948,-0.27130126953125,-0.038818359375,0.95654296875
1630937430948,-0.27557373046875,-0.0340576171875,0.955322265625
1630937431040,-0.2802734375,-0.03826904296875,0.9453125
1630937431040,-0.28118896484375,-0.04193115234375,0.94586181640625
1630937431040,-0.2772216796875,-0.036865234375,0.95037841796875
1630937431085,-0.27935791015625,-0.04437255859375,0.94256591796875
1630937431085,-0.279541015625,-0.0401611328125,0.9415283203125
1630937431087,-0.279296875,-0.04364013671875,0.9400634765625
1630937431112,-0.2774658203125,-0.04583740234375,0.93963623046875
1630937431123,-0.27117919921875,-0.04443359375,0.94525146484375
1630937431123,-0.277099609375,-0.04498291015625,0.94146728515625
1630937431175,-0.272705078125,-0.03936767578125,0.94805908203125
1630937431175,-0.26788330078125,-0.03778076171875,0.9468994140625
1630937431179,-0.26904296875,-0.0384521484375,0.9488525390625
1630937431266,-0.26031494140625,-0.033935546875,0.95831298828125
1630937431267,-0.2650146484375,-0.03759765625,0.9581298828125
1630937431267,-0.26287841796875,-0.03314208984375,0.9608154296875
1630937431341,-0.26263427734375,-0.03271484375,0.96588134765625
1630937431341,-0.26702880859375,-0.0350341796875,0.96734619140625
1630937431350,-0.260498046875,-0.0322265625,0.9627685546875
1630937431377,-0.2686767578125,-0.03759765625,0.96282958984375
1630937431379,-0.26544189453125,-0.03472900390625,0.96551513671875
1630937431379,-0.27032470703125,-0.03802490234375,0.95233154296875
1630937431418,-0.27044677734375,-0.0396728515625,0.950927734375
1630937431418,-0.27374267578125,-0.03857421875,0.95208740234375
1630937431418,-0.2689208984375,-0.0384521484375,0.95159912109375
1630937431489,-0.26727294921875,-0.035400390625,0.94476318359375
1630937431489,-0.26641845703125,-0.0322265625,0.96075439453125
1630937431489,-0.27069091796875,-0.03826904296875,0.94915771484375
1630937431532,-0.27215576171875,-0.03961181640625,0.957763671875
1630937431532,-0.26666259765625,-0.03521728515625,0.95404052734375
1630937431575,-0.27166748046875,-0.0347900390625,0.95361328125
1630937431575,-0.27520751953125,-0.035400390625,0.9539794921875
1630937431644,-0.274658203125,-0.03363037109375,0.951171875
1630937431644,-0.28082275390625,-0.03326416015625,0.955078125
1630937431645,-0.27642822265625,-0.03375244140625,0.955810546875
1630937431738,-0.27801513671875,-0.02618408203125,0.9478759765625
1630937431738,-0.27886962890625,-0.029052734375,0.94964599609375
1630937431738,-0.27484130859375,-0.0296630859375,0.951171875
1630937431758,-0.27679443359375,-0.03021240234375,0.94500732421875
1630937431758,-0.2774658203125,-0.0284423828125,0.94671630859375
1630937431760,-0.2744140625,-0.0245361328125,0.94647216796875
1630937431827,-0.27191162109375,-0.03369140625,0.94757080078125
1630937431828,-0.27532958984375,-0.031494140625,0.950927734375
1630937431828,-0.27691650390625,-0.03155517578125,0.95086669921875
1630937431889,-0.2705078125,-0.03363037109375,0.9495849609375
1630937431889,-0.26800537109375,-0.033447265625,0.95367431640625
1630937431889,-0.27056884765625,-0.0338134765625,0.95086669921875
1630937431955,-0.26727294921875,-0.03466796875,0.96234130859375
1630937431956,-0.2667236328125,-0.0311279296875,0.96142578125
1630937431956,-0.26873779296875,-0.0340576171875,0.96112060546875
1630937432026,-0.26556396484375,-0.02850341796875,0.96124267578125
1630937432027,-0.26953125,-0.02752685546875,0.9595947265625
1630937432028,-0.26416015625,-0.03070068359375,0.96124267578125
1630937432047,-0.27008056640625,-0.02813720703125,0.95684814453125
1630937432063,-0.26898193359375,-0.02679443359375,0.960205078125
1630937432065,-0.26617431640625,-0.02813720703125,0.95733642578125
1630937432111,-0.269775390625,-0.027587890625,0.95684814453125
1630937432111,-0.26959228515625,-0.02972412109375,0.9554443359375
1630937432112,-0.266845703125,-0.028564453125,0.9549560546875
1630937432182,-0.2681884765625,-0.03240966796875,0.953369140625
1630937432182,-0.26666259765625,-0.03192138671875,0.951904296875
1630937432182,-0.27020263671875,-0.03485107421875,0.94635009765625
1630937432223,-0.2711181640625,-0.03717041015625,0.9547119140625
1630937432224,-0.27069091796875,-0.03753662109375,0.9521484375
1630937432224,-0.27142333984375,-0.0364990234375,0.95458984375
1630937432311,-0.270751953125,-0.03814697265625,0.9530029296875
1630937432311,-0.2720947265625,-0.03448486328125,0.96051025390625
1630937432311,-0.269775390625,-0.0306396484375,0.95867919921875
1630937432381,-0.2764892578125,-0.044677734375,0.95751953125
1630937432381,-0.2733154296875,-0.038818359375,0.9564208984375
1630937432381,-0.27410888671875,-0.0382080078125,0.95306396484375
1630937432454,-0.27264404296875,-0.03424072265625,0.95611572265625
1630937432455,-0.27166748046875,-0.03472900390625,0.9490966796875
1630937432455,-0.270263671875,-0.03271484375,0.96466064453125
1630937432467,-0.27679443359375,-0.03863525390625,0.94537353515625
1630937432469,-0.27459716796875,-0.03472900390625,0.9429931640625
1630937432478,-0.27130126953125,-0.03759765625,0.958251953125
1630937432536,-0.27606201171875,-0.03472900390625,0.94781494140625
1630937432536,-0.27215576171875,-0.035888671875,0.9539794921875
1630937432536,-0.27374267578125,-0.035400390625,0.943359375
1630937432610,-0.27520751953125,-0.03216552734375,0.9407958984375
1630937432610,-0.27801513671875,-0.0394287109375,0.94464111328125
1630937432611,-0.2774658203125,-0.038330078125,0.94342041015625
1630937432690,-0.27545166015625,-0.03399658203125,0.95123291015625
1630937432690,-0.2685546875,-0.0341796875,0.96490478515625
1630937432690,-0.276611328125,-0.0394287109375,0.96636962890625
1630937432748,-0.271728515625,-0.03497314453125,0.95343017578125
1630937432748,-0.27581787109375,-0.033935546875,0.94403076171875
1630937432755,-0.275146484375,-0.03662109375,0.96234130859375
1630937432756,-0.278076171875,-0.03485107421875,0.94500732421875
1630937432756,-0.2735595703125,-0.0361328125,0.958251953125
1630937432756,-0.27386474609375,-0.03314208984375,0.966552734375
1630937432839,-0.2791748046875,-0.03399658203125,0.96014404296875
1630937432840,-0.276123046875,-0.035400390625,0.94879150390625
1630937432840,-0.27667236328125,-0.0338134765625,0.9471435546875
1630937432887,-0.2794189453125,-0.0333251953125,0.9522705078125
1630937432887,-0.28057861328125,-0.0308837890625,0.9473876953125
1630937432888,-0.2789306640625,-0.032470703125,0.9554443359375
1630937432932,-0.28125,-0.036376953125,0.9512939453125
1630937432932,-0.28619384765625,-0.0361328125,0.947265625
1630937432936,-0.27349853515625,-0.03662109375,0.95037841796875
1630937432993,-0.27935791015625,-0.04278564453125,0.94439697265625
1630937432993,-0.280029296875,-0.04071044921875,0.945556640625
1630937432994,-0.2786865234375,-0.03887939453125,0.96270751953125
1630937433073,-0.279541015625,-0.0447998046875,0.95452880859375
1630937433083,-0.28375244140625,-0.04022216796875,0.94671630859375
1630937433091,-0.282470703125,-0.04473876953125,0.95513916015625
1630937433129,-0.28399658203125,-0.03924560546875,0.94482421875
1630937433129,-0.28668212890625,-0.04022216796875,0.94903564453125
1630937433130,-0.2882080078125,-0.04718017578125,0.95220947265625
1630937433174,-0.28875732421875,-0.05010986328125,0.9495849609375
1630937433174,-0.286865234375,-0.04437255859375,0.9442138671875
1630937433193,-0.28875732421875,-0.04150390625,0.933349609375
1630937433242,-0.2880859375,-0.04046630859375,0.94244384765625
1630937433242,-0.28485107421875,-0.0423583984375,0.96197509765625
1630937433242,-0.286865234375,-0.04302978515625,0.9443359375
1630937433305,-0.2843017578125,-0.043212890625,0.94610595703125
1630937433305,-0.286376953125,-0.0458984375,0.9444580078125
1630937433315,-0.2825927734375,-0.04193115234375,0.947998046875
1630937433358,-0.284912109375,-0.0465087890625,0.94915771484375
1630937433358,-0.2884521484375,-0.0447998046875,0.954345703125
1630937433358,-0.28546142578125,-0.04766845703125,0.94000244140625
1630937433404,-0.27947998046875,-0.0469970703125,0.95074462890625
1630937433404,-0.28582763671875,-0.0460205078125,0.94525146484375
1630937433405,-0.2847900390625,-0.0462646484375,0.9454345703125
1630937433469,-0.28277587890625,-0.04730224609375,0.9432373046875
1630937433469,-0.2789306640625,-0.0479736328125,0.94476318359375
1630937433472,-0.284423828125,-0.046875,0.94085693359375
1630937433542,-0.279541015625,-0.0482177734375,0.947998046875
1630937433542,-0.2816162109375,-0.04681396484375,0.95166015625
1630937433542,-0.2799072265625,-0.0511474609375,0.96832275390625
1630937433604,-0.282958984375,-0.04473876953125,0.9549560546875
1630937433606,-0.28021240234375,-0.04571533203125,0.9501953125
1630937433606,-0.28253173828125,-0.04193115234375,0.95538330078125
1630937433667,-0.2822265625,-0.04119873046875,0.96575927734375
1630937433668,-0.28253173828125,-0.0439453125,0.94866943359375
1630937433668,-0.28271484375,-0.03765869140625,0.9468994140625
1630937433702,-0.28204345703125,-0.0374755859375,0.94793701171875
1630937433703,-0.27972412109375,-0.03424072265625,0.9571533203125
1630937433704,-0.2784423828125,-0.04095458984375,0.94818115234375
1630937433775,-0.2781982421875,-0.0401611328125,0.943603515625
1630937433775,-0.2841796875,-0.0340576171875,0.9486083984375
1630937433775,-0.2847900390625,-0.042236328125,0.9482421875
1630937433823,-0.28216552734375,-0.047119140625,0.95245361328125
1630937433823,-0.2808837890625,-0.0494384765625,0.95257568359375
1630937433823,-0.2833251953125,-0.0465087890625,0.9473876953125
1630937433889,-0.279541015625,-0.04791259765625,0.94158935546875
1630937433895,-0.2816162109375,-0.04522705078125,0.942626953125
1630937433895,-0.2799072265625,-0.0457763671875,0.952392578125
1630937433960,-0.27789306640625,-0.04022216796875,0.953125
1630937433960,-0.273193359375,-0.03875732421875,0.94891357421875
1630937433961,-0.27667236328125,-0.0360107421875,0.95428466796875
1630937434013,-0.2734375,-0.04095458984375,0.9564208984375
1630937434013,-0.276611328125,-0.0472412109375,0.9520263671875
1630937434014,-0.27618408203125,-0.04595947265625,0.95147705078125
1630937434071,-0.27484130859375,-0.043212890625,0.95062255859375
1630937434071,-0.27496337890625,-0.04156494140625,0.95361328125
1630937434088,-0.2752685546875,-0.040771484375,0.9503173828125
1630937434148,-0.27606201171875,-0.03912353515625,0.948486328125
1630937434148,-0.2752685546875,-0.0401611328125,0.95587158203125
1630937434148,-0.277099609375,-0.0396728515625,0.95654296875
1630937434185,-0.27587890625,-0.03729248046875,0.949462890625
1630937434185,-0.27838134765625,-0.0369873046875,0.9456787109375
1630937434185,-0.2764892578125,-0.03759765625,0.9444580078125
1630937434241,-0.27874755859375,-0.04034423828125,0.94482421875
1630937434241,-0.275146484375,-0.04052734375,0.95849609375
1630937434241,-0.2777099609375,-0.03924560546875,0.955810546875
1630937434291,-0.27642822265625,-0.04364013671875,0.95953369140625
1630937434300,-0.27606201171875,-0.04559326171875,0.956787109375
1630937434333,-0.27435302734375,-0.04376220703125,0.95440673828125
1630937434359,-0.27490234375,-0.04168701171875,0.95367431640625
1630937434361,-0.2725830078125,-0.04229736328125,0.9461669921875
1630937434364,-0.27349853515625,-0.046875,0.94970703125
1630937434430,-0.2698974609375,-0.04278564453125,0.95013427734375
1630937434431,-0.2708740234375,-0.0421142578125,0.95367431640625
1630937434432,-0.27313232421875,-0.0404052734375,0.95098876953125
1630937434468,-0.2666015625,-0.036376953125,0.9539794921875
1630937434477,-0.2718505859375,-0.03387451171875,0.95806884765625
1630937434477,-0.26708984375,-0.03338623046875,0.955078125
1630937434538,-0.26904296875,-0.03460693359375,0.95501708984375
1630937434538,-0.27105712890625,-0.03216552734375,0.955078125
1630937434538,-0.26556396484375,-0.03363037109375,0.958984375
1630937434586,-0.27197265625,-0.03631591796875,0.95428466796875
1630937434586,-0.270263671875,-0.0352783203125,0.951904296875
1630937434587,-0.27044677734375,-0.04119873046875,0.95257568359375
1630937434664,-0.26885986328125,-0.041748046875,0.9522705078125
1630937434664,-0.2705078125,-0.0423583984375,0.95062255859375
1630937434665,-0.26959228515625,-0.04022216796875,0.95111083984375
1630937434748,-0.26715087890625,-0.04248046875,0.95574951171875
1630937434748,-0.27001953125,-0.0419921875,0.958984375
1630937434757,-0.2685546875,-0.042236328125,0.95343017578125
1630937434814,-0.26788330078125,-0.04119873046875,0.951416015625
1630937434814,-0.26690673828125,-0.0386962890625,0.95733642578125
1630937434814,-0.26605224609375,-0.0389404296875,0.95208740234375
1630937434852,-0.26434326171875,-0.04180908203125,0.95111083984375
1630937434852,-0.263427734375,-0.0416259765625,0.9544677734375
1630937434852,-0.26483154296875,-0.04168701171875,0.9542236328125
1630937434891,-0.259765625,-0.036865234375,0.96435546875
1630937434894,-0.26318359375,-0.0355224609375,0.95556640625
1630937434894,-0.2608642578125,-0.03790283203125,0.9566650390625
1630937434943,-0.2587890625,-0.0379638671875,0.953125
1630937434947,-0.2611083984375,-0.0423583984375,0.96051025390625
1630937434947,-0.26092529296875,-0.04705810546875,0.957763671875
1630937435019,-0.26251220703125,-0.03985595703125,0.9552001953125
1630937435019,-0.25982666015625,-0.03839111328125,0.9600830078125
1630937435020,-0.26019287109375,-0.036376953125,0.95416259765625
1630937435073,-0.25750732421875,-0.032470703125,0.96221923828125
1630937435073,-0.255859375,-0.03460693359375,0.96148681640625
1630937435074,-0.25665283203125,-0.03759765625,0.95697021484375
1630937435151,-0.25946044921875,-0.03338623046875,0.96173095703125
1630937435151,-0.255615234375,-0.03472900390625,0.96337890625
1630937435153,-0.25640869140625,-0.02972412109375,0.96173095703125
1630937435209,-0.25897216796875,-0.0323486328125,0.95855712890625
1630937435209,-0.26129150390625,-0.0347900390625,0.95947265625
1630937435210,-0.2601318359375,-0.0367431640625,0.95819091796875
1630937435257,-0.26251220703125,-0.0389404296875,0.95501708984375
1630937435258,-0.26116943359375,-0.03955078125,0.95062255859375
1630937435259,-0.26251220703125,-0.0382080078125,0.9471435546875
1630937435302,-0.26007080078125,-0.03948974609375,0.95513916015625
1630937435302,-0.26104736328125,-0.03515625,0.9598388671875
1630937435302,-0.25885009765625,-0.037353515625,0.94915771484375
1630937435341,-0.2640380859375,-0.03662109375,0.96002197265625
1630937435342,-0.26239013671875,-0.038330078125,0.960693359375
1630937435434,-0.25738525390625,-0.03314208984375,0.95758056640625
1630937435435,-0.26287841796875,-0.0340576171875,0.95953369140625
1630937435436,-0.26055908203125,-0.03253173828125,0.95892333984375
1630937435500,-0.26019287109375,-0.0335693359375,0.96160888671875
1630937435508,-0.26141357421875,-0.0311279296875,0.9556884765625
1630937435509,-0.260498046875,-0.03363037109375,0.95526123046875
1630937435532,-0.265380859375,-0.0333251953125,0.9569091796875
1630937435532,-0.259521484375,-0.03228759765625,0.9544677734375
1630937435536,-0.2601318359375,-0.03668212890625,0.951904296875
1630937435611,-0.2613525390625,-0.03802490234375,0.95562744140625
1630937435612,-0.25537109375,-0.041748046875,0.95697021484375
1630937435615,-0.25689697265625,-0.03778076171875,0.9560546875
1630937435656,-0.25933837890625,-0.03729248046875,0.95953369140625
1630937435657,-0.2596435546875,-0.0362548828125,0.9603271484375
1630937435659,-0.25665283203125,-0.03570556640625,0.95819091796875
1630937435736,-0.257080078125,-0.031005859375,0.95574951171875
1630937435736,-0.25628662109375,-0.03021240234375,0.96234130859375
1630937435736,-0.2586669921875,-0.03253173828125,0.9588623046875
1630937435791,-0.2572021484375,-0.0333251953125,0.96087646484375
1630937435791,-0.2557373046875,-0.03057861328125,0.96136474609375
1630937435791,-0.256591796875,-0.02630615234375,0.95404052734375
1630937435859,-0.25714111328125,-0.0286865234375,0.96881103515625
1630937435859,-0.2598876953125,-0.0286865234375,0.9625244140625
1630937435859,-0.257568359375,-0.02691650390625,0.95672607421875
1630937435890,-0.261474609375,-0.0391845703125,0.951904296875
1630937435891,-0.264892578125,-0.03564453125,0.95703125
1630937435891,-0.25872802734375,-0.0360107421875,0.95953369140625
1630937435954,-0.25836181640625,-0.03009033203125,0.9561767578125
1630937435954,-0.25811767578125,-0.03204345703125,0.95428466796875
1630937435967,-0.25958251953125,-0.0302734375,0.953857421875
1630937436036,-0.258544921875,-0.0286865234375,0.96026611328125
1630937436050,-0.25811767578125,-0.03131103515625,0.953369140625
1630937436070,-0.25823974609375,-0.03271484375,0.9595947265625
1630937436070,-0.26068115234375,-0.0306396484375,0.9578857421875
1630937436070,-0.2579345703125,-0.0306396484375,0.96148681640625
1630937436110,-0.2630615234375,-0.03302001953125,0.9586181640625
1630937436110,-0.25738525390625,-0.03399658203125,0.95465087890625
1630937436111,-0.2646484375,-0.0350341796875,0.96063232421875
1630937436196,-0.26507568359375,-0.03350830078125,0.9534912109375
1630937436196,-0.259033203125,-0.02972412109375,0.94769287109375
1630937436197,-0.26324462890625,-0.0350341796875,0.95721435546875
1630937436244,-0.26141357421875,-0.0318603515625,0.95611572265625
1630937436245,-0.2581787109375,-0.03350830078125,0.95843505859375
1630937436251,-0.2579345703125,-0.03289794921875,0.95306396484375
1630937436303,-0.25506591796875,-0.03350830078125,0.96075439453125
1630937436303,-0.25897216796875,-0.03277587890625,0.9609375
1630937436303,-0.255615234375,-0.03253173828125,0.95819091796875
1630937436369,-0.25787353515625,-0.02874755859375,0.96514892578125
1630937436369,-0.25677490234375,-0.0316162109375,0.9649658203125
1630937436369,-0.2578125,-0.03271484375,0.96527099609375
1630937436455,-0.25933837890625,-0.0267333984375,0.95965576171875
1630937436455,-0.25653076171875,-0.0272216796875,0.9638671875
1630937436455,-0.2572021484375,-0.02703857421875,0.9573974609375
1630937436465,-0.2591552734375,-0.03271484375,0.95513916015625
1630937436465,-0.25897216796875,-0.02935791015625,0.9578857421875
1630937436466,-0.2596435546875,-0.0341796875,0.9527587890625
1630937436528,-0.25933837890625,-0.031982421875,0.9556884765625
1630937436528,-0.259765625,-0.03533935546875,0.95489501953125
1630937436529,-0.25762939453125,-0.035888671875,0.9556884765625
1630937436610,-0.25689697265625,-0.032470703125,0.95806884765625
1630937436610,-0.2589111328125,-0.03302001953125,0.9639892578125
1630937436612,-0.262451171875,-0.03363037109375,0.95751953125
1630937436672,-0.26025390625,-0.03436279296875,0.95111083984375
1630937436672,-0.25799560546875,-0.03125,0.95440673828125
1630937436672,-0.25927734375,-0.0328369140625,0.9561767578125
1630937436740,-0.2613525390625,-0.03497314453125,0.95587158203125
1630937436740,-0.260009765625,-0.0330810546875,0.96014404296875
1630937436740,-0.2584228515625,-0.032470703125,0.96209716796875
1630937436773,-0.26397705078125,-0.03875732421875,0.96209716796875
1630937436774,-0.25714111328125,-0.03521728515625,0.95916748046875
1630937436774,-0.26165771484375,-0.04290771484375,0.959228515625
1630937436872,-0.25531005859375,-0.033935546875,0.95062255859375
1630937436875,-0.25836181640625,-0.03997802734375,0.9556884765625
1630937436877,-0.25927734375,-0.03436279296875,0.9512939453125
1630937436895,-0.25927734375,-0.0325927734375,0.9605712890625
1630937436896,-0.2568359375,-0.0377197265625,0.96197509765625
1630937436896,-0.2584228515625,-0.03326416015625,0.95703125
1630937436959,-0.2589111328125,-0.03619384765625,0.95928955078125
1630937436959,-0.2589111328125,-0.0323486328125,0.9576416015625
1630937436968,-0.26141357421875,-0.03125,0.95672607421875
1630937436999,-0.2603759765625,-0.0377197265625,0.9556884765625
1630937436999,-0.26141357421875,-0.03448486328125,0.9615478515625
1630937437000,-0.25933837890625,-0.034423828125,0.956298828125
1630937437070,-0.2574462890625,-0.037841796875,0.95587158203125
1630937437071,-0.2635498046875,-0.03338623046875,0.9583740234375
1630937437085,-0.2630615234375,-0.03668212890625,0.95648193359375
1630937437135,-0.260498046875,-0.03741455078125,0.95440673828125
1630937437135,-0.2576904296875,-0.03955078125,0.95587158203125
1630937437135,-0.26123046875,-0.0391845703125,0.9544677734375
1630937437191,-0.2623291015625,-0.0399169921875,0.95721435546875
1630937437191,-0.26165771484375,-0.04107666015625,0.95892333984375
1630937437191,-0.26116943359375,-0.03912353515625,0.95330810546875
1630937437258,-0.2598876953125,-0.03668212890625,0.95880126953125
1630937437264,-0.259521484375,-0.03411865234375,0.9580078125
1630937437278,-0.25933837890625,-0.03857421875,0.9561767578125
1630937437343,-0.2589111328125,-0.034423828125,0.95684814453125
1630937437346,-0.2630615234375,-0.03497314453125,0.961181640625
1630937437349,-0.2593994140625,-0.0343017578125,0.9600830078125
1630937437366,-0.261474609375,-0.033203125,0.9537353515625
1630937437366,-0.2598876953125,-0.03216552734375,0.95220947265625
1630937437367,-0.259033203125,-0.0321044921875,0.95526123046875
1630937437423,-0.26116943359375,-0.03607177734375,0.9560546875
1630937437423,-0.261474609375,-0.038330078125,0.95440673828125
1630937437423,-0.259765625,-0.0352783203125,0.95501708984375
1630937437492,-0.2562255859375,-0.03802490234375,0.95916748046875
1630937437493,-0.2606201171875,-0.03802490234375,0.95794677734375
1630937437494,-0.25787353515625,-0.03997802734375,0.95721435546875
1630937437544,-0.2567138671875,-0.03875732421875,0.9610595703125
1630937437545,-0.2548828125,-0.04095458984375,0.9564208984375
1630937437546,-0.2589111328125,-0.03851318359375,0.95733642578125
1630937437605,-0.26007080078125,-0.03948974609375,0.95758056640625
1630937437605,-0.26007080078125,-0.03704833984375,0.955322265625
1630937437605,-0.259521484375,-0.0438232421875,0.95758056640625
1630937437655,-0.2587890625,-0.03704833984375,0.9578857421875
1630937437655,-0.2579345703125,-0.03912353515625,0.954833984375
1630937437655,-0.258544921875,-0.041259765625,0.95751953125
1630937437721,-0.2559814453125,-0.03558349609375,0.95892333984375
1630937437721,-0.2562255859375,-0.03887939453125,0.96832275390625
1630937437722,-0.25994873046875,-0.03411865234375,0.956298828125
1630937437795,-0.26055908203125,-0.0462646484375,0.95867919921875
1630937437795,-0.25701904296875,-0.041015625,0.9537353515625
1630937437804,-0.26080322265625,-0.04150390625,0.96099853515625
1630937437823,-0.25848388671875,-0.03826904296875,0.95489501953125
1630937437830,-0.26129150390625,-0.0408935546875,0.95318603515625
1630937437831,-0.2628173828125,-0.0390625,0.951171875
1630937437893,-0.2596435546875,-0.03302001953125,0.95654296875
1630937437893,-0.25872802734375,-0.0404052734375,0.9532470703125
1630937437894,-0.26080322265625,-0.03509521484375,0.95709228515625
1630937437957,-0.26220703125,-0.0389404296875,0.9552001953125
1630937437957,-0.26214599609375,-0.0367431640625,0.96038818359375
1630937437957,-0.2593994140625,-0.0323486328125,0.959228515625
1630937438005,-0.259765625,-0.04180908203125,0.95556640625
1630937438013,-0.261962890625,-0.0421142578125,0.9556884765625
1630937438071,-0.2647705078125,-0.0419921875,0.9576416015625
1630937438075,-0.26226806640625,-0.04510498046875,0.95428466796875
1630937438075,-0.26214599609375,-0.04205322265625,0.95452880859375
1630937438127,-0.26080322265625,-0.04193115234375,0.9598388671875
1630937438127,-0.25921630859375,-0.04144287109375,0.95489501953125
1630937438128,-0.2625732421875,-0.04083251953125,0.95477294921875
1630937438207,-0.25897216796875,-0.04302978515625,0.962158203125
1630937438207,-0.2572021484375,-0.0404052734375,0.96014404296875
1630937438207,-0.259765625,-0.040771484375,0.96044921875
1630937438255,-0.2587890625,-0.03717041015625,0.95684814453125
1630937438264,-0.2607421875,-0.0391845703125,0.9598388671875
1630937438265,-0.2576904296875,-0.03851318359375,0.95849609375
1630937438324,-0.26055908203125,-0.0355224609375,0.9530029296875
1630937438324,-0.25872802734375,-0.036865234375,0.9560546875
1630937438324,-0.2633056640625,-0.0389404296875,0.9547119140625
1630937438388,-0.25665283203125,-0.0408935546875,0.95806884765625
1630937438389,-0.25726318359375,-0.0404052734375,0.9541015625
1630937438389,-0.2589111328125,-0.0361328125,0.95343017578125
1630937438458,-0.25689697265625,-0.0423583984375,0.95733642578125
1630937438460,-0.262939453125,-0.044189453125,0.956298828125
1630937438461,-0.2572021484375,-0.04327392578125,0.95880126953125
1630937438475,-0.25775146484375,-0.04315185546875,0.9569091796875
1630937438479,-0.262451171875,-0.03839111328125,0.961181640625
1630937438480,-0.26220703125,-0.04083251953125,0.954345703125
1630937438594,-0.26019287109375,-0.03851318359375,0.95672607421875
1630937438594,-0.25823974609375,-0.03887939453125,0.95709228515625
1630937438594,-0.2607421875,-0.04083251953125,0.95977783203125
1630937438606,-0.26226806640625,-0.03973388671875,0.95660400390625
1630937438606,-0.2593994140625,-0.0364990234375,0.95513916015625
1630937438606,-0.2608642578125,-0.036376953125,0.95556640625
1630937438673,-0.26031494140625,-0.03900146484375,0.95721435546875
1630937438673,-0.2640380859375,-0.040283203125,0.95574951171875
1630937438674,-0.26025390625,-0.033935546875,0.95550537109375
1630937438709,-0.25909423828125,-0.03955078125,0.9576416015625
1630937438710,-0.25799560546875,-0.03631591796875,0.9622802734375
1630937438711,-0.26318359375,-0.04632568359375,0.96087646484375
1630937438766,-0.25823974609375,-0.04705810546875,0.9595947265625
1630937438766,-0.25958251953125,-0.04339599609375,0.95709228515625
1630937438769,-0.26226806640625,-0.039794921875,0.95513916015625
1630937438834,-0.2593994140625,-0.03839111328125,0.952880859375
1630937438834,-0.25823974609375,-0.0426025390625,0.9544677734375
1630937438834,-0.2596435546875,-0.03814697265625,0.94915771484375
1630937438904,-0.2557373046875,-0.03558349609375,0.960693359375
1630937438904,-0.26007080078125,-0.03857421875,0.95782470703125
1630937438905,-0.2598876953125,-0.0362548828125,0.95654296875
1630937438950,-0.26019287109375,-0.0384521484375,0.9600830078125
1630937438950,-0.257568359375,-0.04339599609375,0.95916748046875
1630937438951,-0.260498046875,-0.03680419921875,0.9610595703125
1630937439009,-0.2625732421875,-0.04339599609375,0.95794677734375
1630937439010,-0.259521484375,-0.04315185546875,0.95703125
1630937439010,-0.25762939453125,-0.04254150390625,0.95819091796875
1630937439105,-0.26007080078125,-0.042236328125,0.9552001953125
1630937439105,-0.2587890625,-0.04327392578125,0.9554443359375
1630937439105,-0.25823974609375,-0.04205322265625,0.954345703125
1630937439125,-0.26190185546875,-0.0416259765625,0.95611572265625
1630937439141,-0.2607421875,-0.04241943359375,0.9600830078125
1630937439149,-0.26177978515625,-0.03863525390625,0.9566650390625
1630937439190,-0.2647705078125,-0.041015625,0.95660400390625
1630937439190,-0.26092529296875,-0.04150390625,0.9603271484375
1630937439190,-0.2633056640625,-0.0433349609375,0.961669921875
1630937439265,-0.26458740234375,-0.038818359375,0.952880859375
1630937439284,-0.263671875,-0.0426025390625,0.95538330078125
1630937439298,-0.26361083984375,-0.038818359375,0.95709228515625
1630937439327,-0.26458740234375,-0.036865234375,0.95281982421875
1630937439328,-0.26397705078125,-0.0377197265625,0.9520263671875
1630937439328,-0.2647705078125,-0.03680419921875,0.95416259765625
1630937439395,-0.26141357421875,-0.04205322265625,0.9559326171875
1630937439395,-0.2647705078125,-0.04083251953125,0.9560546875
1630937439395,-0.2625732421875,-0.0413818359375,0.9552001953125
1630937439461,-0.26324462890625,-0.0443115234375,0.95697021484375
1630937439464,-0.261962890625,-0.042724609375,0.9583740234375
1630937439465,-0.259765625,-0.04376220703125,0.95526123046875
1630937439490,-0.26080322265625,-0.04364013671875,0.95751953125
1630937439490,-0.26190185546875,-0.043212890625,0.95477294921875
1630937439505,-0.263671875,-0.04376220703125,0.956298828125
1630937439577,-0.26708984375,-0.03826904296875,0.955810546875
1630937439578,-0.2596435546875,-0.039794921875,0.95489501953125
1630937439584,-0.2611083984375,-0.0391845703125,0.95611572265625
1630937439598,-0.25946044921875,-0.039306640625,0.9541015625
1630937439598,-0.257080078125,-0.04083251953125,0.95416259765625
1630937439601,-0.26318359375,-0.03643798828125,0.95623779296875
1630937439661,-0.26470947265625,-0.0386962890625,0.95745849609375
1630937439661,-0.260986328125,-0.03924560546875,0.955078125
1630937439662,-0.2628173828125,-0.0406494140625,0.95458984375
1630937439711,-0.26556396484375,-0.04510498046875,0.95367431640625
1630937439711,-0.2601318359375,-0.041015625,0.9541015625
1630937439711,-0.2655029296875,-0.050048828125,0.9549560546875
1630937439776,-0.2620849609375,-0.04437255859375,0.94842529296875
1630937439780,-0.2623291015625,-0.03973388671875,0.94964599609375
1630937439781,-0.2593994140625,-0.034912109375,0.95452880859375
1630937439835,-0.2628173828125,-0.03704833984375,0.95892333984375
1630937439835,-0.25738525390625,-0.0399169921875,0.958740234375
1630937439835,-0.2576904296875,-0.0384521484375,0.9588623046875
1630937439892,-0.26007080078125,-0.03662109375,0.9591064453125
1630937439892,-0.258056640625,-0.038330078125,0.9600830078125
1630937439893,-0.259765625,-0.0377197265625,0.9578857421875
1630937439950,-0.26324462890625,-0.03814697265625,0.9622802734375
1630937439950,-0.26043701171875,-0.04119873046875,0.957275390625
1630937439951,-0.2608642578125,-0.04150390625,0.95849609375
1630937440045,-0.264404296875,-0.04534912109375,0.9559326171875
1630937440046,-0.26458740234375,-0.04290771484375,0.951171875
1630937440046,-0.25970458984375,-0.04266357421875,0.96044921875
1630937440087,-0.25897216796875,-0.0419921875,0.94940185546875
1630937440087,-0.2615966796875,-0.043212890625,0.95196533203125
1630937440087,-0.25933837890625,-0.03631591796875,0.94927978515625
1630937440124,-0.2613525390625,-0.04205322265625,0.95440673828125
1630937440133,-0.2620849609375,-0.04095458984375,0.95269775390625
1630937440133,-0.2574462890625,-0.0428466796875,0.96002197265625
1630937440178,-0.2581787109375,-0.03857421875,0.9581298828125
1630937440178,-0.25830078125,-0.037841796875,0.964111328125
1630937440179,-0.25933837890625,-0.03717041015625,0.9609375
1630937440245,-0.261962890625,-0.03973388671875,0.964599609375
1630937440245,-0.2589111328125,-0.04144287109375,0.9613037109375
1630937440245,-0.25836181640625,-0.0384521484375,0.96246337890625
1630937440334,-0.26043701171875,-0.0428466796875,0.95562744140625
1630937440335,-0.261474609375,-0.03759765625,0.9588623046875
1630937440339,-0.26507568359375,-0.043701171875,0.95281982421875
1630937440368,-0.26416015625,-0.04742431640625,0.95220947265625
1630937440368,-0.26409912109375,-0.0445556640625,0.95361328125
1630937440368,-0.2625732421875,-0.0445556640625,0.9527587890625
1630937440420,-0.26788330078125,-0.04754638671875,0.9527587890625
1630937440421,-0.26556396484375,-0.04571533203125,0.95355224609375
1630937440421,-0.26507568359375,-0.04669189453125,0.9549560546875
1630937440502,-0.26568603515625,-0.0479736328125,0.9525146484375
1630937440559,-0.26263427734375,-0.0474853515625,0.956787109375
1630937440559,-0.26220703125,-0.0474853515625,0.95703125
1630937440568,-0.26239013671875,-0.04595947265625,0.952880859375
1630937440570,-0.26226806640625,-0.045654296875,0.95391845703125
1630937440571,-0.2628173828125,-0.0482177734375,0.9556884765625
1630937440612,-0.260498046875,-0.04644775390625,0.95953369140625
1630937440612,-0.26251220703125,-0.04541015625,0.96282958984375
1630937440662,-0.26190185546875,-0.04461669921875,0.96368408203125
1630937440662,-0.263916015625,-0.05010986328125,0.9556884765625
1630937440662,-0.2611083984375,-0.05157470703125,0.9527587890625
1630937440741,-0.2646484375,-0.04693603515625,0.9476318359375
1630937440741,-0.26361083984375,-0.044189453125,0.9554443359375
1630937440741,-0.2623291015625,-0.0396728515625,0.9512939453125
1630937440830,-0.257568359375,-0.04339599609375,0.9554443359375
1630937440832,-0.2628173828125,-0.04742431640625,0.9556884765625
1630937440833,-0.26385498046875,-0.0491943359375,0.95904541015625
1630937440847,-0.2647705078125,-0.044921875,0.95782470703125
1630937440847,-0.2586669921875,-0.04302978515625,0.9559326171875
1630937440851,-0.2640380859375,-0.04766845703125,0.95391845703125
1630937440918,-0.2628173828125,-0.04833984375,0.952880859375
1630937440919,-0.264892578125,-0.0489501953125,0.9542236328125
1630937440919,-0.2584228515625,-0.04705810546875,0.9520263671875
1630937440944,-0.26544189453125,-0.0474853515625,0.9560546875
1630937440944,-0.26416015625,-0.0489501953125,0.95770263671875
1630937440945,-0.26397705078125,-0.0452880859375,0.95550537109375
1630937441052,-0.26373291015625,-0.04510498046875,0.95263671875
1630937441053,-0.26202392578125,-0.04315185546875,0.9532470703125
1630937441053,-0.261474609375,-0.04302978515625,0.9573974609375
1630937441079,-0.2646484375,-0.0478515625,0.95648193359375
1630937441080,-0.26239013671875,-0.0469970703125,0.95648193359375
1630937441084,-0.263671875,-0.0504150390625,0.95745849609375
1630937441133,-0.2646484375,-0.04901123046875,0.95794677734375
1630937441134,-0.26361083984375,-0.04595947265625,0.95513916015625
1630937441134,-0.2645263671875,-0.04559326171875,0.95697021484375
1630937441219,-0.2626953125,-0.042724609375,0.95501708984375
1630937441219,-0.265380859375,-0.04150390625,0.95391845703125
1630937441219,-0.2642822265625,-0.042724609375,0.95367431640625
1630937441276,-0.2628173828125,-0.0452880859375,0.9512939453125
1630937441292,-0.2630615234375,-0.04364013671875,0.952392578125
1630937441293,-0.262451171875,-0.04644775390625,0.950927734375
1630937441305,-0.26202392578125,-0.04705810546875,0.95428466796875
1630937441305,-0.2591552734375,-0.048583984375,0.95751953125
1630937441305,-0.2630615234375,-0.047607421875,0.9552001953125
1630937441394,-0.25836181640625,-0.048583984375,0.95623779296875
1630937441395,-0.2615966796875,-0.049560546875,0.95758056640625
1630937441396,-0.25994873046875,-0.04913330078125,0.95721435546875
1630937441427,-0.26434326171875,-0.043212890625,0.95697021484375
1630937441430,-0.25921630859375,-0.04864501953125,0.95794677734375
1630937441430,-0.26177978515625,-0.0458984375,0.9583740234375
1630937441504,-0.26007080078125,-0.0462646484375,0.95941162109375
1630937441505,-0.26470947265625,-0.0472412109375,0.954833984375
1630937441507,-0.26519775390625,-0.0494384765625,0.9527587890625
1630937441576,-0.26275634765625,-0.04534912109375,0.95703125
1630937441576,-0.260498046875,-0.0489501953125,0.9527587890625
1630937441577,-0.26226806640625,-0.04736328125,0.9552001953125
1630937441626,-0.26263427734375,-0.04559326171875,0.958251953125
1630937441626,-0.2618408203125,-0.0438232421875,0.95916748046875
1630937441626,-0.26470947265625,-0.0496826171875,0.95941162109375
1630937441678,-0.260986328125,-0.05194091796875,0.95361328125
1630937441678,-0.2620849609375,-0.04754638671875,0.95281982421875
1630937441745,-0.26171875,-0.0452880859375,0.9534912109375
1630937441746,-0.26220703125,-0.04864501953125,0.954345703125
1630937441746,-0.25933837890625,-0.04681396484375,0.955078125
1630937441794,-0.2601318359375,-0.045654296875,0.9600830078125
1630937441794,-0.26116943359375,-0.0435791015625,0.95916748046875
1630937441794,-0.2623291015625,-0.0430908203125,0.95635986328125
1630937441831,-0.26123046875,-0.0438232421875,0.95849609375
1630937441831,-0.2625732421875,-0.04327392578125,0.95892333984375
1630937441841,-0.26055908203125,-0.04779052734375,0.95703125
1630937441934,-0.26214599609375,-0.0498046875,0.9573974609375
1630937441934,-0.26324462890625,-0.04656982421875,0.95391845703125
1630937441934,-0.26361083984375,-0.0479736328125,0.95477294921875
1630937441953,-0.2601318359375,-0.05206298828125,0.9549560546875
1630937441953,-0.26385498046875,-0.048828125,0.9527587890625
1630937441954,-0.26806640625,-0.0487060546875,0.9541015625
1630937442016,-0.26202392578125,-0.05023193359375,0.958251953125
1630937442016,-0.2607421875,-0.05206298828125,0.95428466796875
1630937442017,-0.2635498046875,-0.04840087890625,0.953369140625
1630937442072,-0.25909423828125,-0.0511474609375,0.95892333984375
1630937442072,-0.2637939453125,-0.0489501953125,0.95770263671875
1630937442072,-0.26092529296875,-0.05517578125,0.95355224609375
1630937442141,-0.26129150390625,-0.04742431640625,0.95709228515625
1630937442151,-0.25738525390625,-0.04754638671875,0.9566650390625
1630937442152,-0.26568603515625,-0.0489501953125,0.9576416015625
1630937442196,-0.2630615234375,-0.04779052734375,0.9534912109375
1630937442203,-0.2623291015625,-0.04644775390625,0.953125
1630937442203,-0.26483154296875,-0.0457763671875,0.95166015625
1630937442244,-0.26348876953125,-0.045654296875,0.9522705078125
1630937442252,-0.26019287109375,-0.04669189453125,0.95281982421875
1630937442253,-0.26458740234375,-0.04962158203125,0.95660400390625
1630937442336,-0.2623291015625,-0.047119140625,0.958984375
1630937442336,-0.2626953125,-0.04937744140625,0.9593505859375
1630937442336,-0.26080322265625,-0.04827880859375,0.9569091796875
1630937442360,-0.26141357421875,-0.0458984375,0.95733642578125
1630937442364,-0.26165771484375,-0.0450439453125,0.95849609375
1630937442365,-0.26165771484375,-0.04522705078125,0.95733642578125
1630937442472,-0.25921630859375,-0.044189453125,0.95703125
1630937442472,-0.25811767578125,-0.0460205078125,0.95458984375
1630937442472,-0.2591552734375,-0.0426025390625,0.95733642578125
1630937442488,-0.26202392578125,-0.0479736328125,0.957275390625
1630937442489,-0.25982666015625,-0.04620361328125,0.95574951171875
1630937442489,-0.26019287109375,-0.0469970703125,0.954345703125
1630937442561,-0.2603759765625,-0.04541015625,0.955810546875
1630937442561,-0.2584228515625,-0.04339599609375,0.95794677734375
1630937442562,-0.25762939453125,-0.04296875,0.95428466796875
1630937442602,-0.26190185546875,-0.04998779296875,0.958251953125
1630937442602,-0.2618408203125,-0.05853271484375,0.95513916015625
1630937442603,-0.26123046875,-0.044921875,0.95965576171875
1630937442692,-0.259765625,-0.04779052734375,0.95269775390625
1630937442697,-0.262451171875,-0.053955078125,0.9541015625
1630937442701,-0.26080322265625,-0.0513916015625,0.95355224609375
1630937442733,-0.2574462890625,-0.0469970703125,0.96099853515625
1630937442736,-0.2611083984375,-0.05145263671875,0.956787109375
1630937442736,-0.2581787109375,-0.04925537109375,0.95703125
1630937442780,-0.25927734375,-0.04644775390625,0.9610595703125
1630937442782,-0.259033203125,-0.04620361328125,0.96051025390625
1630937442783,-0.25433349609375,-0.04522705078125,0.96319580078125
1630937442853,-0.260986328125,-0.0523681640625,0.95819091796875
1630937442854,-0.25970458984375,-0.05108642578125,0.9603271484375
1630937442854,-0.26171875,-0.04754638671875,0.95953369140625
1630937442920,-0.26171875,-0.0501708984375,0.9561767578125
1630937442921,-0.2607421875,-0.04998779296875,0.95623779296875
1630937442921,-0.26483154296875,-0.05169677734375,0.955322265625
1630937442973,-0.2659912109375,-0.046875,0.94757080078125
1630937442974,-0.26348876953125,-0.0496826171875,0.94921875
1630937442974,-0.2650146484375,-0.04779052734375,0.949462890625
1630937443027,-0.2623291015625,-0.04815673828125,0.95880126953125
1630937443030,-0.26434326171875,-0.04864501953125,0.95458984375
1630937443049,-0.264404296875,-0.04803466796875,0.95361328125
1630937443095,-0.26068115234375,-0.0469970703125,0.95703125
1630937443096,-0.26348876953125,-0.0433349609375,0.95770263671875
1630937443097,-0.26287841796875,-0.04730224609375,0.9566650390625
1630937443142,-0.263427734375,-0.044677734375,0.95587158203125
1630937443142,-0.26470947265625,-0.0413818359375,0.956298828125
1630937443142,-0.2625732421875,-0.04266357421875,0.9556884765625
1630937443223,-0.26763916015625,-0.04278564453125,0.95391845703125
1630937443223,-0.26409912109375,-0.03997802734375,0.952880859375
1630937443224,-0.26171875,-0.04443359375,0.9530029296875
1630937443251,-0.26568603515625,-0.04229736328125,0.95367431640625
1630937443268,-0.26348876953125,-0.04998779296875,0.95654296875
1630937443275,-0.26251220703125,-0.04486083984375,0.95404052734375
1630937443316,-0.2615966796875,-0.04833984375,0.9569091796875
1630937443316,-0.26263427734375,-0.05059814453125,0.95648193359375
1630937443316,-0.2611083984375,-0.049560546875,0.9580078125
1630937443395,-0.2618408203125,-0.04693603515625,0.95489501953125
1630937443396,-0.26153564453125,-0.04833984375,0.95709228515625
1630937443397,-0.2618408203125,-0.04986572265625,0.9549560546875
1630937443453,-0.25927734375,-0.04644775390625,0.95550537109375
1630937443455,-0.2633056640625,-0.04718017578125,0.95513916015625
1630937443460,-0.2657470703125,-0.04681396484375,0.9534912109375
1630937443478,-0.260009765625,-0.0458984375,0.961669921875
1630937443479,-0.25982666015625,-0.0479736328125,0.95330810546875
1630937443479,-0.26226806640625,-0.050537109375,0.9600830078125
1630937443591,-0.26739501953125,-0.04736328125,0.95733642578125
1630937443591,-0.262451171875,-0.0455322265625,0.96014404296875
1630937443591,-0.25958251953125,-0.04241943359375,0.96136474609375
1630937443616,-0.26239013671875,-0.05169677734375,0.95574951171875
1630937443616,-0.2650146484375,-0.05487060546875,0.95611572265625
1630937443616,-0.2606201171875,-0.0467529296875,0.95263671875
1630937443666,-0.2645263671875,-0.0435791015625,0.95745849609375
1630937443666,-0.26397705078125,-0.04376220703125,0.95501708984375
1630937443666,-0.26092529296875,-0.04150390625,0.95233154296875
1630937443721,-0.26318359375,-0.04412841796875,0.9534912109375
1630937443721,-0.26165771484375,-0.04168701171875,0.958740234375
1630937443721,-0.2603759765625,-0.041748046875,0.954833984375
1630937443788,-0.25994873046875,-0.04742431640625,0.9586181640625
1630937443788,-0.263916015625,-0.04693603515625,0.9571533203125
1630937443789,-0.26409912109375,-0.0479736328125,0.956787109375
1630937443852,-0.26422119140625,-0.04461669921875,0.9576416015625
1630937443852,-0.26348876953125,-0.04425048828125,0.94866943359375
1630937443852,-0.262939453125,-0.04266357421875,0.9542236328125
1630937443918,-0.2635498046875,-0.04278564453125,0.9521484375
1630937443918,-0.26251220703125,-0.04339599609375,0.953857421875
1630937443918,-0.2689208984375,-0.04034423828125,0.9581298828125
1630937443967,-0.2645263671875,-0.04974365234375,0.95703125
1630937443968,-0.263671875,-0.0513916015625,0.95556640625
1630937443976,-0.26123046875,-0.0472412109375,0.957275390625
1630937444039,-0.26434326171875,-0.05029296875,0.9559326171875
1630937444039,-0.2620849609375,-0.04833984375,0.95709228515625
1630937444039,-0.2630615234375,-0.04736328125,0.95635986328125
1630937444089,-0.2662353515625,-0.04669189453125,0.9537353515625
1630937444095,-0.26629638671875,-0.0482177734375,0.95635986328125
1630937444096,-0.2657470703125,-0.046142578125,0.95477294921875
1630937444148,-0.26678466796875,-0.0458984375,0.94964599609375
1630937444159,-0.2667236328125,-0.04620361328125,0.9527587890625
1630937444209,-0.263671875,-0.04901123046875,0.94873046875
1630937444209,-0.2645263671875,-0.0491943359375,0.9510498046875
1630937444209,-0.2677001953125,-0.05084228515625,0.95440673828125
1630937444256,-0.2633056640625,-0.05108642578125,0.95440673828125
1630937444256,-0.263427734375,-0.049560546875,0.95550537109375
1630937444256,-0.2625732421875,-0.04901123046875,0.95477294921875
1630937444302,-0.26080322265625,-0.05072021484375,0.95794677734375
1630937444302,-0.2635498046875,-0.0494384765625,0.9586181640625
1630937444332,-0.2630615234375,-0.04998779296875,0.95770263671875
1630937444393,-0.26446533203125,-0.046142578125,0.95526123046875
1630937444393,-0.26251220703125,-0.047607421875,0.9554443359375
1630937444393,-0.2593994140625,-0.050537109375,0.956298828125
1630937444456,-0.2640380859375,-0.04779052734375,0.957763671875
1630937444456,-0.266357421875,-0.04315185546875,0.95703125
1630937444456,-0.26104736328125,-0.0479736328125,0.9554443359375
1630937444483,-0.26336669921875,-0.0557861328125,0.957275390625
1630937444484,-0.26092529296875,-0.040771484375,0.9561767578125
1630937444486,-0.26251220703125,-0.05035400390625,0.958251953125
1630937444571,-0.26220703125,-0.04241943359375,0.951904296875
1630937444571,-0.2655029296875,-0.051025390625,0.94927978515625
1630937444571,-0.2630615234375,-0.04791259765625,0.94580078125
1630937444639,-0.26263427734375,-0.05047607421875,0.95703125
1630937444639,-0.26324462890625,-0.04742431640625,0.954833984375
1630937444641,-0.25872802734375,-0.0439453125,0.9539794921875
1630937444689,-0.26251220703125,-0.0496826171875,0.95855712890625
1630937444689,-0.26190185546875,-0.04937744140625,0.96026611328125
1630937444689,-0.263916015625,-0.04779052734375,0.957275390625
1630937444724,-0.262939453125,-0.05035400390625,0.95452880859375
1630937444725,-0.26104736328125,-0.05108642578125,0.95782470703125
1630937444726,-0.26287841796875,-0.04949951171875,0.95648193359375
1630937444790,-0.2655029296875,-0.04815673828125,0.958251953125
1630937444790,-0.26348876953125,-0.04766845703125,0.953369140625
1630937444790,-0.264892578125,-0.04730224609375,0.955810546875
1630937444906,-0.2593994140625,-0.04791259765625,0.9521484375
1630937444906,-0.2642822265625,-0.04681396484375,0.95513916015625
1630937444906,-0.2607421875,-0.049072265625,0.95538330078125
1630937444925,-0.262939453125,-0.0458984375,0.95281982421875
1630937444926,-0.26373291015625,-0.0487060546875,0.9547119140625
1630937444933,-0.26312255859375,-0.0489501953125,0.95263671875
1630937444976,-0.2635498046875,-0.05010986328125,0.9573974609375
1630937444977,-0.26123046875,-0.0439453125,0.955322265625
1630937444977,-0.26361083984375,-0.050048828125,0.95703125
1630937445031,-0.26422119140625,-0.043701171875,0.95635986328125
1630937445031,-0.26324462890625,-0.04400634765625,0.95465087890625
1630937445032,-0.265380859375,-0.04656982421875,0.9566650390625
1630937445089,-0.26666259765625,-0.04547119140625,0.95623779296875
1630937445089,-0.26373291015625,-0.04486083984375,0.9580078125
1630937445089,-0.2642822265625,-0.04290771484375,0.95330810546875
1630937445180,-0.26263427734375,-0.047607421875,0.95770263671875
1630937445181,-0.2587890625,-0.046142578125,0.9541015625
1630937445181,-0.26092529296875,-0.044189453125,0.95953369140625
1630937445208,-0.262451171875,-0.04913330078125,0.95733642578125
1630937445208,-0.2635498046875,-0.04608154296875,0.95654296875
1630937445208,-0.25811767578125,-0.0506591796875,0.95623779296875
1630937445261,-0.26312255859375,-0.04833984375,0.95635986328125
1630937445261,-0.26226806640625,-0.04864501953125,0.9600830078125
1630937445261,-0.26190185546875,-0.05126953125,0.9593505859375
1630937445356,-0.2633056640625,-0.04888916015625,0.9581298828125
1630937445357,-0.2669677734375,-0.0511474609375,0.9522705078125
1630937445377,-0.26483154296875,-0.05206298828125,0.950927734375
1630937445392,-0.25982666015625,-0.05340576171875,0.95806884765625
1630937445392,-0.263671875,-0.055419921875,0.955078125
1630937445393,-0.26171875,-0.052490234375,0.952880859375
1630937445440,-0.26141357421875,-0.0506591796875,0.961181640625
1630937445442,-0.259765625,-0.051513671875,0.95684814453125
1630937445450,-0.261474609375,-0.05572509765625,0.9583740234375
1630937445507,-0.2637939453125,-0.06201171875,0.95947265625
1630937445514,-0.266357421875,-0.05657958984375,0.9552001953125
1630937445514,-0.2601318359375,-0.0535888671875,0.95355224609375
1630937445552,-0.26055908203125,-0.05078125,0.95367431640625
1630937445552,-0.25970458984375,-0.0513916015625,0.9530029296875
1630937445552,-0.25823974609375,-0.0531005859375,0.95367431640625
1630937445601,-0.26007080078125,-0.04632568359375,0.955322265625
1630937445602,-0.26177978515625,-0.05029296875,0.95550537109375
1630937445692,-0.26434326171875,-0.04962158203125,0.9561767578125
1630937445693,-0.26251220703125,-0.0531005859375,0.9556884765625
1630937445693,-0.2623291015625,-0.0501708984375,0.95654296875
1630937445757,-0.26312255859375,-0.0533447265625,0.958740234375
1630937445758,-0.2626953125,-0.05413818359375,0.9544677734375
1630937445797,-0.26171875,-0.053466796875,0.954345703125
1630937445797,-0.2615966796875,-0.0548095703125,0.95172119140625
1630937445798,-0.26177978515625,-0.05474853515625,0.953857421875
1630937445866,-0.26220703125,-0.0516357421875,0.95318603515625
1630937445872,-0.262939453125,-0.0506591796875,0.953857421875
1630937445872,-0.26251220703125,-0.052001953125,0.95343017578125
1630937445913,-0.2615966796875,-0.04998779296875,0.95770263671875
1630937445914,-0.26397705078125,-0.05218505859375,0.95556640625
1630937445914,-0.2625732421875,-0.0494384765625,0.95867919921875
1630937445956,-0.26104736328125,-0.04913330078125,0.9539794921875
1630937445956,-0.26556396484375,-0.048828125,0.95635986328125
1630937445956,-0.2613525390625,-0.04827880859375,0.9576416015625
1630937446047,-0.26348876953125,-0.04901123046875,0.9554443359375
1630937446047,-0.26666259765625,-0.0496826171875,0.954345703125
1630937446048,-0.2607421875,-0.04827880859375,0.95306396484375
1630937446073,-0.259033203125,-0.0462646484375,0.955322265625
1630937446075,-0.26068115234375,-0.05096435546875,0.95709228515625
1630937446085,-0.2628173828125,-0.0535888671875,0.95318603515625
1630937446133,-0.26025390625,-0.05792236328125,0.9544677734375
1630937446134,-0.263671875,-0.0552978515625,0.955078125
1630937446134,-0.25909423828125,-0.05560302734375,0.957763671875
1630937446205,-0.26055908203125,-0.0545654296875,0.95697021484375
1630937446205,-0.25872802734375,-0.05230712890625,0.95703125
1630937446206,-0.2606201171875,-0.05218505859375,0.95538330078125
1630937446245,-0.2593994140625,-0.0535888671875,0.95733642578125
1630937446247,-0.26348876953125,-0.04962158203125,0.954833984375
1630937446254,-0.26019287109375,-0.04949951171875,0.95782470703125
1630937446366,-0.2598876953125,-0.049560546875,0.95123291015625
1630937446367,-0.263671875,-0.0491943359375,0.955322265625
1630937446369,-0.2607421875,-0.04949951171875,0.95343017578125
1630937446385,-0.26171875,-0.04827880859375,0.9571533203125
1630937446385,-0.262451171875,-0.04486083984375,0.95709228515625
1630937446390,-0.2615966796875,-0.04931640625,0.96038818359375
1630937446479,-0.26336669921875,-0.05078125,0.95849609375
1630937446499,-0.26361083984375,-0.0582275390625,0.95465087890625
1630937446499,-0.26568603515625,-0.05340576171875,0.9598388671875
1630937446508,-0.260498046875,-0.05291748046875,0.95074462890625
1630937446508,-0.2646484375,-0.04864501953125,0.9500732421875
1630937446513,-0.26300048828125,-0.04473876953125,0.95703125
1630937446563,-0.25946044921875,-0.0479736328125,0.95660400390625
1630937446563,-0.26226806640625,-0.04931640625,0.955810546875
1630937446563,-0.260009765625,-0.050537109375,0.95965576171875
1630937446632,-0.263671875,-0.04803466796875,0.95550537109375
1630937446633,-0.260498046875,-0.048828125,0.95965576171875
1630937446634,-0.259765625,-0.0462646484375,0.957763671875
1630937446692,-0.258056640625,-0.05267333984375,0.95343017578125
1630937446714,-0.2647705078125,-0.0496826171875,0.9561767578125
1630937446721,-0.266845703125,-0.05084228515625,0.958740234375
1630937446724,-0.26068115234375,-0.04730224609375,0.9580078125
1630937446733,-0.26116943359375,-0.0465087890625,0.96014404296875
1630937446735,-0.26513671875,-0.05255126953125,0.95391845703125
1630937446784,-0.2652587890625,-0.051025390625,0.9537353515625
1630937446784,-0.264404296875,-0.05120849609375,0.9520263671875
1630937446785,-0.26507568359375,-0.0477294921875,0.94964599609375
1630937446876,-0.26324462890625,-0.05377197265625,0.95513916015625
1630937446877,-0.261962890625,-0.0531005859375,0.95526123046875
1630937446881,-0.2606201171875,-0.0531005859375,0.9600830078125
1630937446943,-0.261962890625,-0.05291748046875,0.958251953125
1630937446944,-0.26348876953125,-0.052734375,0.95611572265625
1630937446946,-0.264892578125,-0.052490234375,0.9581298828125
1630937446973,-0.26434326171875,-0.05072021484375,0.954345703125
1630937446974,-0.26556396484375,-0.04913330078125,0.95318603515625
1630937446975,-0.26409912109375,-0.05120849609375,0.95306396484375
1630937447028,-0.264404296875,-0.046875,0.9539794921875
1630937447028,-0.26220703125,-0.0491943359375,0.9522705078125
1630937447028,-0.26336669921875,-0.04827880859375,0.9534912109375
1630937447100,-0.2650146484375,-0.04974365234375,0.95257568359375
1630937447101,-0.26318359375,-0.05059814453125,0.95465087890625
1630937447101,-0.26513671875,-0.0501708984375,0.95111083984375
1630937447197,-0.2608642578125,-0.052978515625,0.9560546875
1630937447199,-0.2607421875,-0.0528564453125,0.9515380859375
1630937447200,-0.2607421875,-0.0509033203125,0.952880859375
1630937447222,-0.2601318359375,-0.0546875,0.95721435546875
1630937447222,-0.25994873046875,-0.05255126953125,0.957275390625
1630937447222,-0.26171875,-0.0521240234375,0.9581298828125
1630937447298,-0.25921630859375,-0.05218505859375,0.95751953125
1630937447298,-0.26025390625,-0.04949951171875,0.95855712890625
1630937447299,-0.26275634765625,-0.05169677734375,0.9595947265625
1630937447299,-0.26177978515625,-0.0501708984375,0.95477294921875
1630937447305,-0.2640380859375,-0.05126953125,0.9571533203125
1630937447306,-0.26483154296875,-0.04791259765625,0.95941162109375
1630937447419,-0.26409912109375,-0.0565185546875,0.9488525390625
1630937447419,-0.26446533203125,-0.05572509765625,0.9566650390625
1630937447419,-0.26727294921875,-0.05401611328125,0.953857421875
1630937447462,-0.26727294921875,-0.0491943359375,0.95135498046875
1630937447464,-0.261474609375,-0.049072265625,0.955078125
1630937447465,-0.26202392578125,-0.0472412109375,0.94805908203125
1630937447477,-0.261474609375,-0.05035400390625,0.95330810546875
1630937447484,-0.2625732421875,-0.0526123046875,0.95428466796875
1630937447489,-0.260986328125,-0.0528564453125,0.95501708984375
1630937447569,-0.2618408203125,-0.05645751953125,0.9561767578125
1630937447569,-0.25933837890625,-0.05712890625,0.9573974609375
1630937447569,-0.26080322265625,-0.05255126953125,0.95745849609375
1630937447619,-0.26312255859375,-0.05621337890625,0.9603271484375
1630937447630,-0.2620849609375,-0.054443359375,0.95477294921875
1630937447630,-0.260986328125,-0.049072265625,0.9530029296875
1630937447682,-0.26300048828125,-0.0498046875,0.9522705078125
1630937447682,-0.2628173828125,-0.05072021484375,0.95855712890625
1630937447683,-0.2642822265625,-0.0496826171875,0.955810546875
1630937447730,-0.26300048828125,-0.05340576171875,0.952880859375
1630937447731,-0.2625732421875,-0.048583984375,0.95538330078125
1630937447733,-0.26239013671875,-0.04925537109375,0.95361328125
1630937447819,-0.2620849609375,-0.05145263671875,0.953857421875
1630937447821,-0.26123046875,-0.05426025390625,0.957275390625
1630937447821,-0.2620849609375,-0.0535888671875,0.957763671875
1630937447855,-0.26324462890625,-0.049560546875,0.95440673828125
1630937447856,-0.2626953125,-0.05230712890625,0.95654296875
1630937447856,-0.26318359375,-0.04840087890625,0.95806884765625
1630937447917,-0.2662353515625,-0.04827880859375,0.9586181640625
1630937447917,-0.26495361328125,-0.04840087890625,0.95654296875
1630937447972,-0.26092529296875,-0.0501708984375,0.95208740234375
1630937447972,-0.25872802734375,-0.05267333984375,0.95526123046875
1630937447972,-0.26287841796875,-0.05133056640625,0.9520263671875
1630937448038,-0.2613525390625,-0.04754638671875,0.95556640625
1630937448038,-0.26318359375,-0.0518798828125,0.9600830078125
1630937448038,-0.25982666015625,-0.05712890625,0.955810546875
1630937448079,-0.26080322265625,-0.0538330078125,0.95635986328125
1630937448080,-0.25933837890625,-0.0546875,0.95758056640625
1630937448080,-0.25982666015625,-0.05596923828125,0.95941162109375
1630937448147,-0.26031494140625,-0.05120849609375,0.95697021484375
1630937448149,-0.2623291015625,-0.0545654296875,0.9560546875
1630937448155,-0.260986328125,-0.0550537109375,0.9554443359375
1630937448202,-0.260986328125,-0.05487060546875,0.95556640625
1630937448202,-0.2589111328125,-0.05364990234375,0.9559326171875
1630937448202,-0.26055908203125,-0.05340576171875,0.95391845703125
1630937448288,-0.25860595703125,-0.0550537109375,0.95172119140625
1630937448288,-0.2628173828125,-0.0528564453125,0.95404052734375
1630937448288,-0.26092529296875,-0.052001953125,0.95947265625
1630937448306,-0.2593994140625,-0.05712890625,0.95751953125
1630937448307,-0.2615966796875,-0.0552978515625,0.9559326171875
1630937448307,-0.2642822265625,-0.06329345703125,0.95709228515625
1630937448413,-0.2640380859375,-0.060791015625,0.9530029296875
1630937448415,-0.26031494140625,-0.0562744140625,0.95184326171875
1630937448416,-0.2603759765625,-0.05426025390625,0.9517822265625
1630937448469,-0.25848388671875,-0.05389404296875,0.95635986328125
1630937448470,-0.26263427734375,-0.05511474609375,0.95489501953125
1630937448470,-0.25860595703125,-0.05230712890625,0.95867919921875
1630937448519,-0.25543212890625,-0.0517578125,0.95513916015625
1630937448519,-0.26007080078125,-0.0511474609375,0.95806884765625
1630937448519,-0.25982666015625,-0.04864501953125,0.9559326171875
1630937448550,-0.259033203125,-0.05377197265625,0.9583740234375
1630937448553,-0.2628173828125,-0.05126953125,0.95660400390625
1630937448553,-0.26116943359375,-0.05242919921875,0.9560546875
1630937448622,-0.26141357421875,-0.05450439453125,0.9510498046875
1630937448622,-0.2630615234375,-0.05078125,0.95782470703125
1630937448622,-0.26123046875,-0.05157470703125,0.957275390625
1630937448666,-0.26165771484375,-0.05633544921875,0.953125
1630937448666,-0.2633056640625,-0.053955078125,0.94989013671875
1630937448667,-0.260986328125,-0.051513671875,0.95477294921875
1630937448751,-0.2645263671875,-0.05364990234375,0.9554443359375
1630937448756,-0.26214599609375,-0.0545654296875,0.9539794921875
1630937448756,-0.26129150390625,-0.0550537109375,0.95782470703125
1630937448821,-0.26123046875,-0.0565185546875,0.95733642578125
1630937448821,-0.2579345703125,-0.056640625,0.9556884765625
1630937448821,-0.25927734375,-0.05645751953125,0.957275390625
1630937448845,-0.26177978515625,-0.05084228515625,0.95526123046875
1630937448845,-0.26019287109375,-0.05316162109375,0.9566650390625
1630937448846,-0.2607421875,-0.05218505859375,0.9517822265625
1630937448940,-0.259033203125,-0.05523681640625,0.95391845703125
1630937448941,-0.26416015625,-0.052001953125,0.949462890625
1630937448942,-0.26519775390625,-0.05126953125,0.95367431640625
1630937448983,-0.2615966796875,-0.053466796875,0.95703125
1630937448983,-0.26141357421875,-0.05560302734375,0.95489501953125
1630937448983,-0.25897216796875,-0.05462646484375,0.953857421875
1630937449076,-0.25634765625,-0.05780029296875,0.95977783203125
1630937449079,-0.25653076171875,-0.05499267578125,0.95867919921875
1630937449080,-0.25439453125,-0.0611572265625,0.953369140625
1630937449110,-0.25592041015625,-0.05792236328125,0.95904541015625
1630937449110,-0.25567626953125,-0.05877685546875,0.9581298828125
1630937449111,-0.2581787109375,-0.055908203125,0.958251953125
1630937449148,-0.25616455078125,-0.05780029296875,0.95672607421875
1630937449148,-0.260009765625,-0.05548095703125,0.95831298828125
1630937449148,-0.260009765625,-0.05548095703125,0.9576416015625
1630937449225,-0.26043701171875,-0.0555419921875,0.9542236328125
1630937449226,-0.2557373046875,-0.05352783203125,0.9534912109375
1630937449226,-0.26031494140625,-0.05474853515625,0.95550537109375
1630937449253,-0.26202392578125,-0.0546875,0.95501708984375
1630937449255,-0.25872802734375,-0.0543212890625,0.95281982421875
1630937449255,-0.26171875,-0.05780029296875,0.95263671875
1630937449316,-0.25537109375,-0.05389404296875,0.9559326171875
1630937449316,-0.26025390625,-0.05755615234375,0.95843505859375
1630937449317,-0.25482177734375,-0.0521240234375,0.96087646484375
1630937449381,-0.25982666015625,-0.061279296875,0.95733642578125
1630937449381,-0.257568359375,-0.05999755859375,0.95025634765625
1630937449381,-0.26129150390625,-0.06512451171875,0.96112060546875
1630937449451,-0.259033203125,-0.0562744140625,0.9521484375
1630937449451,-0.256591796875,-0.05438232421875,0.95361328125
1630937449451,-0.2569580078125,-0.05584716796875,0.95770263671875
1630937449527,-0.25537109375,-0.05072021484375,0.96014404296875
1630937449527,-0.2572021484375,-0.05474853515625,0.9588623046875
1630937449529,-0.25567626953125,-0.05072021484375,0.95953369140625
1630937449586,-0.25604248046875,-0.05718994140625,0.95782470703125
1630937449586,-0.2581787109375,-0.051025390625,0.95880126953125
1630937449586,-0.256591796875,-0.055908203125,0.9576416015625
1630937449637,-0.25823974609375,-0.0595703125,0.9560546875
1630937449638,-0.258056640625,-0.05712890625,0.95269775390625
1630937449639,-0.26104736328125,-0.05975341796875,0.9569091796875
1630937449688,-0.2579345703125,-0.05682373046875,0.9542236328125
1630937449695,-0.26043701171875,-0.056640625,0.9532470703125
1630937449696,-0.2562255859375,-0.06048583984375,0.95941162109375
1630937449749,-0.2587890625,-0.0557861328125,0.956787109375
1630937449749,-0.257568359375,-0.05810546875,0.95703125
1630937449749,-0.25830078125,-0.05657958984375,0.958251953125
1630937449825,-0.2550048828125,-0.0589599609375,0.960205078125
1630937449825,-0.25787353515625,-0.05865478515625,0.95977783203125
1630937449834,-0.25885009765625,-0.06011962890625,0.96063232421875
1630937449870,-0.25762939453125,-0.05743408203125,0.9600830078125
1630937449871,-0.25921630859375,-0.05413818359375,0.95233154296875
1630937449871,-0.2589111328125,-0.053466796875,0.95489501953125
1630937449903,-0.26123046875,-0.05364990234375,0.9551391601562
1630937449903,-0.26116943359375,-0.0537109375,0.95367431640625
1630937450010,-0.2596435546875,-0.0528564453125,0.95330810546875
1630937450010,-0.25994873046875,-0.05560302734375,0.95318603515625
1630937450010,-0.260986328125,-0.04998779296875,0.95074462890625
1630937450046,-0.25640869140625,-0.05743408203125,0.9552001953125
1630937450046,-0.2564697265625,-0.05615234375,0.9559326171875
1630937450047,-0.257080078125,-0.0552978515625,0.95904541015625
1630937450099,-0.25531005859375,-0.0556640625,0.95550537109375
1630937450100,-0.25714111328125,-0.059326171875,0.9576416015625
1630937450100,-0.25836181640625,-0.05914306640625,0.9561767578125
1630937450143,-0.256591796875,-0.05584716796875,0.95648193359375
1630937450144,-0.25860595703125,-0.05426025390625,0.955322265625
1630937450148,-0.25799560546875,-0.0546875,0.95867919921875
1630937450201,-0.25762939453125,-0.05267333984375,0.95355224609375
1630937450209,-0.25762939453125,-0.0528564453125,0.95831298828125
1630937450212,-0.256591796875,-0.05352783203125,0.9561767578125
1630937450274,-0.261474609375,-0.05743408203125,0.95928955078125
1630937450274,-0.2581787109375,-0.056884765625,0.959716796875
1630937450274,-0.26129150390625,-0.05731201171875,0.9559326171875
1630937450338,-0.26190185546875,-0.05859375,0.95172119140625
1630937450338,-0.26214599609375,-0.0538330078125,0.95269775390625
1630937450338,-0.26220703125,-0.05426025390625,0.95703125
1630937450404,-0.2626953125,-0.06268310546875,0.951171875
1630937450411,-0.25762939453125,-0.05419921875,0.95184326171875
1630937450411,-0.26190185546875,-0.05975341796875,0.94793701171875
1630937450452,-0.25592041015625,-0.052978515625,0.95599365234375
1630937450452,-0.25885009765625,-0.05548095703125,0.96075439453125
1630937450452,-0.25958251953125,-0.05291748046875,0.9525146484375
1630937450500,-0.256591796875,-0.05712890625,0.95892333984375
1630937450500,-0.2587890625,-0.053466796875,0.9605712890625
1630937450500,-0.25677490234375,-0.05462646484375,0.95684814453125
1630937450564,-0.2626953125,-0.05535888671875,0.95989990234375
1630937450565,-0.260009765625,-0.0570068359375,0.95782470703125
1630937450565,-0.259521484375,-0.05450439453125,0.9580078125
1630937450629,-0.2603759765625,-0.05712890625,0.95867919921875
1630937450630,-0.26397705078125,-0.05584716796875,0.95452880859375
1630937450630,-0.2586669921875,-0.0543212890625,0.95428466796875
1630937450701,-0.2611083984375,-0.0557861328125,0.951171875
1630937450703,-0.2615966796875,-0.05743408203125,0.9560546875
1630937450703,-0.26177978515625,-0.055419921875,0.95208740234375
1630937450739,-0.26361083984375,-0.05743408203125,0.9521484375
1630937450739,-0.2666015625,-0.0625,0.948974609375
1630937450753,-0.264892578125,-0.05975341796875,0.95355224609375
1630937450836,-0.26434326171875,-0.059814453125,0.9576416015625
1630937450837,-0.26470947265625,-0.05596923828125,0.95074462890625
1630937450837,-0.26214599609375,-0.05865478515625,0.95013427734375
1630937450860,-0.260498046875,-0.05352783203125,0.95294189453125
1630937450870,-0.26214599609375,-0.0570068359375,0.9569091796875
1630937450879,-0.2657470703125,-0.055419921875,0.95355224609375
1630937450926,-0.25762939453125,-0.05377197265625,0.95404052734375
1630937450926,-0.26220703125,-0.05389404296875,0.9556884765625
1630937450927,-0.26019287109375,-0.05230712890625,0.956787109375
1630937450964,-0.257568359375,-0.0546875,0.95794677734375
1630937450964,-0.2606201171875,-0.0511474609375,0.9556884765625
1630937450969,-0.2623291015625,-0.05230712890625,0.95648193359375
1630937451036,-0.26141357421875,-0.0543212890625,0.95269775390625
1630937451036,-0.25653076171875,-0.056640625,0.957763671875
1630937451036,-0.26068115234375,-0.05340576171875,0.95361328125
1630937451079,-0.26019287109375,-0.0638427734375,0.95855712890625
1630937451079,-0.26104736328125,-0.06109619140625,0.95654296875
1630937451080,-0.26019287109375,-0.05926513671875,0.955078125
1630937451168,-0.25506591796875,-0.064453125,0.95599365234375
1630937451168,-0.26031494140625,-0.06280517578125,0.954833984375
1630937451168,-0.26031494140625,-0.063720703125,0.95513916015625
1630937451226,-0.259765625,-0.06231689453125,0.95849609375
1630937451226,-0.2635498046875,-0.05572509765625,0.95635986328125
1630937451226,-0.2574462890625,-0.05743408203125,0.95550537109375
1630937451276,-0.26190185546875,-0.06634521484375,0.95513916015625
1630937451278,-0.261474609375,-0.06341552734375,0.95989990234375
1630937451291,-0.262451171875,-0.06011962890625,0.958740234375
1630937451368,-0.26153564453125,-0.0650634765625,0.95123291015625
1630937451368,-0.260009765625,-0.0615234375,0.94927978515625
1630937451373,-0.256103515625,-0.05517578125,0.950927734375
1630937451419,-0.26214599609375,-0.05926513671875,0.957275390625
1630937451419,-0.2591552734375,-0.05975341796875,0.95672607421875
1630937451500,-0.2569580078125,-0.05963134765625,0.95330810546875
1630937451500,-0.2608642578125,-0.06109619140625,0.95355224609375
1630937451514,-0.26312255859375,-0.0626220703125,0.95611572265625
1630937451518,-0.2607421875,-0.06396484375,0.957275390625
1630937451518,-0.25811767578125,-0.0616455078125,0.95654296875
1630937451524,-0.263427734375,-0.06048583984375,0.95635986328125
1630937451571,-0.26043701171875,-0.06280517578125,0.9608154296875
1630937451576,-0.25897216796875,-0.059326171875,0.95501708984375
1630937451581,-0.260986328125,-0.05975341796875,0.95635986328125
1630937451636,-0.25982666015625,-0.05975341796875,0.954833984375
1630937451636,-0.2589111328125,-0.057861328125,0.95550537109375
1630937451636,-0.26068115234375,-0.06231689453125,0.95648193359375
1630937451686,-0.26141357421875,-0.0587158203125,0.95654296875
1630937451686,-0.261962890625,-0.05828857421875,0.9593505859375
1630937451687,-0.255859375,-0.05877685546875,0.95635986328125
1630937451728,-0.2591552734375,-0.05450439453125,0.95550537109375
1630937451728,-0.25762939453125,-0.05511474609375,0.95526123046875
1630937451728,-0.25762939453125,-0.0556640625,0.957275390625
1630937451868,-0.259033203125,-0.0509033203125,0.95269775390625
1630937451869,-0.25799560546875,-0.05560302734375,0.956787109375
1630937451869,-0.25677490234375,-0.05450439453125,0.95306396484375
1630937451908,-0.2603759765625,-0.048828125,0.95135498046875
1630937451908,-0.25677490234375,-0.05316162109375,0.95513916015625
1630937451909,-0.25970458984375,-0.05804443359375,0.953125
1630937451957,-0.25531005859375,-0.05902099609375,0.960693359375
1630937451957,-0.255615234375,-0.0616455078125,0.96002197265625
1630937451958,-0.2574462890625,-0.05999755859375,0.955810546875
1630937451986,-0.256591796875,-0.0633544921875,0.958740234375
1630937451986,-0.2569580078125,-0.06170654296875,0.9605712890625
1630937452003,-0.25152587890625,-0.06201171875,0.959716796875
1630937452044,-0.25421142578125,-0.061767578125,0.96112060546875
1630937452044,-0.25616455078125,-0.0623779296875,0.9583740234375
1630937452044,-0.2557373046875,-0.06201171875,0.956298828125
1630937452091,-0.25750732421875,-0.0643310546875,0.95330810546875
1630937452091,-0.25775146484375,-0.06317138671875,0.953857421875
1630937452092,-0.25537109375,-0.065185546875,0.9580078125
1630937452161,-0.262451171875,-0.0621337890625,0.9569091796875
1630937452164,-0.2587890625,-0.060546875,0.9547119140625
1630937452164,-0.2576904296875,-0.06243896484375,0.958740234375
1630937452261,-0.2586669921875,-0.06829833984375,0.9559326171875
1630937452261,-0.26177978515625,-0.0653076171875,0.95098876953125
1630937452262,-0.25994873046875,-0.0609130859375,0.9599609375
1630937452269,-0.25390625,-0.0621337890625,0.952880859375
1630937452272,-0.25592041015625,-0.05889892578125,0.94805908203125
1630937452272,-0.261962890625,-0.06500244140625,0.9493408203125
1630937452367,-0.25689697265625,-0.0640869140625,0.960205078125
1630937452368,-0.2509765625,-0.06378173828125,0.96453857421875
1630937452368,-0.2537841796875,-0.06427001953125,0.9581298828125
1630937452398,-0.25177001953125,-0.06109619140625,0.9610595703125
1630937452399,-0.25128173828125,-0.06280517578125,0.9620361328125
1630937452399,-0.25128173828125,-0.059326171875,0.96356201171875
1630937452447,-0.25164794921875,-0.06695556640625,0.954833984375
1630937452447,-0.2562255859375,-0.0650634765625,0.96124267578125
1630937452491,-0.25250244140625,-0.06561279296875,0.95526123046875
1630937452492,-0.25799560546875,-0.0672607421875,0.95343017578125
1630937452492,-0.25738525390625,-0.06640625,0.95648193359375
1630937452580,-0.25640869140625,-0.0682373046875,0.95367431640625
1630937452582,-0.25469970703125,-0.064453125,0.952392578125
1630937452582,-0.255126953125,-0.065185546875,0.95330810546875
1630937452646,-0.258056640625,-0.06488037109375,0.953125
1630937452646,-0.25823974609375,-0.062255859375,0.9630126953125
1630937452647,-0.25714111328125,-0.06622314453125,0.959716796875
1630937452672,-0.25738525390625,-0.0635986328125,0.9552001953125
1630937452673,-0.2545166015625,-0.0654296875,0.95745849609375
1630937452675,-0.25579833984375,-0.06463623046875,0.96002197265625
1630937452762,-0.25921630859375,-0.06048583984375,0.95513916015625
1630937452762,-0.25439453125,-0.05755615234375,0.95465087890625
1630937452763,-0.2562255859375,-0.0587158203125,0.95648193359375
1630937452813,-0.257080078125,-0.0594482421875,0.9556884765625
1630937452813,-0.25836181640625,-0.0594482421875,0.95501708984375
1630937452813,-0.256591796875,-0.0606689453125,0.9547119140625
1630937452868,-0.2564697265625,-0.062744140625,0.9560546875
1630937452868,-0.24969482421875,-0.064453125,0.95928955078125
1630937452868,-0.2513427734375,-0.06298828125,0.95965576171875
1630937452915,-0.2535400390625,-0.06231689453125,0.961181640625
1630937452916,-0.251708984375,-0.06329345703125,0.96044921875
1630937452916,-0.2528076171875,-0.06268310546875,0.95953369140625
1630937452978,-0.25433349609375,-0.06201171875,0.957275390625
1630937452978,-0.25225830078125,-0.0601806640625,0.95953369140625
1630937452978,-0.25238037109375,-0.0625,0.96087646484375
1630937453037,-0.254638671875,-0.05975341796875,0.95733642578125
1630937453037,-0.25360107421875,-0.06292724609375,0.95660400390625
1630937453037,-0.25311279296875,-0.06182861328125,0.955322265625
1630937453121,-0.2547607421875,-0.06195068359375,0.957763671875
1630937453121,-0.25445556640625,-0.06158447265625,0.95831298828125
1630937453121,-0.25634765625,-0.06060791015625,0.96124267578125
1630937453139,-0.26116943359375,-0.06976318359375,0.956298828125
1630937453139,-0.25958251953125,-0.06982421875,0.95391845703125
1630937453148,-0.2598876953125,-0.064453125,0.955322265625
1630937453222,-0.260986328125,-0.0616455078125,0.95172119140625
1630937453222,-0.26239013671875,-0.0693359375,0.9512939453125
1630937453222,-0.2568359375,-0.06005859375,0.95013427734375
1630937453272,-0.25628662109375,-0.06097412109375,0.95428466796875
1630937453272,-0.2564697265625,-0.05902099609375,0.9573974609375
1630937453273,-0.25689697265625,-0.0577392578125,0.95904541015625
1630937453344,-0.258056640625,-0.054931640625,0.96380615234375
1630937453344,-0.2562255859375,-0.0550537109375,0.9619140625
1630937453346,-0.2568359375,-0.05584716796875,0.9605712890625
1630937453411,-0.2564697265625,-0.05450439453125,0.9608154296875
1630937453411,-0.2606201171875,-0.0596923828125,0.9559326171875
1630937453473,-0.26593017578125,-0.0653076171875,0.9498291015625
1630937453473,-0.26226806640625,-0.061279296875,0.954833984375
1630937453474,-0.259033203125,-0.05718994140625,0.9608154296875
1630937453515,-0.2598876953125,-0.06182861328125,0.9505615234375
1630937453515,-0.2626953125,-0.06396484375,0.9500732421875
1630937453516,-0.2584228515625,-0.0633544921875,0.9534912109375
1630937453562,-0.26287841796875,-0.06201171875,0.95343017578125
1630937453563,-0.25799560546875,-0.056640625,0.95458984375
1630937453563,-0.25665283203125,-0.0616455078125,0.959228515625
1630937453656,-0.2581787109375,-0.05963134765625,0.95758056640625
1630937453656,-0.2568359375,-0.0574951171875,0.9591064453125
1630937453656,-0.2593994140625,-0.05963134765625,0.9544677734375
1630937453677,-0.2591552734375,-0.05499267578125,0.95263671875
1630937453677,-0.2589111328125,-0.05633544921875,0.95904541015625
1630937453677,-0.25909423828125,-0.05657958984375,0.95697021484375
1630937453741,-0.25872802734375,-0.05767822265625,0.9552001953125
1630937453741,-0.257080078125,-0.05584716796875,0.95599365234375
1630937453741,-0.2625732421875,-0.0595703125,0.9564208984375
1630937453824,-0.258544921875,-0.0596923828125,0.95916748046875
1630937453824,-0.26190185546875,-0.05859375,0.95635986328125
1630937453825,-0.25762939453125,-0.0577392578125,0.95574951171875
1630937453881,-0.2613525390625,-0.06011962890625,0.95318603515625
1630937453881,-0.26251220703125,-0.0633544921875,0.9564208984375
1630937453881,-0.260498046875,-0.062255859375,0.95892333984375
1630937453940,-0.261962890625,-0.0657958984375,0.9488525390625
1630937453949,-0.267822265625,-0.0643310546875,0.95135498046875
1630937453951,-0.2620849609375,-0.06317138671875,0.95355224609375
1630937453985,-0.2647705078125,-0.06060791015625,0.95306396484375
1630937453985,-0.260986328125,-0.06243896484375,0.95489501953125
1630937454056,-0.2664794921875,-0.063720703125,0.95416259765625
1630937454056,-0.26995849609375,-0.067138671875,0.95172119140625
1630937454057,-0.2623291015625,-0.0653076171875,0.953857421875
1630937454094,-0.26287841796875,-0.0614013671875,0.9471435546875
1630937454094,-0.2650146484375,-0.05694580078125,0.949462890625
1630937454096,-0.26416015625,-0.05615234375,0.9522705078125
1630937454187,-0.26123046875,-0.061279296875,0.95538330078125
1630937454187,-0.25970458984375,-0.05682373046875,0.95404052734375
1630937454188,-0.26214599609375,-0.06103515625,0.95550537109375
1630937454214,-0.26190185546875,-0.06005859375,0.9573974609375
1630937454215,-0.2613525390625,-0.0596923828125,0.9608154296875
1630937454216,-0.26202392578125,-0.05926513671875,0.9569091796875
1630937454271,-0.2620849609375,-0.06231689453125,0.9520263671875
1630937454271,-0.26373291015625,-0.060302734375,0.95306396484375
1630937454278,-0.2618408203125,-0.0604248046875,0.9591064453125
1630937454324,-0.2633056640625,-0.05950927734375,0.95587158203125
1630937454324,-0.26708984375,-0.06024169921875,0.9556884765625
1630937454324,-0.2657470703125,-0.0643310546875,0.9539794921875
1630937454411,-0.2626953125,-0.06182861328125,0.95050048828125
1630937454411,-0.2630615234375,-0.0631103515625,0.95074462890625
1630937454411,-0.26483154296875,-0.0628662109375,0.9501953125
1630937454440,-0.2606201171875,-0.06219482421875,0.95269775390625
1630937454440,-0.2677001953125,-0.06719970703125,0.958251953125
1630937454440,-0.2620849609375,-0.0655517578125,0.95623779296875
1630937454523,-0.26483154296875,-0.0599365234375,0.9561767578125
1630937454524,-0.2615966796875,-0.06561279296875,0.95404052734375
1630937454524,-0.26300048828125,-0.0631103515625,0.95477294921875
1630937454577,-0.26318359375,-0.06378173828125,0.9554443359375
1630937454577,-0.2642822265625,-0.061767578125,0.95416259765625
1630937454577,-0.261962890625,-0.05926513671875,0.95526123046875
1630937454637,-0.26336669921875,-0.0625,0.95343017578125
1630937454638,-0.26556396484375,-0.0595703125,0.95208740234375
1630937454667,-0.264404296875,-0.05859375,0.95263671875
1630937454703,-0.26617431640625,-0.065185546875,0.95489501953125
1630937454704,-0.26318359375,-0.06268310546875,0.95184326171875
1630937454704,-0.26434326171875,-0.064208984375,0.95269775390625
1630937454772,-0.264892578125,-0.0660400390625,0.953369140625
1630937454772,-0.261962890625,-0.0650634765625,0.95428466796875
1630937454772,-0.26123046875,-0.06610107421875,0.953857421875
1630937454815,-0.26409912109375,-0.064453125,0.95416259765625
1630937454815,-0.26544189453125,-0.0660400390625,0.95458984375
1630937454815,-0.264892578125,-0.06353759765625,0.95379638671875
1630937454877,-0.26385498046875,-0.06353759765625,0.9517822265625
1630937454877,-0.26324462890625,-0.0625,0.9527587890625
1630937454877,-0.2613525390625,-0.0634765625,0.95196533203125
1630937454947,-0.2608642578125,-0.057373046875,0.95751953125
1630937454948,-0.26214599609375,-0.06170654296875,0.9537353515625
1630937454948,-0.26104736328125,-0.0606689453125,0.95355224609375
1630937454976,-0.2628173828125,-0.060546875,0.95452880859375
1630937454976,-0.26263427734375,-0.06884765625,0.9586181640625
1630937454979,-0.26312255859375,-0.0634765625,0.95819091796875
1630937455048,-0.26318359375,-0.0679931640625,0.957275390625
1630937455049,-0.26531982421875,-0.0643310546875,0.95208740234375
1630937455049,-0.26611328125,-0.06219482421875,0.94757080078125
1630937455103,-0.2650146484375,-0.06195068359375,0.95001220703125
1630937455103,-0.2652587890625,-0.06329345703125,0.9539794921875
1630937455103,-0.26654052734375,-0.06317138671875,0.94927978515625
1630937455170,-0.26483154296875,-0.05828857421875,0.957275390625
1630937455171,-0.26226806640625,-0.06353759765625,0.95379638671875
1630937455171,-0.2635498046875,-0.059326171875,0.957275390625
1630937455225,-0.26513671875,-0.06451416015625,0.9576416015625
1630937455225,-0.26519775390625,-0.06591796875,0.9517822265625
1630937455290,-0.26165771484375,-0.06756591796875,0.94842529296875
1630937455290,-0.2655029296875,-0.06494140625,0.95269775390625
1630937455290,-0.26641845703125,-0.06744384765625,0.95166015625
1630937455325,-0.26910400390625,-0.068359375,0.95269775390625
1630937455325,-0.26898193359375,-0.0635986328125,0.9483642578125
1630937455325,-0.2635498046875,-0.064208984375,0.9525146484375
1630937455444,-0.26239013671875,-0.0628662109375,0.95367431640625
1630937455445,-0.2633056640625,-0.064453125,0.95550537109375
1630937455445,-0.26739501953125,-0.06829833984375,0.9556884765625
1630937455475,-0.2677001953125,-0.066162109375,0.9556884765625
1630937455480,-0.26251220703125,-0.06640625,0.9556884765625
1630937455481,-0.26470947265625,-0.06591796875,0.9556884765625
1630937455542,-0.26654052734375,-0.06463623046875,0.95379638671875
1630937455542,-0.26544189453125,-0.05865478515625,0.9520263671875
1630937455550,-0.265380859375,-0.06024169921875,0.94769287109375
1630937455623,-0.2666015625,-0.06298828125,0.95172119140625
1630937455623,-0.26654052734375,-0.0614013671875,0.9505615234375
1630937455623,-0.265380859375,-0.06121826171875,0.94830322265625
1630937455666,-0.26593017578125,-0.0645751953125,0.95098876953125
1630937455666,-0.26275634765625,-0.0648193359375,0.9569091796875
1630937455675,-0.2662353515625,-0.05975341796875,0.94915771484375
1630937455688,-0.264404296875,-0.0679931640625,0.955322265625
1630937455688,-0.2659912109375,-0.06793212890625,0.95263671875
1630937455691,-0.26287841796875,-0.06781005859375,0.95703125
1630937455782,-0.26239013671875,-0.06439208984375,0.95623779296875
1630937455782,-0.2635498046875,-0.06439208984375,0.95220947265625
1630937455782,-0.263671875,-0.06756591796875,0.9552001953125
1630937455810,-0.26324462890625,-0.06268310546875,0.9552001953125
1630937455810,-0.26324462890625,-0.066650390625,0.954345703125
1630937455811,-0.2647705078125,-0.0635986328125,0.95318603515625
1630937455871,-0.26214599609375,-0.0653076171875,0.95159912109375
1630937455872,-0.264404296875,-0.064697265625,0.9542236328125
1630937455873,-0.26568603515625,-0.0672607421875,0.955078125
1630937455962,-0.2669677734375,-0.06292724609375,0.95135498046875
1630937455965,-0.26287841796875,-0.06219482421875,0.951904296875
1630937455965,-0.264892578125,-0.06195068359375,0.95098876953125
1630937456022,-0.2625732421875,-0.06195068359375,0.95684814453125
1630937456022,-0.26312255859375,-0.06317138671875,0.95556640625
1630937456024,-0.262939453125,-0.0626220703125,0.95379638671875
1630937456044,-0.26129150390625,-0.0670166015625,0.9600830078125
1630937456050,-0.263427734375,-0.072998046875,0.9599609375
1630937456051,-0.26300048828125,-0.07647705078125,0.9581298828125
1630937456145,-0.2618408203125,-0.06475830078125,0.95159912109375
1630937456146,-0.2611083984375,-0.07061767578125,0.95220947265625
1630937456149,-0.26019287109375,-0.06585693359375,0.9532470703125
1630937456175,-0.25921630859375,-0.06048583984375,0.95806884765625
1630937456175,-0.25860595703125,-0.06524658203125,0.95587158203125
1630937456176,-0.26275634765625,-0.06494140625,0.9541015625
1630937456225,-0.26556396484375,-0.06182861328125,0.95751953125
1630937456225,-0.25787353515625,-0.0595703125,0.960205078125
1630937456226,-0.26007080078125,-0.061279296875,0.96173095703125
1630937456288,-0.26922607421875,-0.0655517578125,0.95159912109375
1630937456289,-0.26495361328125,-0.06512451171875,0.95184326171875
1630937456289,-0.2608642578125,-0.06494140625,0.95526123046875
1630937456362,-0.26751708984375,-0.06396484375,0.95098876953125
1630937456365,-0.27032470703125,-0.06085205078125,0.94970703125
1630937456368,-0.2738037109375,-0.065673828125,0.94903564453125
1630937456423,-0.27044677734375,-0.062744140625,0.94818115234375
1630937456423,-0.2691650390625,-0.064208984375,0.9527587890625
1630937456423,-0.27008056640625,-0.06378173828125,0.9454345703125
1630937456449,-0.265625,-0.06390380859375,0.9500732421875
1630937456449,-0.26873779296875,-0.06500244140625,0.95489501953125
1630937456451,-0.26605224609375,-0.0643310546875,0.960205078125
1630937456542,-0.2698974609375,-0.06597900390625,0.958984375
1630937456542,-0.26507568359375,-0.0638427734375,0.955322265625
1630937456542,-0.2647705078125,-0.0648193359375,0.95635986328125
1630937456571,-0.26690673828125,-0.06170654296875,0.9534912109375
1630937456573,-0.266357421875,-0.06036376953125,0.95477294921875
1630937456576,-0.2674560546875,-0.06256103515625,0.95489501953125
1630937456628,-0.265869140625,-0.0618896484375,0.951416015625
1630937456629,-0.263916015625,-0.06201171875,0.9481201171875
1630937456631,-0.2642822265625,-0.05694580078125,0.95172119140625
1630937456678,-0.26837158203125,-0.06524658203125,0.94964599609375
1630937456678,-0.2657470703125,-0.06787109375,0.949462890625
1630937456678,-0.2677001953125,-0.0625,0.94696044921875
1630937456759,-0.2618408203125,-0.06341552734375,0.95428466796875
1630937456759,-0.263427734375,-0.063720703125,0.95782470703125
1630937456759,-0.265625,-0.0670166015625,0.95263671875
1630937456807,-0.26556396484375,-0.0638427734375,0.95721435546875
1630937456807,-0.264404296875,-0.064453125,0.9544677734375
1630937456807,-0.266357421875,-0.064453125,0.9537353515625
1630937456868,-0.2646484375,-0.06500244140625,0.954833984375
1630937456870,-0.261962890625,-0.06396484375,0.95709228515625
1630937456871,-0.2666015625,-0.0625,0.95751953125
1630937456919,-0.26544189453125,-0.06298828125,0.9541015625
1630937456919,-0.26690673828125,-0.06402587890625,0.9556884765625
1630937456920,-0.2666015625,-0.061767578125,0.9534912109375
1630937457005,-0.269775390625,-0.0601806640625,0.95361328125
1630937457013,-0.27008056640625,-0.0618896484375,0.9517822265625
1630937457015,-0.2711181640625,-0.05908203125,0.94903564453125
1630937457048,-0.26824951171875,-0.059326171875,0.94805908203125
1630937457048,-0.26788330078125,-0.06243896484375,0.95208740234375
1630937457053,-0.27215576171875,-0.06488037109375,0.949462890625
1630937457090,-0.267578125,-0.05499267578125,0.94805908203125
1630937457100,-0.26898193359375,-0.05859375,0.94775390625
1630937457100,-0.26763916015625,-0.065673828125,0.949951171875
1630937457189,-0.26287841796875,-0.0557861328125,0.95751953125
1630937457189,-0.26568603515625,-0.05535888671875,0.956787109375
1630937457189,-0.2652587890625,-0.0528564453125,0.953125
1630937457228,-0.26397705078125,-0.05487060546875,0.9564208984375
1630937457228,-0.264404296875,-0.0531005859375,0.9560546875
1630937457229,-0.26470947265625,-0.0552978515625,0.955810546875
1630937457294,-0.264892578125,-0.05987548828125,0.95098876953125
1630937457295,-0.265380859375,-0.05877685546875,0.95794677734375
1630937457296,-0.262939453125,-0.0589599609375,0.9534912109375
1630937457340,-0.262939453125,-0.06085205078125,0.9532470703125
1630937457341,-0.26611328125,-0.055908203125,0.95880126953125
1630937457350,-0.26702880859375,-0.06268310546875,0.9580078125
