timestamp,ax,ay,az
1631290337187,-0.48724365234375,0.0751953125,0.83050537109375
1631290337241,-0.476318359375,0.11322021484375,0.89788818359375
1631290337242,-0.48828125,0.10986328125,0.86798095703125
1631290337243,-0.49212646484375,0.09686279296875,0.86395263671875
1631290337257,-0.45343017578125,0.11456298828125,0.89154052734375
1631290337264,-0.464599609375,0.118896484375,0.90960693359375
1631290337266,-0.44964599609375,0.109619140625,0.8995361328125
1631290337340,-0.45391845703125,0.115478515625,0.92620849609375
1631290337341,-0.4599609375,0.10760498046875,0.904296875
1631290337341,-0.4510498046875,0.10906982421875,0.8997802734375
1631290337423,-0.4656982421875,0.1142578125,0.89801025390625
1631290337423,-0.46441650390625,0.106689453125,0.86822509765625
1631290337443,-0.46417236328125,0.11651611328125,0.924560546875
1631290337478,-0.47381591796875,0.10284423828125,0.8480224609375
1631290337478,-0.46588134765625,0.1025390625,0.8603515625
1631290337478,-0.469482421875,0.09857177734375,0.8287353515625
1631290337478,-0.4749755859375,0.10321044921875,0.8289794921875
1631290337492,-0.47418212890625,0.10394287109375,0.83984375
1631290337493,-0.4637451171875,0.10540771484375,0.847900390625
1631290337736,-0.474365234375,0.11553955078125,0.85980224609375
1631290337736,-0.46697998046875,0.10772705078125,0.8486328125
1631290337738,-0.47369384765625,0.095458984375,0.8585205078125
1631290337738,-0.47772216796875,0.0941162109375,0.86090087890625
1631290337738,-0.4725341796875,0.09197998046875,0.84326171875
1631290337739,-0.47491455078125,0.11175537109375,0.8748779296875
1631290337740,-0.4571533203125,0.107421875,0.85357666015625
1631290337757,-0.4718017578125,0.09454345703125,0.85369873046875
1631290337758,-0.4676513671875,0.099365234375,0.82080078125
1631290337800,-0.47552490234375,0.09881591796875,0.83612060546875
1631290337803,-0.4642333984375,0.11761474609375,0.87530517578125
1631290337803,-0.46923828125,0.104248046875,0.8375244140625
1631290337846,-0.44281005859375,0.13323974609375,0.90240478515625
1631290337847,-0.446044921875,0.141357421875,0.91009521484375
1631290337850,-0.43212890625,0.14202880859375,0.913818359375
1631290337892,-0.43536376953125,0.12554931640625,0.94537353515625
1631290337892,-0.4287109375,0.12823486328125,0.9503173828125
1631290337895,-0.4361572265625,0.1375732421875,0.95452880859375
1631290337957,-0.44219970703125,0.12249755859375,0.92816162109375
1631290337957,-0.4530029296875,0.11334228515625,0.88580322265625
1631290337957,-0.4500732421875,0.10870361328125,0.84796142578125
1631290337974,-0.47772216796875,0.0870361328125,0.85675048828125
1631290337974,-0.4705810546875,0.09527587890625,0.86297607421875
1631290337976,-0.474365234375,0.08648681640625,0.84783935546875
1631290338170,-0.4903564453125,0.09014892578125,0.827880859375
1631290338170,-0.48480224609375,0.08978271484375,0.84234619140625
1631290338170,-0.48480224609375,0.093994140625,0.82952880859375
1631290338185,-0.49188232421875,0.08294677734375,0.81048583984375
1631290338185,-0.4931640625,0.081298828125,0.80322265625
1631290338186,-0.489013671875,0.08526611328125,0.8189697265625
1631290338232,-0.4971923828125,0.08197021484375,0.82891845703125
1631290338232,-0.49365234375,0.08392333984375,0.8133544921875
1631290338235,-0.49591064453125,0.08380126953125,0.85528564453125
1631290338325,-0.43634033203125,0.138671875,0.9796142578125
1631290338326,-0.46868896484375,0.08636474609375,0.8272705078125
1631290338326,-0.45281982421875,0.10650634765625,0.86590576171875
1631290338328,-0.439453125,0.1187744140625,0.97418212890625
1631290338328,-0.448486328125,0.0921630859375,0.94512939453125
1631290338330,-0.44342041015625,0.135986328125,0.94873046875
1631290338389,-0.50860595703125,0.0321044921875,0.812255859375
1631290338400,-0.4959716796875,0.0234375,0.83819580078125
1631290338407,-0.4659423828125,0.068359375,0.898193359375
1631290338409,-0.48663330078125,0.02392578125,0.8497314453125
1631290338410,-0.47442626953125,0.04364013671875,0.873046875
1631290338410,-0.49896240234375,0.02783203125,0.82073974609375
1631290338451,-0.52459716796875,0.00323486328125,0.81781005859375
1631290338451,-0.527587890625,-0.00115966796875,0.7972412109375
1631290338451,-0.52532958984375,0.00604248046875,0.779541015625
1631290338492,-0.532470703125,0.04443359375,0.7667236328125
1631290338492,-0.52984619140625,0.02764892578125,0.7725830078125
1631290338495,-0.53704833984375,0.047119140625,0.77459716796875
1631290338685,-0.543701171875,0.04046630859375,0.76312255859375
1631290338685,-0.5418701171875,0.04266357421875,0.7650146484375
1631290338685,-0.53167724609375,0.049560546875,0.7435302734375
1631290338709,-0.5242919921875,0.0379638671875,0.73968505859375
1631290338710,-0.517333984375,0.025634765625,0.74609375
1631290338711,-0.51519775390625,0.03271484375,0.7696533203125
1631290338756,-0.458251953125,0.0711669921875,0.8709716796875
1631290338756,-0.4866943359375,0.0462646484375,0.8424072265625
1631290338756,-0.50604248046875,0.03350830078125,0.81121826171875
1631290338990,-0.321533203125,0.05780029296875,1.08392333984375
1631290338990,-0.3292236328125,0.06793212890625,1.0845947265625
1631290338990,-0.42437744140625,0.08203125,0.89984130859375
1631290338991,-0.34820556640625,0.07427978515625,1.05340576171875
1631290338991,-0.40093994140625,0.09228515625,0.96356201171875
1631290338991,-0.37646484375,0.08538818359375,1.005615234375
1631290339014,-0.3162841796875,0.0518798828125,1.06732177734375
1631290339015,-0.31658935546875,0.0465087890625,1.04718017578125
1631290339016,-0.32415771484375,0.03973388671875,1.01580810546875
1631290339032,-0.328857421875,0.0341796875,0.98114013671875
1631290339032,-0.3310546875,0.02459716796875,0.956298828125
1631290339033,-0.340576171875,0.0157470703125,0.9327392578125
1631290339066,-0.34442138671875,0.0091552734375,0.916015625
1631290339067,-0.35321044921875,0.01226806640625,0.89605712890625
1631290339067,-0.35687255859375,0.0072021484375,0.87396240234375
1631290339217,-0.380859375,0.02191162109375,0.8492431640625
1631290339217,-0.370361328125,0.005615234375,0.8641357421875
1631290339217,-0.3746337890625,0.01580810546875,0.85760498046875
1631290339240,-0.39215087890625,0.02642822265625,0.84033203125
1631290339240,-0.39215087890625,0.023681640625,0.8504638671875
1631290339244,-0.39935302734375,0.03240966796875,0.84222412109375
1631290339262,-0.3978271484375,0.0328369140625,0.85137939453125
1631290339263,-0.39739990234375,0.02996826171875,0.83984375
1631290339264,-0.394287109375,0.02789306640625,0.84149169921875
1631290339271,-0.3948974609375,0.03326416015625,0.862060546875
1631290339273,-0.36822509765625,0.0390625,0.89312744140625
1631290339285,-0.38739013671875,0.03826904296875,0.88763427734375
1631290339301,-0.356201171875,0.05181884765625,0.94659423828125
1631290339301,-0.33074951171875,0.0491943359375,1.05145263671875
1631290339301,-0.33551025390625,0.05181884765625,0.99896240234375
1631290339411,-0.32440185546875,0.05712890625,1.06695556640625
1631290339412,-0.31976318359375,0.06146240234375,1.05621337890625
1631290339412,-0.32501220703125,0.06121826171875,1.029541015625
1631290339460,-0.3355712890625,0.06817626953125,0.9820556640625
1631290339460,-0.34222412109375,0.06231689453125,0.96343994140625
1631290339472,-0.32952880859375,0.06683349609375,1.00469970703125
1631290339473,-0.35784912109375,0.05718994140625,0.94012451171875
1631290339473,-0.36309814453125,0.0582275390625,0.91961669921875
1631290339477,-0.3758544921875,0.05615234375,0.8994140625
1631290339673,-0.39300537109375,0.046875,0.88006591796875
1631290339673,-0.382080078125,0.05609130859375,0.88299560546875
1631290339673,-0.4024658203125,0.04107666015625,0.86444091796875
1631290339731,-0.41558837890625,0.04119873046875,0.84527587890625
1631290339731,-0.40386962890625,0.03851318359375,0.85186767578125
1631290339732,-0.41253662109375,0.04248046875,0.852783203125
1631290339857,-0.41302490234375,0.04608154296875,0.83258056640625
1631290339858,-0.416748046875,0.0408935546875,0.838134765625
1631290339858,-0.41131591796875,0.04241943359375,0.83099365234375
1631290339889,-0.392578125,0.04998779296875,0.8646240234375
1631290339890,-0.41156005859375,0.04681396484375,0.8355712890625
1631290339890,-0.3621826171875,0.05047607421875,0.9542236328125
1631290339890,-0.40008544921875,0.0462646484375,0.84771728515625
1631290339891,-0.370849609375,0.052978515625,0.9312744140625
1631290339892,-0.37982177734375,0.0504150390625,0.89996337890625
1631290339918,-0.35064697265625,0.052001953125,0.97430419921875
1631290339929,-0.3408203125,0.05084228515625,0.99468994140625
1631290339932,-0.33026123046875,0.0498046875,1.00286865234375
1631290339984,-0.32965087890625,0.04931640625,1.00372314453125
1631290339986,-0.33197021484375,0.04193115234375,0.998779296875
1631290339988,-0.33642578125,0.036865234375,0.982421875
1631290340015,-0.33746337890625,0.038330078125,0.96710205078125
1631290340016,-0.34466552734375,0.0343017578125,0.95147705078125
1631290340017,-0.35284423828125,0.03466796875,0.93487548828125
1631290340053,-0.3521728515625,0.0355224609375,0.918212890625
1631290340054,-0.357421875,0.03057861328125,0.90838623046875
1631290340055,-0.3572998046875,0.033447265625,0.90087890625
1631290340071,-0.35675048828125,0.02972412109375,0.8853759765625
1631290340071,-0.35870361328125,0.02923583984375,0.89453125
1631290340072,-0.359375,0.02825927734375,0.88568115234375
1631290340109,-0.3582763671875,0.03125,0.88299560546875
1631290340111,-0.35711669921875,0.02886962890625,0.8887939453125
1631290340111,-0.3577880859375,0.0302734375,0.8828125
1631290340224,-0.34918212890625,0.02618408203125,0.89404296875
1631290340226,-0.3475341796875,0.02825927734375,0.90496826171875
1631290340226,-0.33306884765625,0.02752685546875,0.90814208984375
1631290340290,-0.32269287109375,0.0283203125,0.9598388671875
1631290340291,-0.3297119140625,0.02960205078125,0.93585205078125
1631290340291,-0.31610107421875,0.0286865234375,0.97259521484375
1631290340326,-0.29901123046875,0.03509521484375,0.98162841796875
1631290340326,-0.3023681640625,0.03656005859375,0.977783203125
1631290340327,-0.3067626953125,0.034423828125,0.9744873046875
1631290340359,-0.3028564453125,0.03533935546875,0.98828125
1631290340361,-0.30328369140625,0.03656005859375,0.98431396484375
1631290340361,-0.30303955078125,0.03594970703125,0.97991943359375
1631290340442,-0.3089599609375,0.03082275390625,0.970947265625
1631290340443,-0.3165283203125,0.03375244140625,0.946044921875
1631290340443,-0.31414794921875,0.03326416015625,0.95733642578125
1631290340558,-0.321044921875,0.03515625,0.9354248046875
1631290340560,-0.329345703125,0.033447265625,0.91864013671875
1631290340560,-0.32763671875,0.03533935546875,0.92742919921875
1631290340581,-0.3304443359375,0.03387451171875,0.91558837890625
1631290340592,-0.34124755859375,0.0406494140625,0.90924072265625
1631290340593,-0.33673095703125,0.03765869140625,0.917724609375
1631290340614,-0.3447265625,0.0389404296875,0.90374755859375
1631290340614,-0.345703125,0.047607421875,0.89959716796875
1631290340614,-0.34423828125,0.039794921875,0.9029541015625
1631290340649,-0.3330078125,0.05072021484375,0.911865234375
1631290340650,-0.34783935546875,0.0499267578125,0.905517578125
1631290340650,-0.34222412109375,0.04864501953125,0.9031982421875
1631290340693,-0.32293701171875,0.0513916015625,0.9361572265625
1631290340694,-0.32513427734375,0.047607421875,0.93487548828125
1631290340694,-0.3280029296875,0.04888916015625,0.919677734375
1631290340794,-0.30841064453125,0.04644775390625,0.951171875
1631290340794,-0.30560302734375,0.04425048828125,0.9517822265625
1631290340794,-0.3182373046875,0.04986572265625,0.940185546875
1631290340828,-0.30780029296875,0.03662109375,0.9635009765625
1631290340838,-0.3004150390625,0.025634765625,0.96514892578125
1631290340854,-0.301025390625,0.0328369140625,0.96771240234375
1631290340890,-0.30157470703125,0.01361083984375,0.95477294921875
1631290340891,-0.3021240234375,0.0203857421875,0.9586181640625
1631290340892,-0.30078125,0.01202392578125,0.94793701171875
1631290340991,-0.30841064453125,0.01202392578125,0.9454345703125
1631290340991,-0.30877685546875,0.013427734375,0.93389892578125
1631290340991,-0.30419921875,0.0213623046875,0.9180908203125
1631290341051,-0.29931640625,0.02044677734375,0.91229248046875
1631290341051,-0.29345703125,0.0289306640625,0.8995361328125
1631290341051,-0.30084228515625,0.0244140625,0.9061279296875
1631290341118,-0.27801513671875,0.03790283203125,0.9168701171875
1631290341120,-0.28594970703125,0.03436279296875,0.91900634765625
1631290341121,-0.2642822265625,0.036376953125,0.93096923828125
1631290341182,-0.2620849609375,0.03948974609375,0.94598388671875
1631290341186,-0.255615234375,0.0361328125,0.946533203125
1631290341188,-0.25384521484375,0.046630859375,0.94757080078125
1631290341214,-0.2403564453125,0.05914306640625,0.93707275390625
1631290341215,-0.22930908203125,0.08648681640625,0.95184326171875
1631290341216,-0.21856689453125,0.10205078125,0.953125
1631290341318,-0.175537109375,0.12579345703125,1.03924560546875
1631290341318,-0.19061279296875,0.12017822265625,0.98590087890625
1631290341318,-0.20465087890625,0.111083984375,0.95758056640625
1631290341368,-0.15594482421875,0.14117431640625,1.0556640625
1631290341370,-0.14501953125,0.15576171875,1.06146240234375
1631290341371,-0.1444091796875,0.161376953125,1.04364013671875
1631290341404,-0.14239501953125,0.17218017578125,1.02825927734375
1631290341406,-0.14776611328125,0.20025634765625,1.01397705078125
1631290341408,-0.14312744140625,0.20892333984375,1.0013427734375
1631290341637,-0.1416015625,0.2073974609375,0.978759765625
1631290341638,-0.14605712890625,0.20196533203125,0.96832275390625
1631290341640,-0.14642333984375,0.19775390625,0.9656982421875
1631290341682,-0.14862060546875,0.18023681640625,0.97894287109375
1631290341683,-0.140869140625,0.154541015625,0.98492431640625
1631290341683,-0.1466064453125,0.16656494140625,0.98883056640625
1631290341704,-0.14227294921875,0.1417236328125,0.97772216796875
1631290341705,-0.13909912109375,0.13385009765625,0.967041015625
1631290341705,-0.1370849609375,0.142822265625,0.96539306640625
1631290341785,-0.1412353515625,0.09820556640625,0.9700927734375
1631290341785,-0.14215087890625,0.10723876953125,0.9815673828125
1631290341785,-0.14056396484375,0.12286376953125,0.973388671875
1631290341823,-0.13720703125,0.08734130859375,0.9625244140625
1631290341824,-0.14105224609375,0.09210205078125,0.96624755859375
1631290341840,-0.1361083984375,0.08538818359375,0.97540283203125
1631290341860,-0.14697265625,0.07794189453125,1.01080322265625
1631290341865,-0.13427734375,0.07867431640625,0.99664306640625
1631290341867,-0.13409423828125,0.07611083984375,1.0009765625
1631290342058,-0.14599609375,0.0711669921875,0.97943115234375
1631290342058,-0.14483642578125,0.07391357421875,0.9927978515625
1631290342072,-0.14849853515625,0.0655517578125,0.97650146484375
1631290342111,-0.1500244140625,0.05828857421875,0.98614501953125
1631290342112,-0.16278076171875,0.06005859375,0.9884033203125
1631290342114,-0.1661376953125,0.0548095703125,0.9862060546875
1631290342137,-0.17254638671875,0.05291748046875,0.9677734375
1631290342138,-0.17547607421875,0.05548095703125,0.9671630859375
1631290342139,-0.1785888671875,0.05841064453125,0.97369384765625
1631290342229,-0.185546875,0.078369140625,0.97265625
1631290342229,-0.1871337890625,0.08441162109375,0.96942138671875
1631290342229,-0.18829345703125,0.06768798828125,0.98590087890625
1631290342229,-0.19647216796875,0.06512451171875,0.982177734375
1631290342230,-0.19012451171875,0.08026123046875,0.97015380859375
1631290342230,-0.1903076171875,0.07330322265625,0.98419189453125
1631290342288,-0.1875,0.07354736328125,0.97882080078125
1631290342290,-0.19122314453125,0.074951171875,0.98931884765625
1631290342290,-0.18096923828125,0.0697021484375,1.00103759765625
1631290342323,-0.17816162109375,0.06915283203125,0.99053955078125
1631290342323,-0.1802978515625,0.06787109375,0.9869384765625
1631290342323,-0.18707275390625,0.06951904296875,0.97308349609375
1631290342441,-0.1865234375,0.06591796875,0.96185302734375
1631290342441,-0.18804931640625,0.07135009765625,0.9796142578125
1631290342444,-0.18719482421875,0.0684814453125,0.96142578125
1631290342459,-0.20068359375,0.076904296875,1.0079345703125
1631290342459,-0.20184326171875,0.07354736328125,0.99493408203125
1631290342460,-0.2017822265625,0.073974609375,0.98516845703125
1631290342461,-0.1990966796875,0.04254150390625,0.9549560546875
1631290342462,-0.1982421875,0.0643310546875,0.975341796875
1631290342462,-0.19281005859375,0.07489013671875,1.0003662109375
1631290342462,-0.1981201171875,0.06298828125,0.962890625
1631290342465,-0.20367431640625,0.05169677734375,0.9569091796875
1631290342466,-0.202392578125,0.04736328125,0.9564208984375
1631290342577,-0.1998291015625,0.05706787109375,0.9769287109375
1631290342578,-0.19683837890625,0.04974365234375,0.95672607421875
1631290342580,-0.1953125,0.05682373046875,0.9603271484375
1631290342635,-0.20660400390625,0.0736083984375,0.9764404296875
1631290342635,-0.2080078125,0.069580078125,0.98394775390625
1631290342635,-0.20440673828125,0.068359375,0.9779052734375
1631290342779,-0.202392578125,0.08245849609375,0.9735107421875
1631290342780,-0.20550537109375,0.08843994140625,0.97113037109375
1631290342781,-0.20819091796875,0.08685302734375,0.97418212890625
1631290342788,-0.21282958984375,0.08807373046875,0.97955322265625
1631290342789,-0.21734619140625,0.0838623046875,0.97576904296875
1631290342789,-0.2232666015625,0.0780029296875,0.9697265625
1631290342822,-0.22796630859375,0.07537841796875,0.9664306640625
1631290342823,-0.2305908203125,0.0675048828125,0.96551513671875
1631290342824,-0.23516845703125,0.07012939453125,0.96539306640625
1631290342833,-0.2396240234375,0.064697265625,0.97564697265625
1631290342834,-0.23828125,0.05511474609375,0.9755859375
1631290342835,-0.24169921875,0.0545654296875,0.97039794921875
1631290342980,-0.26812744140625,0.06256103515625,0.9560546875
1631290342980,-0.262939453125,0.06292724609375,0.9677734375
1631290342980,-0.2528076171875,0.05047607421875,0.9764404296875
1631290343002,-0.2591552734375,0.0479736328125,0.93780517578125
1631290343004,-0.258056640625,0.05194091796875,0.938232421875
1631290343007,-0.2579345703125,0.05377197265625,0.9481201171875
1631290343007,-0.25213623046875,0.0616455078125,0.94818115234375
1631290343015,-0.2598876953125,0.05078125,0.9295654296875
1631290343017,-0.2677001953125,0.0616455078125,0.94439697265625
1631290343034,-0.247802734375,0.06744384765625,0.942138671875
1631290343035,-0.2574462890625,0.05255126953125,0.97503662109375
1631290343036,-0.24859619140625,0.06524658203125,0.9488525390625
1631290343036,-0.25067138671875,0.06842041015625,0.94964599609375
1631290343039,-0.24810791015625,0.06500244140625,0.94598388671875
1631290343040,-0.2547607421875,0.0560302734375,0.96063232421875
1631290343071,-0.25030517578125,0.0426025390625,0.9793701171875
1631290343071,-0.2548828125,0.0496826171875,0.9761962890625
1631290343074,-0.26177978515625,0.03692626953125,0.97711181640625
1631290343208,-0.267333984375,0.03765869140625,0.96221923828125
1631290343208,-0.2738037109375,0.04486083984375,0.97003173828125
1631290343208,-0.26507568359375,0.0347900390625,0.9718017578125
1631290343221,-0.29779052734375,0.0452880859375,0.95574951171875
1631290343231,-0.268310546875,0.043212890625,0.9366455078125
1631290343231,-0.27459716796875,0.04534912109375,0.9451904296875
1631290343231,-0.27264404296875,0.043212890625,0.97161865234375
1631290343231,-0.2708740234375,0.0384521484375,0.9461669921875
1631290343232,-0.2908935546875,0.04736328125,0.93206787109375
1631290343359,-0.2821044921875,0.05291748046875,0.9271240234375
1631290343359,-0.26751708984375,0.0556640625,0.9244384765625
1631290343359,-0.2752685546875,0.049560546875,0.9503173828125
1631290343359,-0.30694580078125,0.0450439453125,0.916748046875
1631290343359,-0.28680419921875,0.0498046875,0.934814453125
1631290343376,-0.27294921875,0.05078125,0.9298095703125
1631290343439,-0.28277587890625,0.03729248046875,0.9488525390625
1631290343439,-0.29998779296875,0.0401611328125,0.94866943359375
1631290343440,-0.278076171875,0.04290771484375,0.93695068359375
1631290343456,-0.273193359375,0.03704833984375,0.96905517578125
1631290343457,-0.27130126953125,0.03704833984375,0.95489501953125
1631290343461,-0.271240234375,0.047607421875,0.97021484375
1631290343590,-0.2713623046875,0.057373046875,0.99847412109375
1631290343590,-0.275390625,0.05572509765625,0.991943359375
1631290343595,-0.27386474609375,0.05853271484375,1.0035400390625
1631290343622,-0.27716064453125,0.066650390625,1.0052490234375
1631290343624,-0.274658203125,0.0751953125,0.99090576171875
1631290343628,-0.27685546875,0.08074951171875,0.98162841796875
1631290343665,-0.28167724609375,0.0850830078125,0.96087646484375
1631290343666,-0.284423828125,0.09149169921875,0.9434814453125
1631290343667,-0.2916259765625,0.09283447265625,0.92742919921875
1631290343690,-0.29730224609375,0.09228515625,0.9166259765625
1631290343690,-0.306396484375,0.09552001953125,0.9139404296875
1631290343691,-0.314453125,0.09197998046875,0.91400146484375
1631290343808,-0.320556640625,0.07318115234375,0.91851806640625
1631290343808,-0.321044921875,0.08404541015625,0.91497802734375
1631290343808,-0.32611083984375,0.06781005859375,0.92376708984375
1631290343957,-0.3260498046875,0.07330322265625,0.91693115234375
1631290343957,-0.32745361328125,0.06787109375,0.9239501953125
1631290343957,-0.32769775390625,0.0699462890625,0.92010498046875
1631290343979,-0.326171875,0.05487060546875,0.92822265625
1631290343980,-0.32080078125,0.04522705078125,0.932861328125
1631290343980,-0.3251953125,0.060546875,0.92437744140625
1631290343982,-0.32275390625,0.0660400390625,0.92291259765625
1631290343988,-0.325439453125,0.07257080078125,0.9244384765625
1631290343994,-0.3304443359375,0.0762939453125,0.91888427734375
1631290344056,-0.32257080078125,0.03814697265625,0.9384765625
1631290344058,-0.32220458984375,0.03448486328125,0.945068359375
1631290344060,-0.3162841796875,0.027587890625,0.942138671875
1631290344151,-0.30682373046875,0.02239990234375,0.9388427734375
1631290344151,-0.31597900390625,0.02764892578125,0.94610595703125
1631290344167,-0.31072998046875,0.026123046875,0.94232177734375
1631290344172,-0.3045654296875,0.0255126953125,0.9351806640625
1631290344177,-0.30181884765625,0.0234375,0.93389892578125
1631290344181,-0.29595947265625,0.02117919921875,0.934814453125
1631290344183,-0.29901123046875,0.0284423828125,0.96441650390625
1631290344184,-0.29949951171875,0.02008056640625,0.94171142578125
1631290344184,-0.3031005859375,0.02410888671875,0.95355224609375
1631290344308,-0.29632568359375,0.0455322265625,0.97210693359375
1631290344308,-0.30255126953125,0.03668212890625,0.97393798828125
1631290344308,-0.29388427734375,0.049072265625,0.96502685546875
1631290344340,-0.28515625,0.0599365234375,0.9659423828125
1631290344340,-0.28656005859375,0.0574951171875,0.95867919921875
1631290344341,-0.2879638671875,0.05853271484375,0.96270751953125
1631290344341,-0.28814697265625,0.055908203125,0.9608154296875
1631290344341,-0.29132080078125,0.05340576171875,0.96533203125
1631290344341,-0.28656005859375,0.04937744140625,0.9554443359375
1631290344434,-0.28021240234375,0.05438232421875,0.9417724609375
1631290344434,-0.27752685546875,0.058349609375,0.9403076171875
1631290344435,-0.2933349609375,0.05804443359375,0.972412109375
1631290344525,-0.27239990234375,0.0535888671875,0.9359130859375
1631290344526,-0.27349853515625,0.0338134765625,0.9453125
1631290344558,-0.2752685546875,0.0299072265625,0.9365234375
1631290344560,-0.2725830078125,0.00897216796875,0.94342041015625
1631290344560,-0.28155517578125,0.0201416015625,0.93853759765625
1631290344609,-0.28765869140625,0.007568359375,0.95977783203125
1631290344610,-0.281005859375,0.0166015625,0.96197509765625
1631290344610,-0.28094482421875,0.01806640625,0.9552001953125
1631290344643,-0.2835693359375,0.02020263671875,0.9661865234375
1631290344644,-0.2867431640625,0.014892578125,0.94573974609375
1631290344645,-0.28924560546875,0.00958251953125,0.9556884765625
1631290344682,-0.28045654296875,0.0340576171875,0.95819091796875
1631290344683,-0.26776123046875,0.044677734375,0.93072509765625
1631290344684,-0.259033203125,0.05218505859375,0.9384765625
1631290344862,-0.2587890625,0.05255126953125,0.954833984375
1631290344866,-0.25445556640625,0.05255126953125,0.9478759765625
1631290344867,-0.264404296875,0.04339599609375,0.95721435546875
1631290344896,-0.26910400390625,-0.00018310546875,0.95928955078125
1631290344896,-0.269775390625,0.02508544921875,0.96295166015625
1631290344901,-0.2725830078125,-0.0020751953125,0.9525146484375
1631290344945,-0.2755126953125,-0.0028076171875,0.94970703125
1631290344946,-0.2752685546875,-0.00518798828125,0.94366455078125
1631290344946,-0.271728515625,0.00604248046875,0.93353271484375
1631290345069,-0.273681640625,0.0194091796875,0.940185546875
1631290345069,-0.27459716796875,0.0361328125,0.94580078125
1631290345069,-0.2764892578125,0.048583984375,0.955078125
1631290345107,-0.2481689453125,0.08441162109375,0.9876708984375
1631290345108,-0.2559814453125,0.09625244140625,0.96466064453125
1631290345108,-0.25177001953125,0.0941162109375,0.96868896484375
1631290345110,-0.2459716796875,0.08856201171875,0.98065185546875
1631290345121,-0.2728271484375,0.06622314453125,0.95892333984375
1631290345121,-0.265625,0.08251953125,0.9630126953125
1631290345175,-0.24127197265625,0.05517578125,0.97857666015625
1631290345176,-0.24072265625,0.0665283203125,0.97906494140625
1631290345178,-0.24755859375,0.07427978515625,0.98699951171875
1631290345191,-0.24285888671875,0.04345703125,0.96942138671875
1631290345192,-0.24481201171875,0.04296875,0.9736328125
1631290345193,-0.251220703125,0.03448486328125,0.9849853515625
1631290345258,-0.25018310546875,0.02349853515625,0.9888916015625
1631290345258,-0.24169921875,0.01312255859375,0.963623046875
1631290345258,-0.2471923828125,0.01568603515625,0.9754638671875
1631290345307,-0.2445068359375,0.00958251953125,0.9473876953125
1631290345307,-0.25244140625,0.0059814453125,0.94598388671875
1631290345308,-0.24493408203125,0.01116943359375,0.95440673828125
1631290345416,-0.269287109375,-0.01031494140625,0.96527099609375
1631290345416,-0.2637939453125,-0.006591796875,0.97186279296875
1631290345416,-0.2685546875,-0.00128173828125,0.9622802734375
1631290345423,-0.2559814453125,-0.00335693359375,0.95947265625
1631290345423,-0.26055908203125,-0.0069580078125,0.9677734375
1631290345423,-0.254150390625,0.00054931640625,0.955078125
1631290345540,-0.273681640625,-0.00115966796875,0.96221923828125
1631290345541,-0.2808837890625,0.0001220703125,0.96356201171875
1631290345543,-0.2755126953125,0.0028076171875,0.95147705078125
1631290345551,-0.27557373046875,0.00543212890625,0.94482421875
1631290345552,-0.280517578125,0.0087890625,0.937744140625
1631290345554,-0.2813720703125,0.0020751953125,0.9656982421875
1631290345609,-0.287841796875,0.00140380859375,0.94061279296875
1631290345619,-0.28857421875,-0.0113525390625,0.9500732421875
1631290345619,-0.28887939453125,0.0042724609375,0.94537353515625
1631290345721,-0.29718017578125,0.028564453125,0.9564208984375
1631290345721,-0.29766845703125,0.0234375,0.9564208984375
1631290345722,-0.29443359375,0.01495361328125,0.95098876953125
1631290345773,-0.30108642578125,0.0467529296875,0.95184326171875
1631290345773,-0.318359375,0.06109619140625,0.9547119140625
1631290345775,-0.3111572265625,0.05474853515625,0.9588623046875
1631290345775,-0.314208984375,0.05810546875,0.95941162109375
1631290345776,-0.32708740234375,0.060302734375,0.94830322265625
1631290345802,-0.255615234375,0.04345703125,1.01922607421875
1631290345905,-0.3372802734375,0.02362060546875,0.9029541015625
1631290345917,-0.31793212890625,0.05035400390625,0.941162109375
1631290345932,-0.33673095703125,0.0247802734375,0.90289306640625
1631290345936,-0.33575439453125,0.032958984375,0.92742919921875
1631290345940,-0.33697509765625,0.02056884765625,0.9093017578125
1631290345941,-0.34454345703125,0.0274658203125,0.911865234375
1631290345944,-0.33489990234375,0.03692626953125,0.93035888671875
1631290345946,-0.32806396484375,0.04388427734375,0.93243408203125
1631290345950,-0.34521484375,0.03277587890625,0.93035888671875
1631290346081,-0.344482421875,0.03692626953125,0.9320068359375
1631290346090,-0.34320068359375,0.04278564453125,0.94219970703125
1631290346091,-0.3470458984375,0.0426025390625,0.93426513671875
1631290346112,-0.34429931640625,0.02630615234375,0.9442138671875
1631290346112,-0.34503173828125,0.0150146484375,0.92999267578125
1631290346112,-0.34674072265625,0.01898193359375,0.9439697265625
1631290346136,-0.3533935546875,0.01959228515625,0.9093017578125
1631290346136,-0.34600830078125,0.016357421875,0.921142578125
1631290346137,-0.351318359375,0.0167236328125,0.919677734375
1631290346175,-0.36578369140625,0.031005859375,0.9112548828125
1631290346175,-0.36297607421875,0.02679443359375,0.9039306640625
1631290346306,-0.361328125,0.0399169921875,0.90838623046875
1631290346306,-0.365478515625,0.0316162109375,0.9193115234375
1631290346319,-0.369384765625,0.0367431640625,0.9151611328125
1631290346425,-0.367919921875,0.03961181640625,0.91717529296875
1631290346426,-0.37030029296875,0.0341796875,0.92022705078125
1631290346427,-0.3619384765625,0.0347900390625,0.91229248046875
1631290346427,-0.3658447265625,0.042236328125,0.91973876953125
1631290346428,-0.36724853515625,0.031982421875,0.9110107421875
1631290346432,-0.365966796875,0.0350341796875,0.91534423828125
1631290346468,-0.36346435546875,0.03460693359375,0.908203125
1631290346472,-0.361083984375,0.0291748046875,0.9046630859375
1631290346473,-0.36407470703125,0.02996826171875,0.9105224609375
1631290346536,-0.35198974609375,0.0341796875,0.93634033203125
1631290346536,-0.349853515625,0.0396728515625,0.95208740234375
1631290346536,-0.35076904296875,0.037109375,0.94500732421875
1631290346654,-0.35577392578125,0.0408935546875,0.92486572265625
1631290346654,-0.3580322265625,0.03900146484375,0.9237060546875
1631290346656,-0.35443115234375,0.0386962890625,0.9541015625
1631290346661,-0.35235595703125,0.04046630859375,0.942138671875
1631290346678,-0.35723876953125,0.036865234375,0.91412353515625
1631290346689,-0.3551025390625,0.041015625,0.929931640625
1631290346693,-0.36285400390625,0.040771484375,0.9156494140625
1631290346694,-0.36334228515625,0.03973388671875,0.91912841796875
1631290346694,-0.36236572265625,0.04229736328125,0.91436767578125
1631290346755,-0.357666015625,0.0341796875,0.91876220703125
1631290346755,-0.36126708984375,0.02850341796875,0.91400146484375
1631290346755,-0.35986328125,0.02655029296875,0.917724609375
1631290346806,-0.35992431640625,0.029052734375,0.9141845703125
1631290346806,-0.357177734375,0.03076171875,0.91363525390625
1631290346809,-0.35748291015625,0.03350830078125,0.92047119140625
1631290346893,-0.34527587890625,0.03497314453125,0.934326171875
1631290346895,-0.353759765625,0.04327392578125,0.92498779296875
1631290346895,-0.34429931640625,0.0352783203125,0.92462158203125
1631290346895,-0.35101318359375,0.03924560546875,0.92364501953125
1631290346895,-0.3505859375,0.045166015625,0.9307861328125
1631290346895,-0.3544921875,0.03125,0.92730712890625
1631290346987,-0.3416748046875,0.0350341796875,0.9315185546875
1631290346990,-0.34063720703125,0.0399169921875,0.934326171875
1631290346991,-0.34100341796875,0.04315185546875,0.93499755859375
1631290347018,-0.33782958984375,0.03753662109375,0.93402099609375
1631290347019,-0.339599609375,0.04119873046875,0.93603515625
1631290347027,-0.33660888671875,0.03460693359375,0.92852783203125
1631290347066,-0.33795166015625,0.0382080078125,0.94696044921875
1631290347066,-0.3399658203125,0.041748046875,0.93829345703125
1631290347066,-0.33636474609375,0.04156494140625,0.93438720703125
1631290347172,-0.34124755859375,0.03570556640625,0.92047119140625
1631290347172,-0.33843994140625,0.03375244140625,0.925537109375
1631290347172,-0.334716796875,0.036865234375,0.93426513671875
1631290347175,-0.340576171875,0.0350341796875,0.92413330078125
1631290347180,-0.34027099609375,0.03643798828125,0.9383544921875
1631290347184,-0.341552734375,0.0335693359375,0.91839599609375
1631290347223,-0.3375244140625,0.04229736328125,0.928466796875
1631290347225,-0.3365478515625,0.04266357421875,0.9256591796875
1631290347230,-0.33770751953125,0.04034423828125,0.92559814453125
1631290347291,-0.3416748046875,0.042724609375,0.94415283203125
1631290347291,-0.33856201171875,0.0421142578125,0.943359375
1631290347291,-0.33941650390625,0.04412841796875,0.936767578125
1631290347391,-0.33770751953125,0.042724609375,0.941162109375
1631290347391,-0.337158203125,0.045654296875,0.935302734375
1631290347392,-0.3358154296875,0.04376220703125,0.93695068359375
1631290347422,-0.33941650390625,0.05078125,0.93609619140625
1631290347423,-0.33697509765625,0.0474853515625,0.937255859375
1631290347423,-0.3421630859375,0.05169677734375,0.93426513671875
1631290347473,-0.33978271484375,0.04522705078125,0.93414306640625
1631290347476,-0.34124755859375,0.04827880859375,0.93133544921875
1631290347476,-0.3411865234375,0.04962158203125,0.93341064453125
1631290347542,-0.33935546875,0.0390625,0.9302978515625
1631290347543,-0.34149169921875,0.03924560546875,0.92279052734375
1631290347543,-0.34136962890625,0.03924560546875,0.91998291015625
1631290347607,-0.3385009765625,0.0311279296875,0.9422607421875
1631290347607,-0.3428955078125,0.03546142578125,0.93878173828125
1631290347607,-0.34197998046875,0.02923583984375,0.94183349609375
1631290347723,-0.34405517578125,0.02764892578125,0.92193603515625
1631290347724,-0.3441162109375,0.02203369140625,0.93096923828125
1631290347725,-0.34478759765625,0.0311279296875,0.92962646484375
1631290347727,-0.3460693359375,0.03033447265625,0.92828369140625
1631290347727,-0.343994140625,0.0247802734375,0.927001953125
1631290347728,-0.33953857421875,0.02801513671875,0.93218994140625
1631290347788,-0.340576171875,0.03076171875,0.9229736328125
1631290347788,-0.3458251953125,0.031005859375,0.92718505859375
1631290347788,-0.34539794921875,0.03326416015625,0.924560546875
1631290347867,-0.3421630859375,0.03240966796875,0.92840576171875
1631290347868,-0.34375,0.0347900390625,0.9283447265625
1631290347870,-0.34063720703125,0.03021240234375,0.9271240234375
1631290347898,-0.34088134765625,0.032958984375,0.94000244140625
1631290347898,-0.342529296875,0.03070068359375,0.9383544921875
1631290347898,-0.337646484375,0.03125,0.93768310546875
1631290347929,-0.3363037109375,0.02447509765625,0.931396484375
1631290347929,-0.34033203125,0.02667236328125,0.92901611328125
1631290347930,-0.34136962890625,0.02850341796875,0.93408203125
1631290347990,-0.3359375,0.02392578125,0.93426513671875
1631290347990,-0.337890625,0.02545166015625,0.93408203125
1631290347991,-0.3370361328125,0.0245361328125,0.93719482421875
1631290348073,-0.33941650390625,0.0323486328125,0.93109130859375
1631290348073,-0.33868408203125,0.0281982421875,0.93414306640625
1631290348073,-0.34002685546875,0.02764892578125,0.93157958984375
1631290348191,-0.33856201171875,0.032958984375,0.93353271484375
1631290348207,-0.33984375,0.0419921875,0.931884765625
1631290348208,-0.34222412109375,0.04351806640625,0.92889404296875
1631290348216,-0.339599609375,0.039794921875,0.93048095703125
1631290348217,-0.3389892578125,0.036865234375,0.92864990234375
1631290348217,-0.33563232421875,0.03350830078125,0.93206787109375
1631290348277,-0.34088134765625,0.04345703125,0.92822265625
1631290348278,-0.3411865234375,0.04559326171875,0.92901611328125
1631290348278,-0.3404541015625,0.04327392578125,0.92889404296875
1631290348308,-0.3421630859375,0.04400634765625,0.93096923828125
1631290348308,-0.341064453125,0.0423583984375,0.9302978515625
1631290348308,-0.3409423828125,0.03961181640625,0.92803955078125
1631290348340,-0.345458984375,0.04168701171875,0.930419921875
1631290348341,-0.34149169921875,0.0394287109375,0.93267822265625
1631290348344,-0.33868408203125,0.04248046875,0.92779541015625
1631290348422,-0.338623046875,0.03594970703125,0.930908203125
1631290348424,-0.34271240234375,0.0374755859375,0.9365234375
1631290348525,-0.34027099609375,0.0357666015625,0.940185546875
1631290348540,-0.34100341796875,0.02935791015625,0.93670654296875
1631290348540,-0.3397216796875,0.03411865234375,0.92852783203125
1631290348557,-0.34075927734375,0.039794921875,0.92822265625
1631290348558,-0.343994140625,0.03826904296875,0.93231201171875
1631290348560,-0.3447265625,0.03729248046875,0.92840576171875
1631290348609,-0.341552734375,0.041748046875,0.93096923828125
1631290348617,-0.3409423828125,0.0408935546875,0.93182373046875
1631290348622,-0.3408203125,0.035400390625,0.93231201171875
1631290348692,-0.342041015625,0.03936767578125,0.9293212890625
1631290348692,-0.343505859375,0.03662109375,0.92938232421875
1631290348692,-0.3463134765625,0.03631591796875,0.93212890625
1631290348817,-0.34912109375,0.034912109375,0.92364501953125
1631290348817,-0.34454345703125,0.03887939453125,0.93048095703125
1631290348817,-0.3458251953125,0.03436279296875,0.92889404296875
1631290348922,-0.34332275390625,0.03936767578125,0.92791748046875
1631290348923,-0.3480224609375,0.04010009765625,0.929931640625
1631290348944,-0.34674072265625,0.03680419921875,0.93194580078125
1631290348945,-0.3448486328125,0.035888671875,0.926025390625
1631290348956,-0.345458984375,0.03509521484375,0.92620849609375
1631290348963,-0.34173583984375,0.03448486328125,0.92755126953125
1631290348990,-0.34716796875,0.04034423828125,0.92889404296875
1631290348990,-0.3455810546875,0.03973388671875,0.93206787109375
1631290348990,-0.34344482421875,0.0396728515625,0.932373046875
1631290349099,-0.34771728515625,0.03759765625,0.92559814453125
1631290349099,-0.352783203125,0.03765869140625,0.92950439453125
1631290349100,-0.3475341796875,0.04046630859375,0.928955078125
1631290349100,-0.35028076171875,0.04144287109375,0.92572021484375
1631290349106,-0.35107421875,0.0418701171875,0.92987060546875
1631290349110,-0.35107421875,0.04229736328125,0.92486572265625
1631290349116,-0.3548583984375,0.04376220703125,0.9267578125
1631290349118,-0.35009765625,0.04150390625,0.92889404296875
1631290349118,-0.35455322265625,0.0423583984375,0.92694091796875
1631290349146,-0.35345458984375,0.04296875,0.92205810546875
1631290349146,-0.355224609375,0.04205322265625,0.92547607421875
1631290349291,-0.35809326171875,0.0372314453125,0.9267578125
1631290349291,-0.35223388671875,0.041015625,0.9202880859375
1631290349291,-0.3543701171875,0.04052734375,0.92474365234375
1631290349291,-0.3533935546875,0.04095458984375,0.92431640625
1631290349291,-0.35150146484375,0.0419921875,0.923095703125
1631290349291,-0.3551025390625,0.03912353515625,0.92620849609375
1631290349384,-0.353759765625,0.044921875,0.92840576171875
1631290349384,-0.35125732421875,0.04522705078125,0.9266357421875
1631290349384,-0.3505859375,0.04254150390625,0.9315185546875
1631290349425,-0.35321044921875,0.05224609375,0.93231201171875
1631290349426,-0.35491943359375,0.0484619140625,0.92578125
1631290349427,-0.35052490234375,0.04888916015625,0.9249267578125
1631290349428,-0.353759765625,0.04730224609375,0.92376708984375
1631290349428,-0.3526611328125,0.05157470703125,0.9254150390625
1631290349428,-0.35552978515625,0.04888916015625,0.92919921875
1631290349540,-0.3609619140625,0.04638671875,0.9229736328125
1631290349540,-0.3565673828125,0.0501708984375,0.9290771484375
1631290349540,-0.3575439453125,0.05291748046875,0.92401123046875
1631290349652,-0.364013671875,0.050537109375,0.917236328125
1631290349654,-0.3616943359375,0.04962158203125,0.9205322265625
1631290349656,-0.36065673828125,0.04644775390625,0.92266845703125
1631290349658,-0.36383056640625,0.04705810546875,0.9190673828125
1631290349661,-0.3638916015625,0.04888916015625,0.91986083984375
1631290349670,-0.36309814453125,0.05072021484375,0.91925048828125
1631290349686,-0.3626708984375,0.0528564453125,0.92034912109375
1631290349687,-0.365478515625,0.050048828125,0.92071533203125
1631290349688,-0.3629150390625,0.048828125,0.9207763671875
1631290349810,-0.3670654296875,0.05157470703125,0.9217529296875
1631290349815,-0.3671875,0.0538330078125,0.9200439453125
1631290349823,-0.3646240234375,0.0540771484375,0.91729736328125
1631290349840,-0.36700439453125,0.0587158203125,0.9171142578125
1631290349842,-0.36480712890625,0.0601806640625,0.9163818359375
1631290349844,-0.36407470703125,0.0577392578125,0.91510009765625
1631290349880,-0.36688232421875,0.0562744140625,0.9215087890625
1631290349880,-0.3656005859375,0.059814453125,0.9185791015625
1631290349881,-0.36236572265625,0.0584716796875,0.921630859375
1631290350030,-0.36688232421875,0.05792236328125,0.92633056640625
1631290350030,-0.36566162109375,0.05706787109375,0.92413330078125
1631290350030,-0.36328125,0.0550537109375,0.92425537109375
1631290350096,-0.36376953125,0.05523681640625,0.922607421875
1631290350097,-0.3623046875,0.05731201171875,0.92010498046875
1631290350097,-0.3671875,0.05438232421875,0.9251708984375
1631290350108,-0.36834716796875,0.046142578125,0.926513671875
1631290350112,-0.36883544921875,0.04803466796875,0.91961669921875
1631290350113,-0.36669921875,0.045166015625,0.9207763671875
1631290350142,-0.3668212890625,0.05401611328125,0.91497802734375
1631290350143,-0.364013671875,0.05291748046875,0.917724609375
1631290350144,-0.3636474609375,0.050048828125,0.91748046875
1631290350158,-0.3658447265625,0.050537109375,0.92034912109375
1631290350159,-0.36444091796875,0.05206298828125,0.91900634765625
1631290350161,-0.36553955078125,0.05364990234375,0.91802978515625
1631290350205,-0.36895751953125,0.05413818359375,0.91802978515625
1631290350205,-0.365478515625,0.05218505859375,0.9183349609375
1631290350206,-0.3695068359375,0.05181884765625,0.92120361328125
1631290350344,-0.37103271484375,0.050048828125,0.91815185546875
1631290350345,-0.3660888671875,0.0465087890625,0.91619873046875
1631290350362,-0.3704833984375,0.04541015625,0.9161376953125
1631290350372,-0.369873046875,0.0479736328125,0.9189453125
1631290350374,-0.36834716796875,0.04608154296875,0.92041015625
1631290350374,-0.36639404296875,0.04608154296875,0.91815185546875
1631290350405,-0.37152099609375,0.0457763671875,0.91998291015625
1631290350405,-0.36767578125,0.04718017578125,0.91845703125
1631290350406,-0.3670654296875,0.04620361328125,0.91949462890625
1631290350585,-0.3701171875,0.04937744140625,0.921142578125
1631290350586,-0.36651611328125,0.046875,0.92633056640625
1631290350586,-0.36651611328125,0.0509033203125,0.92254638671875
1631290350608,-0.368408203125,0.048828125,0.919921875
1631290350610,-0.3701171875,0.05010986328125,0.91558837890625
1631290350614,-0.36724853515625,0.05279541015625,0.914794921875
1631290350626,-0.36932373046875,0.05096435546875,0.9202880859375
1631290350626,-0.36859130859375,0.05108642578125,0.9168701171875
1631290350626,-0.3712158203125,0.0511474609375,0.91259765625
1631290350674,-0.3681640625,0.05218505859375,0.91656494140625
1631290350675,-0.36767578125,0.05517578125,0.91387939453125
1631290350676,-0.36749267578125,0.055908203125,0.91497802734375
1631290350812,-0.362060546875,0.05108642578125,0.920166015625
1631290350813,-0.36444091796875,0.05242919921875,0.9261474609375
1631290350813,-0.3641357421875,0.05377197265625,0.9237060546875
1631290350821,-0.36590576171875,0.0498046875,0.925537109375
1631290350823,-0.36676025390625,0.05181884765625,0.92608642578125
1631290350826,-0.36285400390625,0.0487060546875,0.92169189453125
1631290350828,-0.36572265625,0.05120849609375,0.92120361328125
1631290350830,-0.3675537109375,0.0540771484375,0.91497802734375
1631290350842,-0.36822509765625,0.0535888671875,0.91802978515625
1631290350857,-0.36248779296875,0.0447998046875,0.92132568359375
1631290350858,-0.36322021484375,0.0479736328125,0.92059326171875
1631290350861,-0.36297607421875,0.05499267578125,0.9256591796875
1631290350897,-0.36126708984375,0.055419921875,0.9229736328125
1631290350898,-0.359375,0.05419921875,0.9232177734375
1631290350899,-0.3590087890625,0.05584716796875,0.9224853515625
1631290351006,-0.359619140625,0.0567626953125,0.92138671875
1631290351007,-0.3636474609375,0.056884765625,0.92059326171875
1631290351021,-0.35870361328125,0.054931640625,0.92181396484375
1631290351124,-0.365478515625,0.04791259765625,0.919677734375
1631290351124,-0.3604736328125,0.05072021484375,0.92376708984375
1631290351125,-0.365234375,0.051513671875,0.91827392578125
1631290351125,-0.35906982421875,0.054931640625,0.91961669921875
1631290351127,-0.362060546875,0.0506591796875,0.9212646484375
1631290351127,-0.3646240234375,0.05511474609375,0.921142578125
1631290351245,-0.35870361328125,0.0478515625,0.9251708984375
1631290351245,-0.360107421875,0.05316162109375,0.92462158203125
1631290351409,-0.3592529296875,0.05731201171875,0.93157958984375
1631290351434,-0.35888671875,0.0509033203125,0.92718505859375
1631290351434,-0.358642578125,0.05645751953125,0.92431640625
1631290351492,-0.35736083984375,0.05462646484375,0.92425537109375
1631290351492,-0.364501953125,0.0550537109375,0.9227294921875
1631290351492,-0.358642578125,0.0538330078125,0.9268798828125
1631290351655,-0.362060546875,0.0538330078125,0.92010498046875
1631290351655,-0.36334228515625,0.05438232421875,0.92193603515625
1631290351656,-0.362548828125,0.054931640625,0.92230224609375
1631290351687,-0.363525390625,0.0543212890625,0.9173583984375
1631290351687,-0.36285400390625,0.04693603515625,0.9227294921875
1631290351688,-0.363037109375,0.055419921875,0.921142578125
1631290351689,-0.3629150390625,0.04791259765625,0.916015625
1631290351690,-0.36419677734375,0.0513916015625,0.91778564453125
1631290351690,-0.36773681640625,0.05242919921875,0.9171142578125
1631290351690,-0.36669921875,0.05096435546875,0.91650390625
1631290351706,-0.3646240234375,0.053466796875,0.91650390625
1631290351715,-0.3587646484375,0.05413818359375,0.91845703125
1631290351765,-0.366943359375,0.0458984375,0.92510986328125
1631290351765,-0.364501953125,0.04949951171875,0.92431640625
1631290351765,-0.36737060546875,0.04864501953125,0.9229736328125
1631290351797,-0.3629150390625,0.045654296875,0.9188232421875
1631290351797,-0.3604736328125,0.0426025390625,0.92132568359375
1631290351798,-0.36480712890625,0.0447998046875,0.92303466796875
1631290351813,-0.36724853515625,0.0482177734375,0.9210205078125
1631290351814,-0.36376953125,0.04833984375,0.9176025390625
1631290351816,-0.36419677734375,0.05206298828125,0.9183349609375
1631290351876,-0.3660888671875,0.05450439453125,0.92242431640625
1631290351877,-0.3653564453125,0.0526123046875,0.92364501953125
1631290351880,-0.36358642578125,0.0489501953125,0.92474365234375
1631290351880,-0.3641357421875,0.0528564453125,0.92333984375
1631290351891,-0.3671875,0.050048828125,0.92034912109375
1631290351891,-0.36480712890625,0.0487060546875,0.91680908203125
1631290351993,-0.36724853515625,0.0506591796875,0.91815185546875
1631290351993,-0.365478515625,0.05072021484375,0.9212646484375
1631290351993,-0.36407470703125,0.048583984375,0.92169189453125
1631290352023,-0.35980224609375,0.0443115234375,0.919677734375
1631290352025,-0.3638916015625,0.0455322265625,0.921630859375
1631290352025,-0.36669921875,0.04315185546875,0.923583984375
1631290352025,-0.364013671875,0.04290771484375,0.9227294921875
1631290352025,-0.3629150390625,0.048583984375,0.9217529296875
1631290352025,-0.36578369140625,0.04437255859375,0.92333984375
1631290352189,-0.36309814453125,0.046875,0.92144775390625
1631290352190,-0.3687744140625,0.048095703125,0.9212646484375
1631290352190,-0.367431640625,0.0460205078125,0.9237060546875
1631290352206,-0.37152099609375,0.047119140625,0.91729736328125
1631290352206,-0.369140625,0.048095703125,0.9178466796875
1631290352207,-0.3675537109375,0.046875,0.9154052734375
1631290352207,-0.3701171875,0.04827880859375,0.92071533203125
1631290352212,-0.36883544921875,0.046142578125,0.9183349609375
1631290352212,-0.36834716796875,0.05029296875,0.91436767578125
1631290352251,-0.37261962890625,0.04638671875,0.91741943359375
1631290352267,-0.36920166015625,0.04803466796875,0.91790771484375
1631290352267,-0.3699951171875,0.044921875,0.9178466796875
1631290352282,-0.36883544921875,0.04364013671875,0.915771484375
1631290352282,-0.37286376953125,0.047119140625,0.91748046875
1631290352284,-0.37255859375,0.041748046875,0.9193115234375
1631290352315,-0.3680419921875,0.04132080078125,0.92236328125
1631290352315,-0.37139892578125,0.03985595703125,0.92022705078125
1631290352315,-0.3707275390625,0.0408935546875,0.92425537109375
1631290352424,-0.36773681640625,0.03936767578125,0.9210205078125
1631290352424,-0.37078857421875,0.03924560546875,0.921630859375
1631290352424,-0.37908935546875,0.0355224609375,0.92108154296875
1631290352526,-0.3759765625,0.0421142578125,0.9140625
1631290352526,-0.37213134765625,0.041015625,0.9119873046875
1631290352526,-0.3734130859375,0.03570556640625,0.91778564453125
1631290352565,-0.3701171875,0.0433349609375,0.91748046875
1631290352565,-0.3709716796875,0.0439453125,0.91778564453125
1631290352565,-0.3731689453125,0.03961181640625,0.9156494140625
1631290352594,-0.3687744140625,0.046630859375,0.91748046875
1631290352594,-0.3685302734375,0.0484619140625,0.920166015625
1631290352594,-0.368896484375,0.04833984375,0.9197998046875
1631290352633,-0.3701171875,0.0435791015625,0.91644287109375
1631290352634,-0.372802734375,0.04180908203125,0.91644287109375
1631290352636,-0.371826171875,0.04400634765625,0.91644287109375
1631290352724,-0.372314453125,0.0445556640625,0.915771484375
1631290352724,-0.37200927734375,0.03936767578125,0.9168701171875
1631290352725,-0.3692626953125,0.038818359375,0.9150390625
1631290352825,-0.3720703125,0.04302978515625,0.91461181640625
1631290352825,-0.3685302734375,0.0406494140625,0.91900634765625
1631290352825,-0.37115478515625,0.04229736328125,0.91741943359375
1631290352873,-0.37451171875,0.04461669921875,0.92236328125
1631290352875,-0.3695068359375,0.04083251953125,0.9197998046875
1631290352876,-0.3746337890625,0.04766845703125,0.91680908203125
1631290352877,-0.37115478515625,0.0477294921875,0.92376708984375
1631290352880,-0.36907958984375,0.04571533203125,0.9234619140625
1631290352880,-0.37176513671875,0.04071044921875,0.92401123046875
1631290352904,-0.37237548828125,0.04815673828125,0.91455078125
1631290352904,-0.37091064453125,0.04510498046875,0.9156494140625
1631290352905,-0.3736572265625,0.05059814453125,0.9144287109375
1631290353006,-0.3717041015625,0.05352783203125,0.91619873046875
1631290353006,-0.37640380859375,0.0518798828125,0.91436767578125
1631290353007,-0.37261962890625,0.04931640625,0.91357421875
1631290353022,-0.3743896484375,0.048095703125,0.91668701171875
1631290353022,-0.37432861328125,0.05126953125,0.91473388671875
1631290353022,-0.3681640625,0.0484619140625,0.916748046875
1631290353084,-0.3739013671875,0.04412841796875,0.916015625
1631290353084,-0.3726806640625,0.048095703125,0.9180908203125
1631290353084,-0.37298583984375,0.04522705078125,0.91937255859375
1631290353123,-0.37017822265625,0.04241943359375,0.91778564453125
1631290353124,-0.3721923828125,0.042236328125,0.9168701171875
1631290353124,-0.3695068359375,0.04498291015625,0.916259765625
1631290353432,-0.37628173828125,0.037353515625,0.922119140625
1631290353432,-0.3780517578125,0.0374755859375,0.92047119140625
1631290353433,-0.37188720703125,0.040283203125,0.91656494140625
1631290353447,-0.37200927734375,0.04302978515625,0.91424560546875
1631290353448,-0.367431640625,0.04498291015625,0.9176025390625
1631290353449,-0.3719482421875,0.04345703125,0.92327880859375
1631290353469,-0.3668212890625,0.04486083984375,0.922607421875
1631290353472,-0.36688232421875,0.047119140625,0.92181396484375
1631290353472,-0.36407470703125,0.04534912109375,0.92437744140625
1631290353485,-0.36651611328125,0.04461669921875,0.921142578125
1631290353486,-0.370849609375,0.044677734375,0.92376708984375
1631290353487,-0.3704833984375,0.0413818359375,0.91851806640625
1631290353515,-0.368896484375,0.0450439453125,0.9217529296875
1631290353516,-0.37176513671875,0.0394287109375,0.92138671875
1631290353517,-0.3692626953125,0.037109375,0.918212890625
1631290353539,-0.370849609375,0.041748046875,0.9171142578125
1631290353540,-0.37115478515625,0.040283203125,0.91937255859375
1631290353541,-0.37127685546875,0.0400390625,0.91387939453125
1631290353554,-0.3717041015625,0.04425048828125,0.91619873046875
1631290353564,-0.37158203125,0.04345703125,0.91729736328125
1631290353564,-0.368896484375,0.04248046875,0.91827392578125
1631290353642,-0.3731689453125,0.048095703125,0.91693115234375
1631290353642,-0.37213134765625,0.044677734375,0.91741943359375
1631290353642,-0.37310791015625,0.04461669921875,0.91900634765625
1631290353706,-0.37677001953125,0.05047607421875,0.9146728515625
1631290353708,-0.3729248046875,0.05145263671875,0.91656494140625
1631290353710,-0.37579345703125,0.05096435546875,0.9156494140625
1631290353739,-0.3712158203125,0.0548095703125,0.913818359375
1631290353739,-0.37408447265625,0.0506591796875,0.9136962890625
1631290353739,-0.37701416015625,0.0511474609375,0.91522216796875
1631290353821,-0.37677001953125,0.05059814453125,0.9185791015625
1631290353821,-0.3741455078125,0.05419921875,0.916748046875
1631290353868,-0.37451171875,0.05572509765625,0.9176025390625
1631290353869,-0.373779296875,0.057861328125,0.9195556640625
1631290353871,-0.37335205078125,0.0545654296875,0.91326904296875
1631290353971,-0.37420654296875,0.05450439453125,0.91619873046875
1631290353972,-0.37542724609375,0.05450439453125,0.91888427734375
1631290353975,-0.37152099609375,0.0543212890625,0.9158935546875
1631290353976,-0.37286376953125,0.05047607421875,0.92193603515625
1631290353977,-0.3734130859375,0.05706787109375,0.91973876953125
1631290353982,-0.37176513671875,0.0526123046875,0.9171142578125
1631290354056,-0.37274169921875,0.054931640625,0.9129638671875
1631290354058,-0.3734130859375,0.0465087890625,0.9163818359375
1631290354059,-0.36883544921875,0.05810546875,0.91357421875
1631290354126,-0.36773681640625,0.0616455078125,0.918701171875
1631290354127,-0.36737060546875,0.0567626953125,0.9139404296875
1631290354128,-0.36785888671875,0.05645751953125,0.91943359375
1631290354190,-0.371826171875,0.05487060546875,0.91937255859375
1631290354191,-0.37078857421875,0.0545654296875,0.91845703125
1631290354191,-0.36444091796875,0.05731201171875,0.9205322265625
1631290354205,-0.3680419921875,0.05340576171875,0.924072265625
1631290354205,-0.367431640625,0.05303955078125,0.9176025390625
1631290354205,-0.36895751953125,0.052490234375,0.9200439453125
1631290354281,-0.3701171875,0.05096435546875,0.916259765625
1631290354281,-0.36553955078125,0.0528564453125,0.9185791015625
1631290354281,-0.36773681640625,0.050048828125,0.92120361328125
1631290354348,-0.3623046875,0.05389404296875,0.9195556640625
1631290354348,-0.36602783203125,0.05413818359375,0.92559814453125
1631290354371,-0.36151123046875,0.058349609375,0.9261474609375
1631290354407,-0.36444091796875,0.0577392578125,0.92486572265625
1631290354409,-0.364013671875,0.06024169921875,0.9227294921875
1631290354409,-0.36187744140625,0.05792236328125,0.92364501953125
1631290354440,-0.3642578125,0.0615234375,0.924072265625
1631290354440,-0.3642578125,0.06097412109375,0.9215087890625
1631290354461,-0.36376953125,0.060546875,0.923095703125
1631290354504,-0.360107421875,0.06317138671875,0.9163818359375
1631290354504,-0.36285400390625,0.0609130859375,0.9156494140625
1631290354504,-0.365478515625,0.06396484375,0.916015625
1631290354597,-0.3597412109375,0.06451416015625,0.91778564453125
1631290354597,-0.357421875,0.06719970703125,0.92095947265625
1631290354597,-0.3580322265625,0.0645751953125,0.92083740234375
1631290354656,-0.35443115234375,0.0665283203125,0.9307861328125
1631290354656,-0.3570556640625,0.06976318359375,0.92352294921875
1631290354656,-0.3544921875,0.0675048828125,0.92840576171875
1631290354657,-0.35443115234375,0.068603515625,0.929443359375
1631290354659,-0.35693359375,0.06427001953125,0.9337158203125
1631290354682,-0.35308837890625,0.0693359375,0.925048828125
1631290354761,-0.356689453125,0.0679931640625,0.9310302734375
1631290354821,-0.35821533203125,0.06219482421875,0.92694091796875
1631290354821,-0.36053466796875,0.059326171875,0.92413330078125
1631290354821,-0.36407470703125,0.0546875,0.92059326171875
1631290354878,-0.36102294921875,0.05767822265625,0.91400146484375
1631290354879,-0.36541748046875,0.0560302734375,0.9193115234375
1631290354879,-0.36724853515625,0.05645751953125,0.91522216796875
1631290354975,-0.365478515625,0.054443359375,0.92242431640625
1631290354975,-0.36505126953125,0.05474853515625,0.922119140625
1631290354975,-0.36669921875,0.05548095703125,0.9224853515625
1631290355021,-0.36669921875,0.04638671875,0.922607421875
1631290355023,-0.3665771484375,0.0526123046875,0.9239501953125
1631290355024,-0.36956787109375,0.05035400390625,0.92327880859375
1631290355101,-0.3687744140625,0.0452880859375,0.92108154296875
1631290355101,-0.37066650390625,0.046142578125,0.919189453125
1631290355103,-0.37005615234375,0.046142578125,0.92169189453125
1631290355191,-0.3720703125,0.04339599609375,0.916259765625
1631290355192,-0.37359619140625,0.04168701171875,0.92181396484375
1631290355192,-0.3753662109375,0.04241943359375,0.9208984375
1631290355243,-0.380126953125,0.04498291015625,0.91326904296875
1631290355244,-0.3760986328125,0.0433349609375,0.914794921875
1631290355244,-0.3779296875,0.04510498046875,0.9124755859375
1631290355244,-0.38043212890625,0.04534912109375,0.90887451171875
1631290355258,-0.38421630859375,0.04791259765625,0.91253662109375
1631290355260,-0.37890625,0.04559326171875,0.91424560546875
1631290355307,-0.3831787109375,0.04931640625,0.9090576171875
1631290355308,-0.38433837890625,0.042236328125,0.9088134765625
1631290355308,-0.3817138671875,0.04412841796875,0.90924072265625
1631290355353,-0.384521484375,0.041748046875,0.9039306640625
1631290355353,-0.38726806640625,0.044189453125,0.90478515625
1631290355357,-0.38739013671875,0.04827880859375,0.906005859375
1631290355372,-0.3843994140625,0.04730224609375,0.91290283203125
1631290355372,-0.384765625,0.047119140625,0.90704345703125
1631290355372,-0.38250732421875,0.0440673828125,0.91668701171875
1631290355519,-0.383544921875,0.04449462890625,0.91754150390625
1631290355519,-0.3785400390625,0.04547119140625,0.9140625
1631290355519,-0.38104248046875,0.04925537109375,0.91650390625
1631290355559,-0.378173828125,0.04193115234375,0.918212890625
1631290355563,-0.381103515625,0.0423583984375,0.91534423828125
1631290355599,-0.38067626953125,0.03955078125,0.917236328125
1631290355599,-0.3822021484375,0.03985595703125,0.91278076171875
1631290355600,-0.3818359375,0.04241943359375,0.919189453125
1631290355637,-0.3822021484375,0.036376953125,0.9129638671875
1631290355637,-0.38470458984375,0.03485107421875,0.9139404296875
1631290355638,-0.3856201171875,0.043212890625,0.91973876953125
1631290355681,-0.380859375,0.03924560546875,0.91058349609375
1631290355681,-0.3829345703125,0.0439453125,0.90869140625
1631290355682,-0.379150390625,0.03802490234375,0.90850830078125
1631290355793,-0.38079833984375,0.042236328125,0.91033935546875
1631290355797,-0.3779296875,0.04510498046875,0.91339111328125
1631290355800,-0.37713623046875,0.04486083984375,0.9090576171875
1631290355867,-0.37786865234375,0.05023193359375,0.9154052734375
1631290355879,-0.37786865234375,0.046142578125,0.91552734375
1631290355879,-0.37847900390625,0.0469970703125,0.91375732421875
1631290355900,-0.37774658203125,0.0435791015625,0.91839599609375
1631290355900,-0.3758544921875,0.0450439453125,0.9139404296875
1631290355903,-0.3765869140625,0.042236328125,0.91619873046875
1631290355937,-0.37286376953125,0.0408935546875,0.917236328125
1631290355937,-0.376220703125,0.0386962890625,0.91607666015625
1631290355938,-0.37493896484375,0.04364013671875,0.91796875
1631290355947,-0.376220703125,0.0438232421875,0.91973876953125
1631290355948,-0.37738037109375,0.043701171875,0.91802978515625
1631290355948,-0.375244140625,0.04150390625,0.92108154296875
1631290356047,-0.37298583984375,0.04644775390625,0.921630859375
1631290356048,-0.37445068359375,0.04571533203125,0.92108154296875
1631290356048,-0.372314453125,0.0430908203125,0.9222412109375
1631290356096,-0.375,0.04669189453125,0.9163818359375
1631290356102,-0.3746337890625,0.04840087890625,0.91729736328125
1631290356111,-0.37445068359375,0.04949951171875,0.91680908203125
1631290356170,-0.37860107421875,0.050537109375,0.9132080078125
1631290356176,-0.3724365234375,0.04913330078125,0.91363525390625
1631290356176,-0.3741455078125,0.04669189453125,0.9132080078125
1631290356218,-0.37530517578125,0.04833984375,0.91204833984375
1631290356218,-0.37628173828125,0.051513671875,0.91302490234375
1631290356218,-0.37677001953125,0.05084228515625,0.91156005859375
1631290356303,-0.37530517578125,0.04742431640625,0.91241455078125
1631290356311,-0.3734130859375,0.0472412109375,0.91851806640625
1631290356312,-0.3720703125,0.0460205078125,0.91387939453125
1631290356312,-0.37615966796875,0.0484619140625,0.9156494140625
1631290356327,-0.37158203125,0.046142578125,0.91790771484375
1631290356331,-0.36907958984375,0.04547119140625,0.917724609375
1631290356419,-0.371826171875,0.04656982421875,0.921630859375
1631290356426,-0.37359619140625,0.04583740234375,0.92462158203125
1631290356427,-0.37371826171875,0.04364013671875,0.91778564453125
1631290356431,-0.3759765625,0.045654296875,0.92041015625
1631290356434,-0.37432861328125,0.0389404296875,0.91864013671875
1631290356436,-0.3743896484375,0.04351806640625,0.9215087890625
1631290356527,-0.37786865234375,0.04046630859375,0.91552734375
1631290356528,-0.37408447265625,0.05078125,0.914306640625
1631290356528,-0.37445068359375,0.04632568359375,0.9151611328125
1631290356558,-0.3702392578125,0.0458984375,0.91510009765625
1631290356559,-0.37274169921875,0.0496826171875,0.91693115234375
1631290356559,-0.3665771484375,0.05157470703125,0.91705322265625
1631290356618,-0.37322998046875,0.05499267578125,0.9156494140625
1631290356627,-0.373779296875,0.053955078125,0.91619873046875
1631290356627,-0.3714599609375,0.05474853515625,0.916015625
1631290356689,-0.3751220703125,0.04400634765625,0.9114990234375
1631290356689,-0.37237548828125,0.04693603515625,0.91497802734375
1631290356689,-0.37530517578125,0.04498291015625,0.9132080078125
1631290356744,-0.37542724609375,0.0458984375,0.9178466796875
1631290356745,-0.37030029296875,0.042724609375,0.91607666015625
1631290356745,-0.3746337890625,0.04052734375,0.91619873046875
1631290356827,-0.368896484375,0.04705810546875,0.9219970703125
1631290356827,-0.3685302734375,0.0428466796875,0.920166015625
1631290356827,-0.369140625,0.04632568359375,0.9166259765625
1631290356874,-0.37091064453125,0.04986572265625,0.92523193359375
1631290356875,-0.369873046875,0.048828125,0.92437744140625
1631290356895,-0.36993408203125,0.05059814453125,0.91888427734375
1631290356897,-0.37078857421875,0.048828125,0.9251708984375
1631290356919,-0.36627197265625,0.05126953125,0.919189453125
1631290356921,-0.36968994140625,0.05059814453125,0.91851806640625
1631290356983,-0.3690185546875,0.0509033203125,0.91864013671875
1631290356984,-0.368896484375,0.052001953125,0.91925048828125
1631290356985,-0.36932373046875,0.0552978515625,0.91937255859375
1631290357052,-0.36993408203125,0.0543212890625,0.91558837890625
1631290357053,-0.3714599609375,0.052734375,0.9180908203125
1631290357053,-0.3690185546875,0.05126953125,0.9189453125
1631290357087,-0.37005615234375,0.05255126953125,0.91644287109375
1631290357087,-0.3734130859375,0.05035400390625,0.9156494140625
1631290357089,-0.370361328125,0.05126953125,0.9151611328125
1631290357161,-0.3714599609375,0.049560546875,0.91680908203125
1631290357171,-0.36956787109375,0.04638671875,0.91717529296875
1631290357207,-0.37054443359375,0.0450439453125,0.9188232421875
1631290357208,-0.3690185546875,0.051025390625,0.92010498046875
1631290357208,-0.36767578125,0.04913330078125,0.922607421875
1631290357297,-0.36932373046875,0.0482177734375,0.919189453125
1631290357298,-0.37066650390625,0.0509033203125,0.92205810546875
1631290357302,-0.367431640625,0.05126953125,0.92449951171875
1631290357303,-0.37384033203125,0.05126953125,0.9207763671875
1631290357306,-0.37237548828125,0.05133056640625,0.91888427734375
1631290357313,-0.372802734375,0.04608154296875,0.9173583984375
1631290357419,-0.3768310546875,0.04754638671875,0.91058349609375
1631290357420,-0.371337890625,0.05194091796875,0.9144287109375
1631290357420,-0.375,0.0443115234375,0.91497802734375
1631290357456,-0.37353515625,0.056884765625,0.91644287109375
1631290357465,-0.37109375,0.0516357421875,0.9169921875
1631290357466,-0.3719482421875,0.0501708984375,0.91522216796875
1631290357526,-0.37408447265625,0.0621337890625,0.9190673828125
1631290357527,-0.37335205078125,0.05657958984375,0.91473388671875
1631290357527,-0.37493896484375,0.0538330078125,0.91485595703125
1631290357556,-0.3756103515625,0.0484619140625,0.9173583984375
1631290357556,-0.3717041015625,0.0494384765625,0.9150390625
1631290357556,-0.37567138671875,0.04937744140625,0.9161376953125
1631290357682,-0.37493896484375,0.04327392578125,0.91290283203125
1631290357682,-0.3724365234375,0.0462646484375,0.918701171875
1631290357682,-0.37249755859375,0.044189453125,0.91729736328125
1631290357808,-0.3717041015625,0.052978515625,0.92034912109375
1631290357808,-0.3680419921875,0.0526123046875,0.92181396484375
1631290357809,-0.3739013671875,0.05126953125,0.91937255859375
1631290357876,-0.3739013671875,0.05511474609375,0.91845703125
1631290357877,-0.3734130859375,0.05633544921875,0.91851806640625
1631290357917,-0.3717041015625,0.05584716796875,0.9173583984375
1631290357917,-0.3768310546875,0.05621337890625,0.91522216796875
1631290357917,-0.37115478515625,0.0545654296875,0.9173583984375
1631290358071,-0.37384033203125,0.05963134765625,0.917236328125
1631290358071,-0.37652587890625,0.05584716796875,0.91424560546875
1631290358079,-0.3741455078125,0.05804443359375,0.91363525390625
1631290358097,-0.370849609375,0.0587158203125,0.91412353515625
1631290358097,-0.3726806640625,0.05950927734375,0.91595458984375
1631290358099,-0.373046875,0.056396484375,0.91552734375
1631290358129,-0.373779296875,0.0531005859375,0.9173583984375
1631290358129,-0.3741455078125,0.05523681640625,0.91668701171875
1631290358132,-0.37591552734375,0.059326171875,0.91693115234375
1631290358196,-0.3741455078125,0.052978515625,0.91485595703125
1631290358196,-0.374755859375,0.05126953125,0.91571044921875
1631290358204,-0.3779296875,0.05889892578125,0.91754150390625
1631290358204,-0.375,0.05657958984375,0.917724609375
1631290358204,-0.37322998046875,0.0538330078125,0.91796875
1631290358204,-0.37371826171875,0.0567626953125,0.91607666015625
1631290358214,-0.37506103515625,0.05224609375,0.91485595703125
1631290358214,-0.37396240234375,0.053466796875,0.9144287109375
1631290358214,-0.37615966796875,0.0604248046875,0.918212890625
1631290358292,-0.37506103515625,0.05908203125,0.914794921875
1631290358293,-0.3753662109375,0.0565185546875,0.9171142578125
1631290358304,-0.3773193359375,0.05303955078125,0.91619873046875
1631290358321,-0.3798828125,0.05316162109375,0.9097900390625
1631290358321,-0.37628173828125,0.059326171875,0.90863037109375
1631290358321,-0.3780517578125,0.0479736328125,0.91314697265625
1631290358375,-0.375,0.05706787109375,0.91314697265625
1631290358375,-0.3721923828125,0.0606689453125,0.91748046875
1631290358376,-0.375,0.05755615234375,0.911376953125
1631290358408,-0.3729248046875,0.06085205078125,0.920166015625
1631290358408,-0.37481689453125,0.05615234375,0.91876220703125
1631290358408,-0.37200927734375,0.05926513671875,0.91729736328125
1631290358421,-0.37713623046875,0.057861328125,0.9190673828125
1631290358421,-0.3751220703125,0.0540771484375,0.91650390625
1631290358421,-0.37384033203125,0.05718994140625,0.91204833984375
1631290358615,-0.37725830078125,0.050537109375,0.91351318359375
1631290358619,-0.37255859375,0.05096435546875,0.91455078125
1631290358619,-0.37396240234375,0.0538330078125,0.91357421875
1631290358706,-0.3758544921875,0.0562744140625,0.9129638671875
1631290358706,-0.374755859375,0.05291748046875,0.91851806640625
1631290358721,-0.37469482421875,0.05914306640625,0.9176025390625
1631290358721,-0.37799072265625,0.0599365234375,0.91796875
1631290358723,-0.374267578125,0.05853271484375,0.91705322265625
1631290358726,-0.375244140625,0.05694580078125,0.91827392578125
1631290358738,-0.378173828125,0.0594482421875,0.9130859375
1631290358744,-0.3797607421875,0.06268310546875,0.91595458984375
1631290358744,-0.3759765625,0.056640625,0.91741943359375
1631290358857,-0.37701416015625,0.0631103515625,0.9083251953125
1631290358857,-0.37939453125,0.0616455078125,0.9114990234375
1631290358857,-0.3778076171875,0.0611572265625,0.9127197265625
1631290358907,-0.38189697265625,0.0645751953125,0.91497802734375
1631290358908,-0.37664794921875,0.0631103515625,0.91485595703125
1631290358908,-0.37799072265625,0.06317138671875,0.91229248046875
1631290358910,-0.37786865234375,0.06549072265625,0.9110107421875
1631290358910,-0.37811279296875,0.0667724609375,0.912109375
1631290358911,-0.373779296875,0.06512451171875,0.91131591796875
1631290358942,-0.3753662109375,0.05810546875,0.9150390625
1631290358942,-0.37799072265625,0.06353759765625,0.91455078125
1631290358943,-0.37493896484375,0.061767578125,0.91455078125
1631290358990,-0.3746337890625,0.05859375,0.9176025390625
1631290358991,-0.3724365234375,0.0587158203125,0.91778564453125
1631290358991,-0.3720703125,0.05615234375,0.91351318359375
1631290359027,-0.3714599609375,0.06024169921875,0.92108154296875
1631290359027,-0.37005615234375,0.05767822265625,0.91888427734375
1631290359037,-0.377197265625,0.05584716796875,0.916015625
1631290359130,-0.374755859375,0.05816650390625,0.9207763671875
1631290359130,-0.3759765625,0.0621337890625,0.91912841796875
1631290359132,-0.3740234375,0.05859375,0.91748046875
1631290359171,-0.37677001953125,0.0557861328125,0.91424560546875
1631290359172,-0.37548828125,0.0584716796875,0.9124755859375
1631290359173,-0.37469482421875,0.062255859375,0.90838623046875
1631290359268,-0.37115478515625,0.06158447265625,0.915771484375
1631290359268,-0.37359619140625,0.060546875,0.91522216796875
1631290359276,-0.37255859375,0.05877685546875,0.91766357421875
1631290359293,-0.3704833984375,0.06103515625,0.9215087890625
1631290359293,-0.36700439453125,0.06268310546875,0.917236328125
1631290359298,-0.371337890625,0.05865478515625,0.92254638671875
1631290359343,-0.37298583984375,0.05718994140625,0.92236328125
1631290359343,-0.37054443359375,0.05303955078125,0.9180908203125
1631290359345,-0.3724365234375,0.056640625,0.91754150390625
1631290359390,-0.3731689453125,0.05548095703125,0.9130859375
1631290359390,-0.37078857421875,0.0545654296875,0.914794921875
1631290359391,-0.37347412109375,0.0537109375,0.913818359375
1631290359457,-0.37109375,0.05426025390625,0.9171142578125
1631290359457,-0.36865234375,0.0543212890625,0.9190673828125
1631290359459,-0.3701171875,0.05548095703125,0.91766357421875
1631290359540,-0.37274169921875,0.05841064453125,0.922607421875
1631290359540,-0.3699951171875,0.05657958984375,0.91998291015625
1631290359540,-0.37042236328125,0.056396484375,0.9219970703125
1631290359574,-0.37359619140625,0.06103515625,0.915283203125
1631290359574,-0.37237548828125,0.057861328125,0.92010498046875
1631290359574,-0.373291015625,0.060546875,0.91571044921875
1631290359675,-0.37664794921875,0.06561279296875,0.913818359375
1631290359675,-0.37432861328125,0.0614013671875,0.91168212890625
1631290359675,-0.37420654296875,0.0615234375,0.91253662109375
1631290359676,-0.3753662109375,0.05987548828125,0.91400146484375
1631290359676,-0.37847900390625,0.0633544921875,0.91265869140625
1631290359676,-0.3736572265625,0.0625,0.91180419921875
1631290359740,-0.37908935546875,0.06304931640625,0.91156005859375
1631290359740,-0.37841796875,0.05999755859375,0.91265869140625
1631290359741,-0.3751220703125,0.064208984375,0.91534423828125
1631290359979,-0.37493896484375,0.0570068359375,0.911376953125
1631290359993,-0.37493896484375,0.05950927734375,0.9117431640625
1631290360005,-0.374267578125,0.05828857421875,0.91217041015625
1631290360049,-0.3734130859375,0.06048583984375,0.91558837890625
1631290360051,-0.37359619140625,0.0556640625,0.91436767578125
1631290360053,-0.37078857421875,0.0584716796875,0.9202880859375
1631290360113,-0.36761474609375,0.05755615234375,0.92156982421875
1631290360115,-0.37139892578125,0.05950927734375,0.9176025390625
1631290360116,-0.37396240234375,0.0560302734375,0.91961669921875
1631290360134,-0.37603759765625,0.0574951171875,0.923583984375
1631290360135,-0.376708984375,0.05743408203125,0.9215087890625
1631290360136,-0.3741455078125,0.05462646484375,0.91448974609375
1631290360173,-0.37506103515625,0.06024169921875,0.91259765625
1631290360174,-0.37371826171875,0.06072998046875,0.910888671875
1631290360175,-0.373046875,0.060546875,0.91558837890625
1631290360213,-0.3702392578125,0.06024169921875,0.915771484375
1631290360213,-0.3721923828125,0.06524658203125,0.91632080078125
1631290360214,-0.37274169921875,0.0621337890625,0.91851806640625
1631290360228,-0.372314453125,0.0631103515625,0.92034912109375
1631290360229,-0.37518310546875,0.05810546875,0.91754150390625
1631290360230,-0.37396240234375,0.054931640625,0.91436767578125
1631290360253,-0.3770751953125,0.05621337890625,0.9140625
1631290360254,-0.37646484375,0.05841064453125,0.90966796875
1631290360254,-0.37744140625,0.05413818359375,0.91485595703125
1631290360306,-0.37420654296875,0.05712890625,0.91314697265625
1631290360308,-0.3790283203125,0.05413818359375,0.9107666015625
1631290360311,-0.37615966796875,0.0576171875,0.9140625
1631290360357,-0.374755859375,0.05816650390625,0.9146728515625
1631290360357,-0.37255859375,0.0621337890625,0.91705322265625
1631290360357,-0.37493896484375,0.05694580078125,0.9134521484375
1631290360373,-0.38037109375,0.06341552734375,0.9173583984375
1631290360373,-0.37469482421875,0.0621337890625,0.9202880859375
1631290360373,-0.3751220703125,0.06103515625,0.92279052734375
1631290360616,-0.3731689453125,0.06536865234375,0.9168701171875
1631290360616,-0.37774658203125,0.06146240234375,0.91943359375
1631290360616,-0.37860107421875,0.060302734375,0.9163818359375
1631290360668,-0.37542724609375,0.0631103515625,0.91021728515625
1631290360669,-0.37432861328125,0.06158447265625,0.91534423828125
1631290360669,-0.38037109375,0.062744140625,0.91156005859375
1631290360706,-0.377197265625,0.07147216796875,0.9124755859375
1631290360706,-0.3736572265625,0.06695556640625,0.91082763671875
1631290360707,-0.37823486328125,0.06549072265625,0.91339111328125
1631290360808,-0.3775634765625,0.06591796875,0.91314697265625
1631290360808,-0.37860107421875,0.06671142578125,0.910400390625
1631290360808,-0.3814697265625,0.0679931640625,0.91265869140625
1631290360903,-0.37713623046875,0.05621337890625,0.91656494140625
1631290360903,-0.37451171875,0.05938720703125,0.91864013671875
1631290360904,-0.37481689453125,0.06103515625,0.91448974609375
1631290360909,-0.37445068359375,0.0623779296875,0.912353515625
1631290360910,-0.375244140625,0.06256103515625,0.91351318359375
1631290360910,-0.38031005859375,0.06390380859375,0.9100341796875
1631290361044,-0.37786865234375,0.05712890625,0.92120361328125
1631290361044,-0.3765869140625,0.0579833984375,0.9180908203125
1631290361048,-0.37371826171875,0.05743408203125,0.9189453125
1631290361075,-0.3701171875,0.0531005859375,0.91571044921875
1631290361076,-0.368408203125,0.05450439453125,0.91241455078125
1631290361076,-0.373046875,0.0595703125,0.9154052734375
1631290361091,-0.37701416015625,0.05078125,0.9158935546875
1631290361091,-0.37518310546875,0.05413818359375,0.919921875
1631290361092,-0.37554931640625,0.04754638671875,0.91259765625
1631290361151,-0.37225341796875,0.05731201171875,0.91748046875
1631290361152,-0.37664794921875,0.056640625,0.91961669921875
1631290361153,-0.37371826171875,0.060546875,0.9205322265625
1631290361202,-0.3714599609375,0.056396484375,0.912841796875
1631290361203,-0.373779296875,0.05548095703125,0.91650390625
1631290361204,-0.3739013671875,0.05352783203125,0.9122314453125
1631290361215,-0.37506103515625,0.05084228515625,0.912353515625
1631290361216,-0.37310791015625,0.05340576171875,0.9146728515625
1631290361217,-0.371337890625,0.04827880859375,0.91632080078125
1631290361239,-0.37127685546875,0.05120849609375,0.918212890625
1631290361239,-0.3717041015625,0.04656982421875,0.91766357421875
1631290361240,-0.36944580078125,0.05242919921875,0.91552734375
1631290361283,-0.3714599609375,0.05694580078125,0.91693115234375
1631290361284,-0.37384033203125,0.05718994140625,0.9185791015625
1631290361285,-0.37017822265625,0.05609130859375,0.92034912109375
1631290361299,-0.3759765625,0.061279296875,0.92181396484375
1631290361299,-0.36834716796875,0.05615234375,0.9195556640625
1631290361300,-0.37164306640625,0.05621337890625,0.91937255859375
1631290361342,-0.37408447265625,0.05877685546875,0.91949462890625
1631290361343,-0.36700439453125,0.05889892578125,0.9188232421875
1631290361343,-0.37188720703125,0.0611572265625,0.91845703125
1631290361442,-0.3677978515625,0.06011962890625,0.9141845703125
1631290361443,-0.37139892578125,0.05914306640625,0.9163818359375
1631290361443,-0.373779296875,0.06048583984375,0.9193115234375
1631290361473,-0.36920166015625,0.060546875,0.918701171875
1631290361473,-0.37030029296875,0.0616455078125,0.915771484375
1631290361535,-0.36834716796875,0.06072998046875,0.9141845703125
1631290361535,-0.372314453125,0.05419921875,0.91668701171875
1631290361535,-0.3724365234375,0.05572509765625,0.9205322265625
1631290361739,-0.36968994140625,0.05535888671875,0.91717529296875
1631290361741,-0.36932373046875,0.0545654296875,0.91473388671875
1631290361744,-0.3673095703125,0.05474853515625,0.91729736328125
1631290361765,-0.36541748046875,0.05682373046875,0.919921875
1631290361766,-0.37237548828125,0.053955078125,0.91839599609375
1631290361767,-0.37017822265625,0.0577392578125,0.91778564453125
1631290361809,-0.37060546875,0.05706787109375,0.91766357421875
1631290361810,-0.37335205078125,0.0540771484375,0.918701171875
1631290361810,-0.37060546875,0.0565185546875,0.91790771484375
1631290361979,-0.3734130859375,0.0543212890625,0.9154052734375
1631290361980,-0.374267578125,0.0504150390625,0.91473388671875
1631290361981,-0.37677001953125,0.05108642578125,0.91546630859375
1631290362007,-0.3680419921875,0.05621337890625,0.917724609375
1631290362008,-0.3739013671875,0.05535888671875,0.91583251953125
1631290362012,-0.37176513671875,0.05780029296875,0.91937255859375
1631290362077,-0.37127685546875,0.06109619140625,0.918701171875
1631290362078,-0.37109375,0.0614013671875,0.919189453125
1631290362078,-0.37371826171875,0.0614013671875,0.916015625
1631290362109,-0.37469482421875,0.05694580078125,0.91668701171875
1631290362110,-0.3721923828125,0.0560302734375,0.91815185546875
1631290362111,-0.37249755859375,0.05548095703125,0.915771484375
1631290362173,-0.37591552734375,0.046875,0.917236328125
1631290362174,-0.374755859375,0.05023193359375,0.91748046875
1631290362174,-0.37255859375,0.05157470703125,0.91510009765625
1631290362223,-0.3697509765625,0.05877685546875,0.91845703125
1631290362224,-0.37103271484375,0.0537109375,0.92041015625
1631290362224,-0.3699951171875,0.05010986328125,0.9180908203125
1631290362252,-0.37274169921875,0.05755615234375,0.9202880859375
1631290362253,-0.37103271484375,0.05987548828125,0.91900634765625
1631290362253,-0.37042236328125,0.06072998046875,0.91912841796875
1631290362288,-0.37139892578125,0.061767578125,0.91680908203125
1631290362288,-0.372314453125,0.062255859375,0.917236328125
1631290362289,-0.375,0.06549072265625,0.914794921875
1631290362320,-0.37518310546875,0.0621337890625,0.916015625
1631290362324,-0.37359619140625,0.06182861328125,0.9173583984375
1631290362326,-0.3734130859375,0.05987548828125,0.91741943359375
1631290362356,-0.37139892578125,0.06036376953125,0.91363525390625
1631290362357,-0.37017822265625,0.06048583984375,0.91522216796875
1631290362358,-0.3707275390625,0.061279296875,0.91552734375
1631290362397,-0.37432861328125,0.05877685546875,0.9176025390625
1631290362397,-0.37542724609375,0.05950927734375,0.9171142578125
1631290362397,-0.37420654296875,0.06085205078125,0.91583251953125
1631290362474,-0.37054443359375,0.05584716796875,0.91754150390625
1631290362474,-0.37188720703125,0.0555419921875,0.9169921875
1631290362475,-0.37420654296875,0.054931640625,0.9168701171875
1631290362475,-0.373291015625,0.05487060546875,0.91595458984375
1631290362475,-0.3729248046875,0.0535888671875,0.91644287109375
1631290362475,-0.374267578125,0.0570068359375,0.916015625
1631290362523,-0.37408447265625,0.06103515625,0.9229736328125
1631290362524,-0.3720703125,0.05572509765625,0.9212646484375
1631290362525,-0.37030029296875,0.05584716796875,0.9202880859375
1631290362555,-0.37628173828125,0.0572509765625,0.91693115234375
1631290362557,-0.3790283203125,0.0579833984375,0.9178466796875
1631290362573,-0.37554931640625,0.054443359375,0.918212890625
1631290362668,-0.372802734375,0.052001953125,0.91241455078125
1631290362670,-0.37506103515625,0.05255126953125,0.9119873046875
1631290362672,-0.3765869140625,0.0592041015625,0.91265869140625
1631290362699,-0.37066650390625,0.0589599609375,0.91558837890625
1631290362699,-0.3720703125,0.05712890625,0.91162109375
1631290362699,-0.36981201171875,0.0616455078125,0.91705322265625
1631290362742,-0.37261962890625,0.0665283203125,0.91754150390625
1631290362743,-0.37396240234375,0.06158447265625,0.91607666015625
1631290362743,-0.3682861328125,0.06427001953125,0.91986083984375
1631290362788,-0.37335205078125,0.05511474609375,0.918212890625
1631290362788,-0.3729248046875,0.05877685546875,0.9197998046875
1631290362788,-0.3736572265625,0.05389404296875,0.9156494140625
1631290362857,-0.37200927734375,0.04949951171875,0.91754150390625
1631290362858,-0.37261962890625,0.056640625,0.9173583984375
1631290362858,-0.37164306640625,0.0538330078125,0.91595458984375
1631290362931,-0.36932373046875,0.05926513671875,0.920166015625
1631290362931,-0.3685302734375,0.05987548828125,0.91693115234375
1631290362931,-0.374267578125,0.054931640625,0.92181396484375
1631290362963,-0.37200927734375,0.06292724609375,0.92095947265625
1631290362964,-0.37017822265625,0.0601806640625,0.9197998046875
1631290362966,-0.37188720703125,0.0640869140625,0.9193115234375
1631290363086,-0.374267578125,0.0640869140625,0.91864013671875
1631290363087,-0.3697509765625,0.063720703125,0.913330078125
1631290363088,-0.37188720703125,0.06201171875,0.91387939453125
1631290363101,-0.372314453125,0.05902099609375,0.9156494140625
1631290363105,-0.3707275390625,0.06097412109375,0.91680908203125
1631290363107,-0.37164306640625,0.062255859375,0.91534423828125
1631290363242,-0.370361328125,0.0635986328125,0.91748046875
1631290363242,-0.37109375,0.06036376953125,0.916259765625
1631290363242,-0.37274169921875,0.06201171875,0.915283203125
1631290363291,-0.371337890625,0.063720703125,0.916015625
1631290363291,-0.37322998046875,0.05999755859375,0.91668701171875
1631290363292,-0.37091064453125,0.0595703125,0.91766357421875
1631290363325,-0.3734130859375,0.052734375,0.91705322265625
1631290363326,-0.36895751953125,0.05291748046875,0.9151611328125
1631290363326,-0.3701171875,0.0557861328125,0.9144287109375
1631290363326,-0.3690185546875,0.0513916015625,0.91650390625
1631290363326,-0.37176513671875,0.05419921875,0.916748046875
1631290363351,-0.37200927734375,0.05267333984375,0.921875
1631290363385,-0.3756103515625,0.0557861328125,0.9200439453125
1631290363385,-0.3707275390625,0.05859375,0.919677734375
1631290363386,-0.3736572265625,0.05389404296875,0.92120361328125
1631290363466,-0.37384033203125,0.0548095703125,0.91888427734375
1631290363467,-0.37408447265625,0.05718994140625,0.9200439453125
1631290363471,-0.37677001953125,0.05291748046875,0.9197998046875
1631290363556,-0.37139892578125,0.0533447265625,0.9163818359375
1631290363558,-0.3751220703125,0.04742431640625,0.90789794921875
1631290363558,-0.3779296875,0.05584716796875,0.91534423828125
1631290363559,-0.37615966796875,0.050048828125,0.9111328125
1631290363560,-0.37677001953125,0.0506591796875,0.9105224609375
1631290363561,-0.37298583984375,0.0548095703125,0.91241455078125
1631290363638,-0.37591552734375,0.05609130859375,0.91778564453125
1631290363638,-0.37615966796875,0.059326171875,0.92108154296875
1631290363638,-0.37591552734375,0.0552978515625,0.9146728515625
1631290363670,-0.378173828125,0.05352783203125,0.9119873046875
1631290363671,-0.378662109375,0.05352783203125,0.9163818359375
1631290363671,-0.38092041015625,0.0533447265625,0.91473388671875
1631290363740,-0.376708984375,0.0509033203125,0.91363525390625
1631290363741,-0.3780517578125,0.05584716796875,0.91552734375
1631290363743,-0.3778076171875,0.0513916015625,0.91351318359375
1631290363790,-0.378662109375,0.0511474609375,0.91546630859375
1631290363790,-0.37750244140625,0.0537109375,0.9136962890625
1631290363791,-0.3795166015625,0.05438232421875,0.91595458984375
1631290363856,-0.380615234375,0.0546875,0.9195556640625
1631290363856,-0.37725830078125,0.054931640625,0.917724609375
1631290363857,-0.37945556640625,0.0556640625,0.91900634765625
1631290363957,-0.3790283203125,0.0557861328125,0.91278076171875
1631290363957,-0.38446044921875,0.0589599609375,0.9127197265625
1631290363958,-0.3819580078125,0.05914306640625,0.91497802734375
1631290363990,-0.38250732421875,0.0560302734375,0.9100341796875
1631290363990,-0.38507080078125,0.05804443359375,0.911376953125
1631290363992,-0.38360595703125,0.05828857421875,0.9105224609375
1631290364148,-0.38482666015625,0.0592041015625,0.908935546875
1631290364148,-0.3868408203125,0.05938720703125,0.90936279296875
1631290364148,-0.38446044921875,0.0611572265625,0.9114990234375
1631290364226,-0.3843994140625,0.0565185546875,0.91119384765625
1631290364230,-0.38275146484375,0.05938720703125,0.9139404296875
1631290364230,-0.38385009765625,0.05938720703125,0.91217041015625
1631290364306,-0.386962890625,0.05780029296875,0.91033935546875
1631290364308,-0.38055419921875,0.0550537109375,0.90887451171875
1631290364310,-0.38507080078125,0.0537109375,0.91143798828125
1631290364343,-0.3826904296875,0.05364990234375,0.91046142578125
1631290364344,-0.386962890625,0.05181884765625,0.90911865234375
1631290364346,-0.38427734375,0.05072021484375,0.90972900390625
1631290364437,-0.38922119140625,0.05084228515625,0.9146728515625
1631290364438,-0.38470458984375,0.05377197265625,0.9093017578125
1631290364440,-0.3841552734375,0.04998779296875,0.91168212890625
1631290364441,-0.3836669921875,0.0543212890625,0.90948486328125
1631290364442,-0.38629150390625,0.05419921875,0.91229248046875
1631290364455,-0.38897705078125,0.04974365234375,0.91064453125
1631290364541,-0.38592529296875,0.052001953125,0.90936279296875
1631290364542,-0.38031005859375,0.057373046875,0.914794921875
1631290364543,-0.3809814453125,0.0557861328125,0.91278076171875
1631290364544,-0.3798828125,0.05743408203125,0.91558837890625
1631290364546,-0.38287353515625,0.0584716796875,0.91387939453125
1631290364546,-0.38177490234375,0.05743408203125,0.917236328125
1631290364551,-0.3826904296875,0.05706787109375,0.91143798828125
1631290364552,-0.38482666015625,0.05572509765625,0.90576171875
1631290364552,-0.38446044921875,0.057373046875,0.9117431640625
1631290364576,-0.3818359375,0.05206298828125,0.91339111328125
1631290364577,-0.38519287109375,0.05615234375,0.91021728515625
1631290364582,-0.3856201171875,0.05242919921875,0.9114990234375
1631290364635,-0.38348388671875,0.05145263671875,0.91412353515625
1631290364650,-0.38092041015625,0.04962158203125,0.909912109375
1631290364652,-0.380859375,0.0460205078125,0.90728759765625
1631290364666,-0.3819580078125,0.05072021484375,0.91455078125
1631290364666,-0.384521484375,0.05072021484375,0.91400146484375
1631290364667,-0.3785400390625,0.0533447265625,0.914794921875
1631290364739,-0.3809814453125,0.05419921875,0.91729736328125
1631290364741,-0.38494873046875,0.05291748046875,0.9144287109375
1631290364741,-0.38470458984375,0.05401611328125,0.91351318359375
1631290364823,-0.3812255859375,0.0599365234375,0.91192626953125
1631290364824,-0.3800048828125,0.0550537109375,0.91162109375
1631290364934,-0.38397216796875,0.0567626953125,0.911376953125
1631290364934,-0.38360595703125,0.0572509765625,0.912353515625
1631290364934,-0.38330078125,0.05364990234375,0.91217041015625
1631290364966,-0.3868408203125,0.058837890625,0.90966796875
1631290364966,-0.385498046875,0.05487060546875,0.91180419921875
1631290364967,-0.38616943359375,0.05426025390625,0.9127197265625
1631290364967,-0.3841552734375,0.0556640625,0.91156005859375
1631290364982,-0.3831787109375,0.05615234375,0.91412353515625
1631290364983,-0.38720703125,0.056640625,0.91375732421875
1631290365040,-0.38861083984375,0.05517578125,0.90869140625
1631290365041,-0.38397216796875,0.05413818359375,0.907958984375
1631290365041,-0.38671875,0.05413818359375,0.911376953125
1631290365077,-0.3839111328125,0.0528564453125,0.90997314453125
1631290365080,-0.3858642578125,0.05181884765625,0.91436767578125
1631290365083,-0.38897705078125,0.05474853515625,0.91278076171875
1631290365241,-0.38482666015625,0.05224609375,0.91119384765625
1631290365251,-0.3841552734375,0.05316162109375,0.9122314453125
1631290365251,-0.3856201171875,0.0540771484375,0.911865234375
1631290365263,-0.3856201171875,0.056640625,0.91357421875
1631290365267,-0.3873291015625,0.0501708984375,0.910400390625
1631290365268,-0.38812255859375,0.04766845703125,0.909423828125
1631290365317,-0.38507080078125,0.0531005859375,0.90655517578125
1631290365317,-0.3875732421875,0.05328369140625,0.908203125
1631290365317,-0.38726806640625,0.056396484375,0.90863037109375
1631290365337,-0.38531494140625,0.0531005859375,0.91070556640625
1631290365337,-0.383544921875,0.0601806640625,0.91162109375
1631290365337,-0.38446044921875,0.05645751953125,0.9122314453125
1631290365407,-0.38140869140625,0.06024169921875,0.91357421875
1631290365408,-0.386474609375,0.05615234375,0.911376953125
1631290365409,-0.38287353515625,0.05255126953125,0.91070556640625
1631290365437,-0.38848876953125,0.0521240234375,0.90936279296875
1631290365437,-0.3848876953125,0.0484619140625,0.9114990234375
1631290365438,-0.3822021484375,0.05181884765625,0.907470703125
1631290365494,-0.38555908203125,0.0467529296875,0.91064453125
1631290365494,-0.38433837890625,0.05108642578125,0.9133911132812
1631290365638,-0.38568115234375,0.05413818359375,0.91229248046875
1631290365639,-0.3837890625,0.0576171875,0.912353515625
1631290365640,-0.3851318359375,0.05902099609375,0.91302490234375
1631290365706,-0.3856201171875,0.05828857421875,0.91302490234375
1631290365706,-0.388427734375,0.05853271484375,0.9141845703125
1631290365707,-0.38629150390625,0.05865478515625,0.9117431640625
1631290365708,-0.38641357421875,0.06268310546875,0.91192626953125
1631290365711,-0.38519287109375,0.05902099609375,0.91326904296875
1631290365712,-0.3880615234375,0.05859375,0.90887451171875
1631290365770,-0.387451171875,0.05706787109375,0.90966796875
1631290365770,-0.387939453125,0.05908203125,0.90997314453125
1631290365772,-0.38604736328125,0.06060791015625,0.91015625
1631290365803,-0.38653564453125,0.06005859375,0.90728759765625
1631290365803,-0.38623046875,0.06048583984375,0.91107177734375
1631290365815,-0.38525390625,0.06011962890625,0.91162109375
1631290365968,-0.3858642578125,0.0576171875,0.9091796875
1631290365968,-0.38897705078125,0.05712890625,0.91070556640625
1631290365968,-0.38275146484375,0.0546875,0.90966796875
1631290365989,-0.38671875,0.0538330078125,0.91064453125
1631290366004,-0.38714599609375,0.0540771484375,0.90704345703125
1631290366015,-0.38397216796875,0.05322265625,0.91082763671875
1631290366029,-0.38824462890625,0.054443359375,0.90826416015625
1631290366030,-0.38726806640625,0.05462646484375,0.9134521484375
1631290366044,-0.3873291015625,0.05352783203125,0.9100341796875
1631290366051,-0.388427734375,0.05828857421875,0.90972900390625
1631290366052,-0.3880615234375,0.0521240234375,0.91107177734375
1631290366052,-0.38629150390625,0.0550537109375,0.91314697265625
1631290366069,-0.39208984375,0.054931640625,0.9140625
1631290366069,-0.3887939453125,0.05352783203125,0.9091796875
1631290366070,-0.39007568359375,0.05108642578125,0.9061279296875
1631290366227,-0.39105224609375,0.05950927734375,0.90325927734375
1631290366227,-0.38916015625,0.0574951171875,0.90802001953125
1631290366227,-0.38690185546875,0.0557861328125,0.9071044921875
1631290366302,-0.38604736328125,0.06109619140625,0.91204833984375
1631290366302,-0.38519287109375,0.058837890625,0.91259765625
1631290366302,-0.38494873046875,0.0582275390625,0.9091796875
1631290366361,-0.39422607421875,0.05096435546875,0.90673828125
1631290366367,-0.38818359375,0.05859375,0.90704345703125
1631290366367,-0.3919677734375,0.0577392578125,0.9090576171875
1631290366383,-0.389404296875,0.06060791015625,0.9085693359375
1631290366383,-0.38690185546875,0.06103515625,0.91180419921875
1631290366393,-0.3924560546875,0.0572509765625,0.90960693359375
1631290366404,-0.38763427734375,0.05206298828125,0.90960693359375
1631290366405,-0.388427734375,0.05426025390625,0.906982421875
1631290366408,-0.388671875,0.0601806640625,0.90985107421875
1631290366453,-0.38720703125,0.05950927734375,0.91162109375
1631290366454,-0.3896484375,0.06024169921875,0.91107177734375
1631290366454,-0.38958740234375,0.057861328125,0.90911865234375
1631290366542,-0.3895263671875,0.064453125,0.91064453125
1631290366544,-0.38873291015625,0.06414794921875,0.9111328125
1631290366544,-0.38818359375,0.06732177734375,0.91259765625
1631290366576,-0.3914794921875,0.06365966796875,0.90625
1631290366576,-0.3902587890625,0.0625,0.9088134765625
1631290366577,-0.38958740234375,0.0601806640625,0.9091796875
1631290366662,-0.387939453125,0.061279296875,0.90966796875
1631290366663,-0.39190673828125,0.06243896484375,0.9073486328125
1631290366671,-0.39007568359375,0.062255859375,0.90582275390625
1631290366724,-0.38531494140625,0.05999755859375,0.90740966796875
1631290366724,-0.3895263671875,0.059326171875,0.91033935546875
1631290366724,-0.39105224609375,0.06219482421875,0.9063720703125
1631290366748,-0.38922119140625,0.05511474609375,0.9105224609375
1631290366748,-0.3853759765625,0.05487060546875,0.91058349609375
1631290366748,-0.38720703125,0.0528564453125,0.9091796875
1631290366905,-0.389404296875,0.0496826171875,0.90875244140625
1631290366905,-0.38836669921875,0.05389404296875,0.90924072265625
1631290366906,-0.38763427734375,0.050537109375,0.90966796875
1631290366919,-0.38751220703125,0.05206298828125,0.912841796875
1631290366927,-0.39007568359375,0.0518798828125,0.912353515625
1631290366928,-0.388671875,0.0528564453125,0.91552734375
1631290366960,-0.38592529296875,0.0550537109375,0.91180419921875
1631290366960,-0.3863525390625,0.0556640625,0.9119873046875
1631290366961,-0.3927001953125,0.0537109375,0.91290283203125
1631290366993,-0.3916015625,0.05419921875,0.912109375
1631290366993,-0.39105224609375,0.04779052734375,0.91009521484375
1631290366994,-0.39056396484375,0.04632568359375,0.906005859375
1631290367050,-0.38909912109375,0.05413818359375,0.902587890625
1631290367050,-0.386474609375,0.05316162109375,0.90997314453125
1631290367050,-0.39031982421875,0.05340576171875,0.90570068359375
1631290367097,-0.3839111328125,0.05426025390625,0.9132080078125
1631290367098,-0.38494873046875,0.05535888671875,0.912353515625
1631290367105,-0.38909912109375,0.05487060546875,0.91143798828125
1631290367285,-0.38800048828125,0.052978515625,0.91168212890625
1631290367289,-0.39202880859375,0.0526123046875,0.9072265625
1631290367290,-0.39306640625,0.05572509765625,0.9073486328125
1631290367290,-0.3916015625,0.06011962890625,0.91192626953125
1631290367290,-0.3924560546875,0.054931640625,0.91107177734375
1631290367312,-0.39251708984375,0.05029296875,0.908447265625
1631290367315,-0.3955078125,0.04876708984375,0.907958984375
1631290367327,-0.3892822265625,0.052734375,0.90814208984375
1631290367423,-0.3863525390625,0.04925537109375,0.9102783203125
1631290367423,-0.391357421875,0.0518798828125,0.91217041015625
1631290367423,-0.390869140625,0.05029296875,0.9107666015625
1631290367484,-0.3917236328125,0.052734375,0.91131591796875
1631290367503,-0.39007568359375,0.05718994140625,0.90753173828125
1631290367512,-0.3914794921875,0.0562744140625,0.9093017578125
1631290367513,-0.39208984375,0.05755615234375,0.91217041015625
1631290367514,-0.39141845703125,0.05438232421875,0.9107666015625
1631290367532,-0.39202880859375,0.06011962890625,0.90869140625
1631290367536,-0.388671875,0.05889892578125,0.9078369140625
1631290367543,-0.39111328125,0.057861328125,0.90673828125
1631290367544,-0.39105224609375,0.05743408203125,0.90509033203125
1631290367567,-0.39373779296875,0.063720703125,0.90386962890625
1631290367568,-0.39337158203125,0.05816650390625,0.90423583984375
1631290367569,-0.390380859375,0.05975341796875,0.907470703125
1631290367744,-0.3934326171875,0.0572509765625,0.90484619140625
1631290367744,-0.39520263671875,0.05548095703125,0.906005859375
1631290367744,-0.39208984375,0.0509033203125,0.90594482421875
1631290367744,-0.39434814453125,0.05224609375,0.90655517578125
1631290367744,-0.38818359375,0.05645751953125,0.9046630859375
1631290367744,-0.38848876953125,0.05322265625,0.90679931640625
1631290367793,-0.3896484375,0.0504150390625,0.9105224609375
1631290367793,-0.39129638671875,0.05224609375,0.91168212890625
1631290367793,-0.389404296875,0.05303955078125,0.9100341796875
1631290367834,-0.38836669921875,0.05548095703125,0.90863037109375
1631290367842,-0.3941650390625,0.0518798828125,0.9075927734375
1631290367842,-0.391845703125,0.05914306640625,0.90423583984375
1631290367843,-0.39276123046875,0.05157470703125,0.904541015625
1631290367844,-0.39178466796875,0.05389404296875,0.9119873046875
1631290367844,-0.39569091796875,0.05316162109375,0.91485595703125
1631290368008,-0.39111328125,0.0521240234375,0.90472412109375
1631290368008,-0.3897705078125,0.05426025390625,0.90789794921875
1631290368008,-0.391357421875,0.05389404296875,0.90521240234375
1631290368089,-0.3944091796875,0.052734375,0.90631103515625
1631290368089,-0.39166259765625,0.054443359375,0.90850830078125
1631290368098,-0.3900146484375,0.05615234375,0.9085693359375
1631290368210,-0.39385986328125,0.052001953125,0.90460205078125
1631290368210,-0.39422607421875,0.05194091796875,0.90869140625
1631290368213,-0.3931884765625,0.04803466796875,0.908447265625
1631290368243,-0.390869140625,0.04803466796875,0.91070556640625
1631290368243,-0.3858642578125,0.05023193359375,0.91143798828125
1631290368243,-0.3885498046875,0.0472412109375,0.9100341796875
1631290368423,-0.38702392578125,0.05206298828125,0.91259765625
1631290368427,-0.38519287109375,0.04766845703125,0.9124755859375
1631290368427,-0.38775634765625,0.05035400390625,0.9136962890625
1631290368439,-0.3890380859375,0.0555419921875,0.90911865234375
1631290368444,-0.38934326171875,0.05364990234375,0.91241455078125
1631290368449,-0.3900146484375,0.05303955078125,0.91082763671875
1631290368450,-0.38873291015625,0.0533447265625,0.91162109375
1631290368450,-0.38726806640625,0.0537109375,0.91082763671875
1631290368657,-0.38739013671875,0.05584716796875,0.9073486328125
1631290368657,-0.38922119140625,0.0546875,0.90570068359375
1631290368657,-0.38739013671875,0.05694580078125,0.9095458984375
1631290368824,-0.386474609375,0.05584716796875,0.9053955078125
1631290368824,-0.3878173828125,0.0565185546875,0.90484619140625
1631290368825,-0.3880615234375,0.05657958984375,0.90576171875
1631290368855,-0.38885498046875,0.05218505859375,0.90802001953125
1631290368857,-0.39019775390625,0.052490234375,0.90960693359375
1631290368857,-0.38775634765625,0.0545654296875,0.90887451171875
1631290368975,-0.388916015625,0.05230712890625,0.91033935546875
1631290368975,-0.38714599609375,0.0498046875,0.9097900390625
1631290368975,-0.38690185546875,0.052490234375,0.90753173828125
1631290369025,-0.38226318359375,0.049072265625,0.91064453125
1631290369025,-0.3902587890625,0.04766845703125,0.9134521484375
1631290369025,-0.3839111328125,0.04888916015625,0.9146728515625
1631290369071,-0.389404296875,0.0489501953125,0.91387939453125
1631290369071,-0.38714599609375,0.04608154296875,0.91180419921875
1631290369071,-0.38671875,0.047607421875,0.912841796875
1631290369103,-0.38739013671875,0.051513671875,0.9061279296875
1631290369103,-0.39056396484375,0.04315185546875,0.9061279296875
1631290369103,-0.386962890625,0.04803466796875,0.90313720703125
1631290369104,-0.389404296875,0.0472412109375,0.9124755859375
1631290369104,-0.389404296875,0.0489501953125,0.91668701171875
1631290369183,-0.38494873046875,0.05291748046875,0.91070556640625
1631290369183,-0.3861083984375,0.04608154296875,0.9129638671875
1631290369185,-0.385009765625,0.0513916015625,0.9107666015625
1631290369237,-0.385986328125,0.04339599609375,0.909423828125
1631290369237,-0.38720703125,0.04425048828125,0.90899658203125
1631290369237,-0.3861083984375,0.04376220703125,0.9122314453125
1631290369290,-0.383056640625,0.04718017578125,0.91339111328125
1631290369291,-0.3870849609375,0.0460205078125,0.9129638671875
1631290369292,-0.38568115234375,0.04327392578125,0.91314697265625
1631290369292,-0.385986328125,0.041259765625,0.91070556640625
1631290369300,-0.38421630859375,0.04083251953125,0.90966796875
1631290369300,-0.388671875,0.03778076171875,0.91046142578125
1631290369353,-0.38531494140625,0.0509033203125,0.9140625
1631290369353,-0.38897705078125,0.04833984375,0.9158935546875
1631290369353,-0.3829345703125,0.051513671875,0.9144287109375
1631290369358,-0.38653564453125,0.0518798828125,0.91400146484375
1631290369359,-0.38726806640625,0.05035400390625,0.91046142578125
1631290369360,-0.383544921875,0.049560546875,0.9112548828125
1631290369426,-0.387451171875,0.05157470703125,0.909912109375
1631290369427,-0.388916015625,0.05523681640625,0.90948486328125
1631290369427,-0.3876953125,0.0557861328125,0.908203125
1631290369441,-0.3868408203125,0.05560302734375,0.90911865234375
1631290369443,-0.38568115234375,0.0523681640625,0.90948486328125
1631290369444,-0.38671875,0.05419921875,0.91082763671875
1631290369471,-0.38763427734375,0.05633544921875,0.91058349609375
1631290369472,-0.38726806640625,0.05462646484375,0.90789794921875
1631290369473,-0.38702392578125,0.05596923828125,0.91131591796875
1631290369493,-0.38909912109375,0.052734375,0.9075927734375
1631290369495,-0.3878173828125,0.05328369140625,0.9097900390625
1631290369496,-0.38616943359375,0.05224609375,0.9134521484375
1631290369532,-0.3858642578125,0.050048828125,0.9136962890625
1631290369533,-0.38519287109375,0.05242919921875,0.91357421875
1631290369534,-0.3841552734375,0.05364990234375,0.9158935546875
1631290369543,-0.38397216796875,0.0533447265625,0.909912109375
1631290369543,-0.383056640625,0.05450439453125,0.91363525390625
1631290369543,-0.385498046875,0.04974365234375,0.91595458984375
1631290369640,-0.3883056640625,0.04425048828125,0.90911865234375
1631290369640,-0.3896484375,0.05255126953125,0.9150390625
1631290369640,-0.3885498046875,0.0469970703125,0.9107666015625
1631290369690,-0.38604736328125,0.0494384765625,0.90594482421875
1631290369690,-0.38800048828125,0.053466796875,0.9105224609375
1631290369691,-0.3875732421875,0.05029296875,0.91021728515625
1631290369790,-0.38592529296875,0.05755615234375,0.91217041015625
1631290369790,-0.38641357421875,0.0506591796875,0.91162109375
1631290369791,-0.384033203125,0.05548095703125,0.9095458984375
1631290369875,-0.38531494140625,0.04541015625,0.9105224609375
1631290369876,-0.38482666015625,0.05517578125,0.91265869140625
1631290369877,-0.38848876953125,0.0455322265625,0.9091796875
1631290369885,-0.38629150390625,0.053466796875,0.90960693359375
1631290369885,-0.38763427734375,0.04742431640625,0.907958984375
1631290369886,-0.38861083984375,0.0484619140625,0.909912109375
1631290369894,-0.3865966796875,0.04400634765625,0.91265869140625
1631290369899,-0.38470458984375,0.04486083984375,0.9136962890625
1631290369903,-0.38427734375,0.04119873046875,0.91217041015625
1631290369939,-0.38519287109375,0.046630859375,0.91424560546875
1631290369942,-0.38665771484375,0.050048828125,0.91351318359375
1631290369944,-0.3846435546875,0.051025390625,0.9150390625
1631290369990,-0.38348388671875,0.0595703125,0.91204833984375
1631290369990,-0.38836669921875,0.0543212890625,0.9144287109375
1631290369991,-0.387451171875,0.053466796875,0.91571044921875
1631290370039,-0.3846435546875,0.06005859375,0.90911865234375
1631290370040,-0.3873291015625,0.055419921875,0.909912109375
1631290370042,-0.38665771484375,0.0572509765625,0.9119873046875
1631290370203,-0.386474609375,0.0584716796875,0.9073486328125
1631290370203,-0.3883056640625,0.05865478515625,0.90899658203125
1631290370203,-0.38763427734375,0.0595703125,0.91046142578125
1631290370248,-0.384521484375,0.0579833984375,0.9073486328125
1631290370249,-0.3851318359375,0.0548095703125,0.90997314453125
1631290370250,-0.384033203125,0.0560302734375,0.9083251953125
1631290370336,-0.386962890625,0.0531005859375,0.9134521484375
1631290370338,-0.384521484375,0.04937744140625,0.91436767578125
1631290370338,-0.38677978515625,0.05352783203125,0.91302490234375
1631290370400,-0.38482666015625,0.051513671875,0.91070556640625
1631290370400,-0.38592529296875,0.04559326171875,0.90985107421875
1631290370400,-0.3870849609375,0.048583984375,0.91192626953125
1631290370441,-0.386962890625,0.0538330078125,0.9112548828125
1631290370442,-0.38238525390625,0.05218505859375,0.91558837890625
1631290370444,-0.385498046875,0.0538330078125,0.91259765625
1631290370446,-0.3846435546875,0.0518798828125,0.9136962890625
1631290370446,-0.3858642578125,0.052978515625,0.911865234375
1631290370446,-0.386474609375,0.05169677734375,0.913818359375
1631290370498,-0.38897705078125,0.05023193359375,0.91143798828125
1631290370499,-0.39288330078125,0.04644775390625,0.91375732421875
1631290370500,-0.38934326171875,0.0411376953125,0.9097900390625
1631290370524,-0.39093017578125,0.03985595703125,0.90185546875
1631290370526,-0.3890380859375,0.04571533203125,0.90496826171875
1631290370527,-0.38775634765625,0.044189453125,0.906494140625
1631290370613,-0.3846435546875,0.04461669921875,0.912353515625
1631290370613,-0.39056396484375,0.0406494140625,0.90960693359375
1631290370616,-0.38897705078125,0.0462646484375,0.91033935546875
1631290370638,-0.38800048828125,0.049072265625,0.91375732421875
1631290370641,-0.3895263671875,0.04876708984375,0.910888671875
1631290370642,-0.3916015625,0.0479736328125,0.91064453125
1631290370751,-0.39129638671875,0.04669189453125,0.9100341796875
1631290370751,-0.38836669921875,0.04656982421875,0.91180419921875
1631290370753,-0.38720703125,0.04541015625,0.91009521484375
1631290370801,-0.39154052734375,0.04315185546875,0.908935546875
1631290370801,-0.390625,0.04150390625,0.909423828125
1631290370802,-0.3941650390625,0.04193115234375,0.91070556640625
1631290370878,-0.38800048828125,0.04620361328125,0.9078369140625
1631290370879,-0.39276123046875,0.0457763671875,0.91058349609375
1631290370879,-0.39337158203125,0.04876708984375,0.9095458984375
1631290371039,-0.39202880859375,0.049560546875,0.90826416015625
1631290371039,-0.39166259765625,0.04583740234375,0.912109375
1631290371039,-0.39642333984375,0.05035400390625,0.90863037109375
1631290371039,-0.3936767578125,0.05438232421875,0.90673828125
1631290371039,-0.39727783203125,0.0548095703125,0.90594482421875
1631290371040,-0.3995361328125,0.05548095703125,0.9063720703125
1631290371070,-0.39398193359375,0.05499267578125,0.9014892578125
1631290371071,-0.39434814453125,0.0567626953125,0.904541015625
1631290371076,-0.395263671875,0.0572509765625,0.90338134765625
1631290371157,-0.3966064453125,0.05419921875,0.90472412109375
1631290371158,-0.39739990234375,0.05364990234375,0.90264892578125
1631290371160,-0.3948974609375,0.05535888671875,0.90130615234375
1631290371190,-0.3958740234375,0.05084228515625,0.906005859375
1631290371192,-0.3975830078125,0.0474853515625,0.9097900390625
1631290371204,-0.39471435546875,0.05145263671875,0.90631103515625
1631290371205,-0.395751953125,0.05120849609375,0.9051513671875
1631290371205,-0.39422607421875,0.05047607421875,0.905029296875
1631290371209,-0.39532470703125,0.0543212890625,0.9056396484375
1631290371270,-0.398193359375,0.047607421875,0.91265869140625
1631290371270,-0.39599609375,0.046142578125,0.90704345703125
1631290371271,-0.39617919921875,0.04522705078125,0.91046142578125
1631290371324,-0.393798828125,0.04754638671875,0.909423828125
1631290371324,-0.39404296875,0.0482177734375,0.90386962890625
1631290371324,-0.39398193359375,0.05169677734375,0.90972900390625
1631290371359,-0.39715576171875,0.0413818359375,0.90325927734375
1631290371361,-0.40118408203125,0.04364013671875,0.911865234375
1631290371361,-0.39996337890625,0.04986572265625,0.90771484375
1631290371438,-0.39166259765625,0.04742431640625,0.89862060546875
1631290371438,-0.39947509765625,0.0445556640625,0.90167236328125
1631290371449,-0.3927001953125,0.04473876953125,0.9022216796875
1631290371458,-0.39581298828125,0.04901123046875,0.90032958984375
1631290371459,-0.3927001953125,0.04034423828125,0.90753173828125
1631290371460,-0.39178466796875,0.04425048828125,0.907470703125
1631290371542,-0.39776611328125,0.041259765625,0.91033935546875
1631290371544,-0.3934326171875,0.04498291015625,0.90740966796875
1631290371544,-0.393310546875,0.04571533203125,0.90728759765625
1631290371573,-0.394775390625,0.0380859375,0.90618896484375
1631290371580,-0.393310546875,0.04083251953125,0.90869140625
1631290371580,-0.39501953125,0.04254150390625,0.90869140625
1631290371636,-0.39508056640625,0.03839111328125,0.911865234375
1631290371636,-0.39385986328125,0.03961181640625,0.90802001953125
1631290371637,-0.39410400390625,0.03814697265625,0.91229248046875
1631290371771,-0.390869140625,0.04034423828125,0.908935546875
1631290371787,-0.39373779296875,0.03924560546875,0.9088134765625
1631290371787,-0.39422607421875,0.03997802734375,0.91009521484375
1631290371891,-0.39300537109375,0.04608154296875,0.90972900390625
1631290371891,-0.39666748046875,0.04254150390625,0.908203125
1631290371892,-0.39422607421875,0.03814697265625,0.91339111328125
1631290371937,-0.3935546875,0.04644775390625,0.906494140625
1631290371937,-0.39605712890625,0.0484619140625,0.90411376953125
1631290371940,-0.39453125,0.0478515625,0.90460205078125
1631290371953,-0.3978271484375,0.0487060546875,0.9036865234375
1631290371953,-0.3939208984375,0.0467529296875,0.9033203125
1631290371953,-0.39630126953125,0.04638671875,0.90765380859375
1631290371986,-0.39471435546875,0.04412841796875,0.90484619140625
1631290371986,-0.394287109375,0.04571533203125,0.903076171875
1631290371987,-0.39599609375,0.04534912109375,0.9036865234375
1631290372074,-0.39263916015625,0.04193115234375,0.90802001953125
1631290372074,-0.392578125,0.04766845703125,0.90826416015625
1631290372074,-0.39501953125,0.0467529296875,0.90826416015625
1631290372124,-0.39447021484375,0.043701171875,0.90753173828125
1631290372125,-0.3880615234375,0.03863525390625,0.908203125
1631290372125,-0.39422607421875,0.04071044921875,0.9114990234375
1631290372142,-0.39447021484375,0.0423583984375,0.90899658203125
1631290372144,-0.39105224609375,0.04058837890625,0.9093017578125
1631290372144,-0.3929443359375,0.042236328125,0.91064453125
1631290372186,-0.38818359375,0.04180908203125,0.910888671875
1631290372186,-0.39385986328125,0.04205322265625,0.91046142578125
1631290372190,-0.392822265625,0.04168701171875,0.9114990234375
1631290372263,-0.39739990234375,0.04296875,0.91302490234375
1631290372263,-0.39111328125,0.042724609375,0.9058837890625
1631290372280,-0.394775390625,0.03375244140625,0.90765380859375
1631290372296,-0.39239501953125,0.03363037109375,0.9036865234375
1631290372296,-0.394775390625,0.03778076171875,0.90191650390625
1631290372322,-0.393798828125,0.040771484375,0.90283203125
1631290372357,-0.388916015625,0.04437255859375,0.906494140625
1631290372359,-0.38763427734375,0.04345703125,0.9041748046875
1631290372374,-0.388916015625,0.0423583984375,0.9112548828125
1631290372457,-0.39031982421875,0.04669189453125,0.910888671875
1631290372457,-0.392333984375,0.037841796875,0.909912109375
1631290372458,-0.38824462890625,0.0467529296875,0.912841796875
1631290372458,-0.3890380859375,0.0364990234375,0.90667724609375
1631290372460,-0.3885498046875,0.04193115234375,0.90972900390625
1631290372460,-0.390869140625,0.04376220703125,0.91064453125
1631290372544,-0.3929443359375,0.03668212890625,0.9073486328125
1631290372544,-0.389892578125,0.0347900390625,0.91156005859375
1631290372544,-0.3895263671875,0.03228759765625,0.9078369140625
1631290372621,-0.39276123046875,0.0411376953125,0.9136962890625
1631290372621,-0.38983154296875,0.03680419921875,0.9129638671875
1631290372622,-0.3919677734375,0.04107666015625,0.911865234375
1631290372691,-0.39129638671875,0.0419921875,0.9117431640625
1631290372692,-0.39337158203125,0.0439453125,0.9097900390625
1631290372692,-0.391845703125,0.0482177734375,0.9083251953125
1631290372740,-0.39453125,0.04888916015625,0.9073486328125
1631290372740,-0.3900146484375,0.04998779296875,0.90362548828125
1631290372740,-0.39501953125,0.0504150390625,0.90771484375
1631290372758,-0.39385986328125,0.04791259765625,0.90130615234375
1631290372758,-0.3951416015625,0.050048828125,0.90692138671875
1631290372758,-0.39202880859375,0.05035400390625,0.904296875
1631290372868,-0.39434814453125,0.0472412109375,0.90728759765625
1631290372869,-0.39617919921875,0.04632568359375,0.906494140625
1631290372871,-0.39208984375,0.0450439453125,0.90966796875
1631290372872,-0.39111328125,0.04461669921875,0.9102783203125
1631290372873,-0.39190673828125,0.0506591796875,0.9068603515625
1631290372878,-0.39227294921875,0.0467529296875,0.906005859375
1631290373016,-0.39166259765625,0.040771484375,0.9078369140625
1631290373016,-0.39276123046875,0.042724609375,0.90850830078125
1631290373016,-0.3897705078125,0.04058837890625,0.91229248046875
1631290373053,-0.39105224609375,0.04217529296875,0.9083251953125
1631290373054,-0.38922119140625,0.04339599609375,0.91021728515625
1631290373054,-0.3896484375,0.0418701171875,0.913818359375
1631290373073,-0.3916015625,0.037841796875,0.9061279296875
1631290373076,-0.38885498046875,0.03985595703125,0.90740966796875
1631290373080,-0.39239501953125,0.04046630859375,0.90936279296875
1631290373117,-0.39434814453125,0.04351806640625,0.90704345703125
1631290373118,-0.39154052734375,0.0438232421875,0.91015625
1631290373118,-0.38787841796875,0.04132080078125,0.9100341796875
1631290373208,-0.3922119140625,0.03277587890625,0.90118408203125
1631290373208,-0.3927001953125,0.03466796875,0.90911865234375
1631290373208,-0.39300537109375,0.0413818359375,0.91143798828125
1631290373242,-0.39263916015625,0.04119873046875,0.90521240234375
1631290373242,-0.3905029296875,0.03717041015625,0.9075927734375
1631290373243,-0.39337158203125,0.03448486328125,0.905517578125
1631290373305,-0.39105224609375,0.04241943359375,0.9063720703125
1631290373305,-0.39044189453125,0.039306640625,0.9078369140625
1631290373305,-0.3896484375,0.0472412109375,0.9091796875
1631290373398,-0.3896484375,0.04193115234375,0.90753173828125
1631290373398,-0.39276123046875,0.04669189453125,0.912109375
1631290373398,-0.3900146484375,0.0418701171875,0.90936279296875
1631290373399,-0.3892822265625,0.0489501953125,0.91253662109375
1631290373399,-0.39215087890625,0.04534912109375,0.90814208984375
1631290373401,-0.393798828125,0.045166015625,0.91082763671875
1631290373477,-0.3895263671875,0.04254150390625,0.91162109375
1631290373477,-0.391357421875,0.0382080078125,0.9117431640625
1631290373477,-0.3905029296875,0.0408935546875,0.91290283203125
1631290373525,-0.39019775390625,0.04669189453125,0.91119384765625
1631290373525,-0.38885498046875,0.04425048828125,0.9117431640625
1631290373527,-0.3865966796875,0.048095703125,0.91253662109375
1631290373624,-0.39276123046875,0.04888916015625,0.910888671875
1631290373624,-0.391357421875,0.0531005859375,0.9097900390625
1631290373625,-0.3876953125,0.049560546875,0.91241455078125
1631290373726,-0.393310546875,0.04803466796875,0.9093017578125
1631290373726,-0.394775390625,0.04443359375,0.90423583984375
1631290373726,-0.39410400390625,0.0472412109375,0.90777587890625
1631290373790,-0.396484375,0.04290771484375,0.9051513671875
1631290373790,-0.396728515625,0.04449462890625,0.906005859375
1631290373791,-0.39410400390625,0.041259765625,0.90338134765625
1631290373837,-0.39276123046875,0.0418701171875,0.9044189453125
1631290373837,-0.39697265625,0.0428466796875,0.90673828125
1631290373838,-0.39581298828125,0.04034423828125,0.90533447265625
1631290373915,-0.39495849609375,0.04364013671875,0.907470703125
1631290373916,-0.39166259765625,0.0423583984375,0.9056396484375
1631290373921,-0.39593505859375,0.0391845703125,0.91094970703125
1631290373978,-0.39141845703125,0.0360107421875,0.9073486328125
1631290373979,-0.3951416015625,0.03240966796875,0.9105224609375
1631290373989,-0.3941650390625,0.0341796875,0.90740966796875
1631290373989,-0.393798828125,0.0350341796875,0.90948486328125
1631290373991,-0.39483642578125,0.03564453125,0.907958984375
1631290373993,-0.39306640625,0.03778076171875,0.9078369140625
1631290374040,-0.40008544921875,0.03521728515625,0.9090576171875
1631290374041,-0.39453125,0.037109375,0.90728759765625
1631290374042,-0.39581298828125,0.037353515625,0.9110107421875
1631290374050,-0.393310546875,0.03704833984375,0.90777587890625
1631290374053,-0.3955078125,0.033935546875,0.90478515625
1631290374058,-0.3935546875,0.039794921875,0.91168212890625
1631290374103,-0.39886474609375,0.03302001953125,0.9010009765625
1631290374103,-0.40203857421875,0.03125,0.9066162109375
1631290374103,-0.3970947265625,0.0281982421875,0.90185546875
1631290374189,-0.39691162109375,0.03955078125,0.9031982421875
1631290374205,-0.39666748046875,0.0394287109375,0.9013671875
1631290374206,-0.3975830078125,0.03582763671875,0.90032958984375
1631290374367,-0.39642333984375,0.0423583984375,0.9071044921875
1631290374367,-0.392822265625,0.04010009765625,0.9085693359375
1631290374367,-0.39434814453125,0.0421142578125,0.9085693359375
1631290374426,-0.39599609375,0.031005859375,0.90863037109375
1631290374426,-0.392578125,0.03033447265625,0.907470703125
1631290374426,-0.396484375,0.035888671875,0.9088134765625
1631290374429,-0.39715576171875,0.03497314453125,0.906494140625
1631290374448,-0.396240234375,0.03497314453125,0.906982421875
1631290374449,-0.3953857421875,0.03765869140625,0.91046142578125
1631290374465,-0.3961181640625,0.0325927734375,0.90753173828125
1631290374466,-0.3992919921875,0.0263671875,0.91009521484375
1631290374477,-0.39471435546875,0.03033447265625,0.9093017578125
1631290374572,-0.39141845703125,0.033447265625,0.9093017578125
1631290374572,-0.3931884765625,0.03326416015625,0.91009521484375
1631290374572,-0.394287109375,0.03729248046875,0.90887451171875
1631290374618,-0.3951416015625,0.03619384765625,0.91082763671875
1631290374618,-0.39447021484375,0.03558349609375,0.90814208984375
1631290374618,-0.39495849609375,0.0335693359375,0.91131591796875
1631290374668,-0.39544677734375,0.03369140625,0.90936279296875
1631290374671,-0.397705078125,0.03399658203125,0.90435791015625
1631290374694,-0.3914794921875,0.03619384765625,0.90240478515625
1631290374698,-0.396728515625,0.03399658203125,0.90447998046875
1631290374704,-0.3961181640625,0.03424072265625,0.904296875
1631290374716,-0.39276123046875,0.03045654296875,0.9013671875
1631290374729,-0.39483642578125,0.0322265625,0.90521240234375
1631290374729,-0.3963623046875,0.0322265625,0.90478515625
1631290374729,-0.39324951171875,0.02825927734375,0.90655517578125
1631290374774,-0.39453125,0.02850341796875,0.90374755859375
1631290374774,-0.3966064453125,0.0262451171875,0.90673828125
1631290374774,-0.400390625,0.03021240234375,0.90625
1631290374939,-0.395263671875,0.02642822265625,0.90533447265625
1631290374940,-0.393310546875,0.0252685546875,0.9080810546875
1631290374940,-0.3984375,0.0260009765625,0.905517578125
1631290375004,-0.39715576171875,0.0223388671875,0.90985107421875
1631290375004,-0.39483642578125,0.02703857421875,0.90924072265625
1631290375004,-0.3963623046875,0.02435302734375,0.9102783203125
1631290375074,-0.39239501953125,0.02642822265625,0.9093017578125
1631290375074,-0.39312744140625,0.02508544921875,0.9107666015625
1631290375075,-0.39190673828125,0.02313232421875,0.9029541015625
1631290375076,-0.39385986328125,0.02288818359375,0.907470703125
1631290375080,-0.3927001953125,0.028076171875,0.9107666015625
