timestamp,ax,ay,az
1629811241489,-0.477386,0.44103,0.744993
1629811241498,-0.47634899999999997,0.43724799999999997,0.747189
1629811241508,-0.47726399999999997,0.439871,0.74664
1629811241517,-0.476715,0.445361,0.74725
1629811241527,-0.476715,0.446093,0.747311
1629811241537,-0.477142,0.444202,0.746518
1629811241546,-0.476837,0.440542,0.745847
1629811241556,-0.477386,0.440115,0.746396
1629811241565,-0.47519,0.43694299999999997,0.747616
1629811241575,-0.47238399999999997,0.435296,0.751825
1629811241585,-0.47207899999999997,0.435235,0.754509
1629811241594,-0.47275,0.438102,0.75579
1629811241604,-0.474153,0.440237,0.756278
1629811241613,-0.475983,0.440664,0.754204
1629811241623,-0.47763,0.439932,0.754143
1629811241633,-0.478606,0.440054,0.75274
1629811241642,-0.479216,0.44029799999999997,0.7521909999999999
1629811241652,-0.479155,0.437126,0.752435
1629811241661,-0.47756899999999997,0.433588,0.751947
1629811241671,-0.476227,0.433222,0.752984
1629811241681,-0.474031,0.433771,0.752374
1629811241690,-0.475861,0.43602799999999997,0.749263
1629811241700,-0.47702,0.437126,0.747372
1629811241709,-0.473238,0.434259,0.7442
1629811241719,-0.4758,0.439322,0.744017
1629811241729,-0.477142,0.448594,0.746274
1629811241738,-0.471957,0.446276,0.745542
1629811241748,-0.466711,0.426634,0.74908
1629811241757,-0.46848,0.425353,0.751337
1629811241767,-0.470371,0.435601,0.7528009999999999
1629811241777,-0.47275,0.446703,0.757315
1629811227938,-0.47177399999999997,0.449387,0.7610359999999999
1629811227947,-0.469334,0.443836,0.760243
1629811227957,-0.469029,0.43968799999999997,0.759633
1629811227967,-0.468663,0.435906,0.75945
1629811227976,-0.46799199999999996,0.435296,0.760975
1629811227986,-0.468419,0.436394,0.759389
1629811227995,-0.468175,0.438651,0.755668
1629811228005,-0.465979,0.439749,0.754997
1629811228015,-0.463539,0.440847,0.75396
1629811228024,-0.463661,0.439566,0.754448
1629811228034,-0.4636,0.43755299999999997,0.752679
1629811228043,-0.461038,0.435601,0.75152
1629811228053,-0.461526,0.436699,0.753167
1629811228063,-0.460306,0.435967,0.7524959999999999
1629811228072,-0.460733,0.435906,0.7555459999999999
1629811228082,-0.458354,0.435052,0.754204
1629811228091,-0.46097699999999997,0.438651,0.751459
1629811228101,-0.46677199999999996,0.440481,0.7442
1629811228111,-0.46848,0.444934,0.747189
1629811228120,-0.46494199999999997,0.439871,0.746579
1629811228130,-0.465674,0.436089,0.749446
1629811228139,-0.465796,0.43511299999999997,0.752435
1629811228149,-0.466406,0.435967,0.753228
1629811228159,-0.464088,0.435967,0.756949
1629811228168,-0.465003,0.434076,0.759633
1629811228178,-0.46787,0.436211,0.758352
1629811228187,-0.47177399999999997,0.439627,0.758108
1629811228197,-0.473787,0.439261,0.759633
1629811228207,-0.473726,0.43676,0.7604259999999999
1629811228216,-0.47116399999999997,0.432978,0.762622
1629811228226,-0.46909,0.430965,0.762622
1629811228235,-0.466406,0.427488,0.765245
1629811228245,-0.463356,0.425963,0.76799
1629811228255,-0.464698,0.425292,0.76799
1629811228264,-0.466345,0.42614599999999997,0.766404
1629811228274,-0.468724,0.429867,0.765245
1629811228283,-0.471347,0.433527,0.762988
1629811228293,-0.47421399999999997,0.435906,0.763232
1629811228303,-0.475983,0.437065,0.762744
1629811228312,-0.478911,0.436455,0.759877
1629811228322,-0.47909399999999996,0.435784,0.753899
1629811228331,-0.481778,0.436821,0.752252
1629811228341,-0.481839,0.437309,0.752862
1629811228351,-0.47787399999999997,0.429623,0.746396
1629811228360,-0.48007,0.435662,0.740784
1629811228370,-0.482205,0.446764,0.743041
1629811228379,-0.476227,0.439871,0.744444
1629811228389,-0.473543,0.424377,0.750178
1629811228399,-0.47458,0.429989,0.750727
1629811228408,-0.47519,0.43907799999999997,0.7521909999999999
1629811228418,-0.472567,0.442677,0.754265
1629811228427,-0.468053,0.43981,0.755302
1629811228437,-0.46799199999999996,0.435845,0.7576809999999999
1629811228447,-0.46421,0.433649,0.755058
1629811228456,-0.463844,0.4331,0.7610359999999999
1629811228466,-0.46372199999999997,0.43554,0.76677
1629811228475,-0.46616199999999997,0.434564,0.765855
1629811228485,-0.46646699999999996,0.432856,0.767563
1629811228495,-0.462929,0.429013,0.768173
1629811228504,-0.460794,0.424682,0.771711
1629811228514,-0.46097699999999997,0.429074,0.775676
1629811228523,-0.466894,0.437492,0.775188
1629811228533,-0.480436,0.448228,0.764818
1629811228543,-0.493734,0.456341,0.762012
1629811228552,-0.500932,0.458171,0.760975
1629811228562,-0.501969,0.448106,0.759633
1629811228571,-0.49885799999999997,0.437309,0.760365
1629811228581,-0.497882,0.437797,0.758718
1629811228591,-0.502213,0.4392,0.752374
1629811228600,-0.508313,0.443165,0.739381
1629811228610,-0.517097,0.44773999999999997,0.727974
1629811228619,-0.528992,0.457134,0.712724
1629811228629,-0.537898,0.46524699999999997,0.696437
1629811228639,-0.5477799999999999,0.47153,0.677039
1629811228648,-0.560651,0.476532,0.651358
1629811228658,-0.569801,0.47824,0.6359859999999999
1629811228667,-0.573888,0.475068,0.621712
1629811228677,-0.582184,0.477508,0.607621
1629811228687,-0.5885279999999999,0.482266,0.593835
1629811228696,-0.593042,0.486597,0.58621
1629811228706,-0.597312,0.48989099999999997,0.5854779999999999
1629811228715,-0.601582,0.49349,0.581025
1629811228725,-0.605974,0.496296,0.569557
1629811228735,-0.613965,0.496845,0.557601
1629811228744,-0.616039,0.496479,0.559553
1629811228754,-0.619394,0.49977299999999997,0.559858
1629811228763,-0.624274,0.505568,0.553453
1629811228773,-0.630862,0.515267,0.550769
1629811228783,-0.633668,0.5197809999999999,0.546987
1629811228792,-0.6365959999999999,0.520513,0.540643
1629811228802,-0.639219,0.517585,0.528687
1629811228811,-0.6408659999999999,0.516914,0.5170359999999999
1629811228821,-0.6420859999999999,0.518805,0.510692
1629811228831,-0.643733,0.5179509999999999,0.5164259999999999
1629811228840,-0.636413,0.518195,0.525393
1629811228850,-0.633119,0.51972,0.532469
1629811228859,-0.640744,0.534726,0.540826
1629811228869,-0.638609,0.53436,0.552111
1629811228879,-0.634644,0.528809,0.560712
1629811228888,-0.633607,0.530273,0.550342
1629811228898,-0.636779,0.544852,0.536129
1629811228907,-0.6341559999999999,0.549976,0.527894
1629811228917,-0.634888,0.552294,0.523014
1629811228927,-0.6341559999999999,0.554063,0.524478
1629811228936,-0.634034,0.554673,0.533567
1629811228946,-0.634095,0.555771,0.543388
1629811228955,-0.629825,0.558028,0.554673
1629811228965,-0.627385,0.559065,0.562786
1629811228975,-0.625433,0.5602239999999999,0.560773
1629811228984,-0.625982,0.562908,0.553026
1629811228994,-0.627934,0.565531,0.540582
1629811229003,-0.631106,0.559675,0.519232
1629811229013,-0.633973,0.548329,0.505446
1629811229023,-0.633912,0.540704,0.502762
1629811229032,-0.63257,0.534665,0.49959
1629811229042,-0.632692,0.534482,0.504836
1629811229051,-0.6323259999999999,0.5361899999999999,0.512583
1629811229061,-0.637755,0.543937,0.515389
1629811229071,-0.642452,0.547597,0.518439
1629811229080,-0.648674,0.549793,0.5176459999999999
1629811229090,-0.651175,0.544242,0.5124
1629811229099,-0.651724,0.536007,0.503189
1629811229109,-0.652456,0.52582,0.491843
1629811229119,-0.656848,0.528077,0.473177
1629811229128,-0.659471,0.531371,0.470615
1629811229138,-0.659898,0.530273,0.473787
1629811229147,-0.661118,0.535031,0.481534
1629811229157,-0.662948,0.535946,0.48989099999999997
1629811229167,-0.665083,0.537044,0.495747
1629811229176,-0.6652049999999999,0.539118,0.502091
1629811229186,-0.663802,0.536129,0.507398
1629811229195,-0.659532,0.533018,0.513315
1629811229205,-0.6578849999999999,0.53192,0.515755
1629811229215,-0.6584949999999999,0.525515,0.514779
1629811229224,-0.658251,0.5173409999999999,0.508374
1629811229234,-0.659349,0.5179509999999999,0.501054
1629811229243,-0.660996,0.527833,0.49885799999999997
1629811229253,-0.658861,0.538386,0.499041
1629811229263,-0.657763,0.544913,0.499407
1629811229272,-0.658434,0.544547,0.499834
1629811229282,-0.656421,0.534604,0.505812
1629811229291,-0.655567,0.532896,0.512583
1629811229301,-0.653493,0.5307,0.51545
1629811229311,-0.654164,0.5231359999999999,0.521367
1629811229320,-0.649528,0.51789,0.533689
1629811229330,-0.64477,0.512583,0.533262
1629811229339,-0.655811,0.528138,0.528809
1629811229349,-0.6648999999999999,0.538874,0.528138
1629811229359,-0.673135,0.533994,0.523929
1629811229368,-0.676368,0.532164,0.524783
1629811229378,-0.681797,0.529785,0.528321
1629811229387,-0.6800889999999999,0.517707,0.528077
1629811229397,-0.681126,0.50996,0.521245
1629811229407,-0.681126,0.507581,0.511607
1629811229416,-0.686372,0.509594,0.49715
1629811229426,-0.690703,0.519049,0.479155
1629811229435,-0.694485,0.530639,0.461343
1629811229445,-0.695949,0.536861,0.443592
1629811229455,-0.697291,0.539057,0.433405
1629811229464,-0.693082,0.539667,0.427122
1629811229474,-0.6861889999999999,0.5386299999999999,0.43133099999999996
1629811229483,-0.676978,0.532103,0.456768
1629811229493,-0.668621,0.527711,0.49166
1629811229503,-0.658922,0.527894,0.517524
1629811229512,-0.650748,0.52887,0.529114
1629811229522,-0.65026,0.526369,0.527772
1629811229531,-0.651663,0.523258,0.524722
1629811229541,-0.650443,0.518317,0.5246
1629811229551,-0.649955,0.51362,0.524417
1629811229560,-0.648979,0.5124,0.528199
1629811229570,-0.651297,0.511973,0.528077
1629811229579,-0.652822,0.507093,0.52826
1629811229589,-0.6584949999999999,0.507337,0.532103
1629811229599,-0.663253,0.50874,0.536434
1629811229608,-0.665022,0.508374,0.5380199999999999
1629811229618,-0.667889,0.507825,0.536739
1629811229627,-0.671671,0.512034,0.533689
1629811229637,-0.675392,0.514108,0.532286
1629811229647,-0.678198,0.516304,0.529358
1629811229656,-0.6800889999999999,0.519964,0.524722
1629811229666,-0.68076,0.524966,0.5203909999999999
1629811229675,-0.679235,0.526918,0.515572
1629811229685,-0.677344,0.524844,0.50874
1629811229695,-0.673013,0.5200859999999999,0.503982
1629811229704,-0.668804,0.516792,0.502945
1629811229714,-0.664107,0.514657,0.506788
1629811229723,-0.659837,0.512949,0.508496
1629811229733,-0.6587999999999999,0.515755,0.506605
1629811229743,-0.657336,0.519964,0.502762
1629811229752,-0.659166,0.526308,0.499102
1629811229762,-0.658556,0.532164,0.498004
1629811229771,-0.655872,0.534238,0.502945
1629811229781,-0.652761,0.53131,0.509655
1629811229791,-0.64782,0.526125,0.517524
1629811229800,-0.645014,0.523502,0.528199
1629811229810,-0.641964,0.5197809999999999,0.533811
1629811229819,-0.646112,0.529358,0.536312
1629811229829,-0.647088,0.534665,0.542656
1629811229839,-0.64477,0.528016,0.5477799999999999
1629811229848,-0.642818,0.516365,0.55022
1629811229858,-0.646722,0.51728,0.548939
1629811229867,-0.648674,0.518073,0.550525
1629811229877,-0.649101,0.519415,0.550464
1629811229887,-0.646661,0.5176459999999999,0.5465599999999999
1629811229896,-0.648308,0.516609,0.5441199999999999
1629811229906,-0.651663,0.515633,0.5422899999999999
1629811229915,-0.652761,0.517097,0.543022
1629811229925,-0.652639,0.521367,0.544303
1629811229935,-0.652883,0.523502,0.5441199999999999
1629811229944,-0.655201,0.525088,0.543571
1629811229954,-0.654835,0.526979,0.5416799999999999
1629811229963,-0.653981,0.525454,0.535275
1629811229973,-0.654103,0.52216,0.526918
1629811229983,-0.65392,0.518622,0.517829
1629811229992,-0.652578,0.517707,0.513193
1629811230002,-0.651053,0.5231359999999999,0.513437
1629811230011,-0.648552,0.530456,0.520574
1629811230021,-0.643672,0.5380199999999999,0.530456
1629811230031,-0.638365,0.546011,0.5364949999999999
1629811230040,-0.634278,0.552111,0.5389349999999999
1629811230050,-0.63135,0.558333,0.5401549999999999
1629811230059,-0.628666,0.56486,0.533445
1629811230069,-0.625311,0.560346,0.528748
1629811230079,-0.622078,0.55754,0.524295
1629811230088,-0.613904,0.55327,0.520757
1629811230098,-0.607743,0.545523,0.519598
1629811230107,-0.603961,0.536922,0.517097
1629811230117,-0.601521,0.52826,0.515389
1629811230127,-0.601094,0.523502,0.521245
1629811230136,-0.603168,0.525881,0.532103
1629811230146,-0.607072,0.531371,0.541253
1629811230155,-0.611708,0.532896,0.5480849999999999
1629811230165,-0.61549,0.536251,0.550525
1629811230175,-0.618723,0.537044,0.5477799999999999
1629811230184,-0.624701,0.542107,0.537898
1629811230194,-0.629947,0.5453399999999999,0.527162
1629811230203,-0.633058,0.545218,0.527101
1629811230213,-0.635132,0.539911,0.530151
1629811230223,-0.636474,0.537593,0.532957
1629811230232,-0.6381209999999999,0.533201,0.533018
1629811230242,-0.641659,0.530395,0.538264
1629811230251,-0.642147,0.531493,0.544913
1629811230261,-0.642757,0.528504,0.549244
1629811230271,-0.6445259999999999,0.526308,0.549366
1629811230280,-0.648918,0.52399,0.549976
1629811230290,-0.64538,0.516609,0.550159
1629811230299,-0.643245,0.51484,0.5477799999999999
1629811230309,-0.642818,0.5179509999999999,0.551684
1629811230319,-0.638243,0.51972,0.556442
1629811230328,-0.631594,0.509716,0.5638839999999999
1629811230338,-0.629032,0.503067,0.575169
1629811230347,-0.629764,0.505568,0.585539
1629811230357,-0.630313,0.508496,0.593286
1629811230367,-0.632204,0.516792,0.598654
1629811230376,-0.633302,0.515694,0.593652
1629811230386,-0.63501,0.513559,0.592127
1629811230395,-0.63867,0.524722,0.584441
1629811230405,-0.634827,0.522038,0.571448
1629811230415,-0.6347659999999999,0.5170359999999999,0.564006
1629811230424,-0.640988,0.514535,0.557418
1629811230434,-0.644404,0.5155109999999999,0.539484
1629811230443,-0.647088,0.5173409999999999,0.507703
1629811230453,-0.649467,0.519232,0.479643
1629811230463,-0.647454,0.524722,0.472018
1629811230472,-0.64355,0.530822,0.473116
1629811230482,-0.6402559999999999,0.539484,0.479582
1629811230491,-0.63867,0.545828,0.49080599999999996
1629811230501,-0.6399509999999999,0.550525,0.501237
1629811230511,-0.6436109999999999,0.55449,0.50447
1629811230520,-0.641842,0.55632,0.495991
1629811230530,-0.6384259999999999,0.556625,0.482998
1629811230539,-0.635559,0.562725,0.475007
1629811230549,-0.639768,0.571143,0.477142
1629811230559,-0.64416,0.574681,0.491233
1629811230568,-0.645868,0.572363,0.510387
1629811230578,-0.646173,0.563213,0.528992
1629811230587,-0.645075,0.550281,0.544608
1629811230597,-0.642635,0.532469,0.558638
1629811230607,-0.641232,0.513437,0.5651039999999999
1629811230616,-0.641232,0.498309,0.564006
1629811230626,-0.642513,0.488915,0.564006
1629811230635,-0.647515,0.486109,0.557113
1629811230645,-0.654957,0.48867099999999997,0.5468649999999999
1629811230655,-0.6606299999999999,0.48983,0.545706
1629811230664,-0.665144,0.49471,0.540399
1629811230674,-0.671976,0.501969,0.533445
1629811230683,-0.676185,0.508374,0.527711
1629811230693,-0.679601,0.512888,0.523868
1629811230703,-0.683322,0.518073,0.5197809999999999
1629811230712,-0.685823,0.5213059999999999,0.5145959999999999
1629811230722,-0.689727,0.525942,0.510265
1629811230731,-0.69113,0.530151,0.503311
1629811230741,-0.692045,0.531188,0.49324599999999996
1629811230751,-0.690093,0.529236,0.488
1629811230760,-0.685457,0.530822,0.48531599999999997
1629811230770,-0.683993,0.533018,0.482632
1629811230779,-0.674599,0.530212,0.483242
1629811230789,-0.661728,0.524112,0.480741
1629811230799,-0.6624599999999999,0.531676,0.488244
1629811230808,-0.664168,0.537837,0.49977299999999997
1629811230818,-0.665327,0.532896,0.502396
1629811230827,-0.664351,0.530517,0.497516
1629811230837,-0.667889,0.535519,0.490928
1629811230847,-0.661057,0.532835,0.488488
1629811230856,-0.657763,0.523014,0.48312
1629811230866,-0.654591,0.520025,0.48440099999999997
1629811230875,-0.654286,0.517768,0.487634
1629811230885,-0.654408,0.517097,0.49172099999999996
1629811230895,-0.659227,0.523014,0.49519799999999997
1629811230904,-0.662582,0.526735,0.493673
1629811230914,-0.6673399999999999,0.528382,0.481778
1629811230923,-0.670146,0.529724,0.475007
1629811230933,-0.6700849999999999,0.52948,0.473726
1629811230943,-0.670756,0.530151,0.47756899999999997
1629811230952,-0.669841,0.536983,0.484767
1629811230962,-0.673379,0.546926,0.489647
1629811230971,-0.676124,0.556808,0.49471
1629811230981,-0.677344,0.562481,0.496662
1629811230991,-0.676063,0.560468,0.492514
1629811231000,-0.671,0.556381,0.48531599999999997
1629811231010,-0.667218,0.552233,0.480192
1629811231019,-0.668011,0.553453,0.47458
1629811231029,-0.667157,0.549305,0.47275
1629811231039,-0.666608,0.542656,0.470127
1629811231048,-0.668072,0.543388,0.467504
1629811231058,-0.67161,0.552904,0.46909
1629811231067,-0.671793,0.558943,0.474458
1629811231077,-0.672769,0.563701,0.479582
1629811231087,-0.674355,0.557479,0.47763
1629811231096,-0.680028,0.562603,0.481778
1629811231106,-0.676307,0.555344,0.478118
1629811231115,-0.675331,0.548817,0.475373
1629811231125,-0.673684,0.550281,0.469883
1629811231135,-0.674294,0.550952,0.463844
1629811231144,-0.674233,0.549488,0.460245
1629811231154,-0.676124,0.548268,0.461953
1629811231163,-0.67466,0.545401,0.463905
1629811231173,-0.672464,0.5428999999999999,0.46890699999999996
1629811231183,-0.670512,0.5459499999999999,0.472201
1629811231192,-0.671183,0.555649,0.477691
1629811231202,-0.672525,0.5626639999999999,0.48623099999999997
1629811231211,-0.672891,0.563396,0.490257
1629811231221,-0.673257,0.5623589999999999,0.49324599999999996
1629811231231,-0.671,0.56181,0.495686
1629811231240,-0.666181,0.558516,0.49458799999999997
1629811231250,-0.664412,0.55571,0.491904
1629811231259,-0.6600199999999999,0.555283,0.490623
1629811231269,-0.647759,0.5456449999999999,0.48287599999999997
1629811231279,-0.6572749999999999,0.553392,0.471896
1629811231288,-0.662399,0.559919,0.476776
1629811231298,-0.663497,0.55571,0.47878899999999996
1629811231307,-0.660264,0.552355,0.47299399999999997
1629811231317,-0.6606299999999999,0.55815,0.470554
1629811231327,-0.655689,0.561078,0.477081
1629811231336,-0.652212,0.560041,0.486902
1629811231346,-0.648491,0.557296,0.49654
1629811231355,-0.646051,0.554002,0.505629
1629811231365,-0.649833,0.553697,0.510814
1629811231375,-0.653432,0.556442,0.514047
1629811231384,-0.654957,0.557845,0.512278
1629811231394,-0.656726,0.557418,0.508313
1629811231403,-0.658312,0.557723,0.503433
1629811231413,-0.657336,0.556564,0.5002
1629811231423,-0.655384,0.557906,0.499224
1629811231432,-0.652761,0.561383,0.500444
1629811231442,-0.650443,0.56364,0.5002
1629811231451,-0.647332,0.56242,0.498614
1629811231461,-0.645258,0.560041,0.49885799999999997
1629811231471,-0.641537,0.55998,0.503067
1629811231480,-0.638548,0.557723,0.498492
1629811231490,-0.635254,0.550769,0.49050099999999996
1629811231499,-0.637023,0.548512,0.485133
1629811231509,-0.637145,0.545584,0.479643
1629811231519,-0.638243,0.540704,0.474946
1629811231528,-0.638792,0.544303,0.476166
1629811231538,-0.6396459999999999,0.553087,0.482815
1629811231547,-0.6414759999999999,0.558333,0.492697
1629811231557,-0.640927,0.557662,0.500139
1629811231567,-0.640805,0.556625,0.504104
1629811231576,-0.640012,0.557784,0.505995
1629811231586,-0.6390359999999999,0.557723,0.507398
1629811231595,-0.6365959999999999,0.554856,0.509411
1629811231605,-0.6344609999999999,0.549793,0.506788
1629811231615,-0.63379,0.546316,0.502823
1629811231624,-0.635559,0.543876,0.501481
1629811231634,-0.6381209999999999,0.546194,0.50264
1629811231643,-0.640927,0.551196,0.505202
1629811231653,-0.643855,0.552721,0.50752
1629811231663,-0.647149,0.554307,0.508496
1629811231672,-0.649955,0.554368,0.507215
1629811231682,-0.652029,0.554368,0.505446
1629811231691,-0.651785,0.552965,0.503555
1629811231701,-0.651724,0.549122,0.501176
1629811231711,-0.651907,0.547658,0.496662
1629811231720,-0.650809,0.5419849999999999,0.49019599999999997
1629811231730,-0.651358,0.539179,0.489037
1629811231739,-0.652029,0.542717,0.496845
1629811231749,-0.648857,0.542473,0.503921
1629811231759,-0.650504,0.5480849999999999,0.507764
1629811231768,-0.65331,0.557174,0.516914
1629811231778,-0.650626,0.55632,0.523319
1629811231787,-0.647332,0.553758,0.522099
1629811231797,-0.649955,0.562786,0.518317
1629811231807,-0.648247,0.569008,0.515389
1629811231816,-0.6433059999999999,0.565226,0.512278
1629811231826,-0.639524,0.561688,0.512888
1629811231835,-0.636413,0.558028,0.5164259999999999
1629811231845,-0.632997,0.550403,0.5185
1629811231855,-0.631472,0.546316,0.524783
1629811231864,-0.628849,0.542717,0.530639
1629811231874,-0.627873,0.542412,0.53131
1629811231883,-0.628361,0.542473,0.53253
1629811231893,-0.62952,0.546194,0.533201
1629811231903,-0.63379,0.553026,0.530334
1629811231912,-0.63806,0.556015,0.522648
1629811231922,-0.636474,0.555405,0.521489
1629811231931,-0.636413,0.553636,0.519232
1629811231941,-0.635559,0.550708,0.518622
1629811231951,-0.635254,0.546499,0.520452
1629811231960,-0.6332409999999999,0.545706,0.52094
1629811231970,-0.6338509999999999,0.546743,0.5167309999999999
1629811231979,-0.6369009999999999,0.5471699999999999,0.511302
1629811231989,-0.637267,0.543876,0.511241
1629811231999,-0.63501,0.542412,0.515084
1629811232008,-0.63562,0.540582,0.5145959999999999
1629811232018,-0.638609,0.541314,0.514413
1629811232027,-0.642513,0.541314,0.513559
1629811232037,-0.636352,0.534909,0.516365
1629811232047,-0.63379,0.527162,0.521794
1629811232056,-0.630618,0.522465,0.532652
1629811232066,-0.631228,0.524295,0.539728
1629811232075,-0.630984,0.526552,0.5453399999999999
1629811232085,-0.632997,0.527528,0.553575
1629811232095,-0.631533,0.52521,0.554795
1629811232104,-0.638914,0.522648,0.553636
1629811232114,-0.649833,0.528443,0.549854
1629811232123,-0.646173,0.528016,0.535946
1629811232133,-0.647332,0.525515,0.52521
1629811232143,-0.655994,0.527528,0.515755
1629811232152,-0.6572749999999999,0.527589,0.507825
1629811232162,-0.651785,0.519354,0.503128
1629811232171,-0.648064,0.517402,0.504104
1629811232181,-0.645624,0.511241,0.514047
1629811232191,-0.64904,0.51301,0.522282
1629811232200,-0.651846,0.532164,0.530029
1629811232210,-0.642513,0.529114,0.526552
1629811232219,-0.642574,0.527406,0.527284
1629811232229,-0.641049,0.519049,0.524966
1629811232239,-0.648308,0.520879,0.517097
1629811232248,-0.653249,0.529724,0.507154
1629811232258,-0.652822,0.537044,0.49977299999999997
1629811232267,-0.650016,0.534482,0.507276
1629811232277,-0.651358,0.535702,0.517158
1629811232287,-0.651663,0.5364949999999999,0.523868
1629811232296,-0.653188,0.536007,0.534055
1629811232306,-0.652822,0.537532,0.542168
1629811232315,-0.652334,0.537898,0.547292
1629811232325,-0.651175,0.530639,0.549488
1629811232335,-0.652456,0.528565,0.549
1629811232344,-0.65148,0.523929,0.550769
1629811232354,-0.651968,0.52033,0.547902
1629811232363,-0.652395,0.519232,0.541497
1629811232373,-0.651053,0.516609,0.533018
1629811232383,-0.653554,0.5176459999999999,0.5161209999999999
1629811232392,-0.6581899999999999,0.530822,0.506117
1629811232402,-0.6591049999999999,0.538813,0.505019
1629811232411,-0.6621549999999999,0.541314,0.504592
1629811232421,-0.664534,0.538264,0.505934
1629811232431,-0.662521,0.529541,0.507642
1629811232440,-0.659776,0.5206959999999999,0.508801
1629811232450,-0.6587999999999999,0.515328,0.510936
1629811232459,-0.656787,0.513498,0.510509
1629811232469,-0.658129,0.517768,0.515572
1629811232479,-0.6603249999999999,0.52399,0.519903
1629811232488,-0.6606299999999999,0.5246,0.521123
1629811232498,-0.659837,0.522282,0.527162
1629811232507,-0.6575799999999999,0.519537,0.528565
1629811232517,-0.655018,0.515633,0.525698
1629811232527,-0.654957,0.510753,0.5240509999999999
1629811232536,-0.655933,0.506483,0.5231359999999999
1629811232546,-0.654835,0.502762,0.522892
1629811232555,-0.655994,0.499041,0.523807
1629811232565,-0.659166,0.502091,0.521489
1629811232575,-0.661057,0.509472,0.519659
1629811232584,-0.6624599999999999,0.518073,0.522282
1629811232594,-0.662948,0.521245,0.5234409999999999
1629811232603,-0.662887,0.524783,0.523502
1629811232613,-0.662948,0.52948,0.525942
1629811232623,-0.661057,0.530944,0.528626
1629811232632,-0.658922,0.526552,0.533079
1629811232642,-0.656299,0.524722,0.533872
1629811232651,-0.656177,0.521977,0.535153
1629811232661,-0.658556,0.521062,0.530456
1629811232671,-0.660447,0.525576,0.523014
1629811232680,-0.662704,0.534116,0.517829
1629811232690,-0.665327,0.542717,0.516304
1629811232699,-0.666791,0.547536,0.5139859999999999
1629811232709,-0.662399,0.545218,0.512644
1629811232719,-0.655079,0.532957,0.508252
1629811232728,-0.652822,0.522282,0.504836
1629811232738,-0.651724,0.517158,0.50447
1629811232747,-0.652883,0.511668,0.502579
1629811232757,-0.653859,0.510326,0.506056
1629811232767,-0.6594099999999999,0.518073,0.505507
1629811232776,-0.6679499999999999,0.532713,0.505324
1629811232786,-0.674843,0.547048,0.502152
1629811232795,-0.678381,0.55693,0.495991
1629811232805,-0.678259,0.561871,0.48623099999999997
1629811232815,-0.676978,0.560956,0.472811
1629811232824,-0.67161,0.557052,0.46189199999999997
1629811232834,-0.666852,0.55022,0.45872
1629811232843,-0.6609349999999999,0.548451,0.464454
1629811232853,-0.654347,0.551562,0.476471
1629811232863,-0.651297,0.555954,0.488244
1629811232872,-0.648308,0.557479,0.498736
1629811232882,-0.645868,0.554795,0.509167
1629811232891,-0.645258,0.550403,0.515755
1629811232901,-0.6454409999999999,0.547292,0.518683
1629811232911,-0.64843,0.548268,0.51667
1629811232920,-0.65148,0.55144,0.515267
1629811232930,-0.653981,0.554612,0.510936
1629811232939,-0.650016,0.553941,0.50508
1629811232949,-0.647881,0.552782,0.498492
1629811232959,-0.647881,0.548573,0.49855299999999997
1629811232968,-0.648003,0.543937,0.500444
1629811232978,-0.645502,0.535397,0.50264
1629811232987,-0.646356,0.53192,0.502274
1629811232997,-0.648552,0.534299,0.49977299999999997
1629811233007,-0.651541,0.5386299999999999,0.495686
1629811233016,-0.652273,0.542778,0.487085
1629811233026,-0.653859,0.545767,0.482327
1629811233035,-0.655933,0.541741,0.482388
1629811233045,-0.6557499999999999,0.533872,0.48257099999999997
1629811233055,-0.656421,0.530822,0.48129
1629811233064,-0.656848,0.532591,0.48031399999999996
1629811233074,-0.658373,0.537837,0.48031399999999996
1629811233083,-0.660691,0.541497,0.483547
1629811233093,-0.661789,0.542107,0.489342
1629811233103,-0.664107,0.542778,0.494771
1629811233112,-0.6624599999999999,0.543937,0.501786
1629811233122,-0.663314,0.544059,0.507642
1629811233131,-0.663192,0.544852,0.513742
1629811233141,-0.663497,0.543632,0.515633
1629811233151,-0.663863,0.539301,0.5149009999999999
1629811233160,-0.662643,0.5380199999999999,0.515572
1629811233170,-0.661972,0.5392399999999999,0.517524
1629811233179,-0.662094,0.544608,0.51911
1629811233189,-0.663741,0.552904,0.519232
1629811233199,-0.661972,0.554612,0.517768
1629811233208,-0.652273,0.551562,0.513437
1629811233218,-0.65026,0.559004,0.513437
1629811233227,-0.655628,0.56669,0.521245
1629811233237,-0.655079,0.559553,0.527955
1629811233247,-0.648308,0.553026,0.530334
1629811233256,-0.646661,0.553148,0.52704
1629811233266,-0.642635,0.548634,0.521489
1629811233275,-0.638365,0.5471699999999999,0.5173409999999999
1629811233285,-0.635742,0.544974,0.512339
1629811233295,-0.6332409999999999,0.543266,0.511546
1629811233304,-0.6344609999999999,0.5453399999999999,0.512583
1629811233314,-0.638365,0.551379,0.515328
1629811233323,-0.639829,0.553941,0.518439
1629811233333,-0.641659,0.554917,0.515023
1629811233343,-0.643977,0.554612,0.509106
1629811233352,-0.642818,0.551684,0.506422
1629811233362,-0.641354,0.546682,0.504348
1629811233371,-0.6423909999999999,0.541619,0.499651
1629811233381,-0.645014,0.5395449999999999,0.496662
1629811233391,-0.646966,0.535824,0.496052
1629811233400,-0.646478,0.53253,0.491782
1629811233410,-0.646417,0.532469,0.49324599999999996
1629811233419,-0.6454409999999999,0.534726,0.49519799999999997
1629811233429,-0.642757,0.537471,0.493063
1629811233439,-0.643855,0.541863,0.49654
1629811233448,-0.64355,0.541924,0.502335
1629811233458,-0.642513,0.539118,0.507032
1629811233467,-0.64233,0.5441199999999999,0.512888
1629811233477,-0.642818,0.550342,0.515328
1629811233487,-0.64172,0.55083,0.5179509999999999
1629811233496,-0.639402,0.552172,0.520513
1629811233506,-0.63806,0.552233,0.5210009999999999
1629811233515,-0.6390359999999999,0.549854,0.5213059999999999
1629811233525,-0.6372059999999999,0.547231,0.52094
1629811233535,-0.636413,0.544242,0.518134
1629811233544,-0.637938,0.542473,0.5139859999999999
1629811233554,-0.639402,0.538691,0.510265
1629811233563,-0.6402559999999999,0.5374099999999999,0.508679
1629811233573,-0.6457459999999999,0.540521,0.510692
1629811233583,-0.647454,0.543266,0.513132
1629811233592,-0.650626,0.5471699999999999,0.513925
1629811233602,-0.653066,0.548634,0.51667
1629811233611,-0.655994,0.550464,0.518012
1629811233621,-0.6587999999999999,0.553453,0.5194759999999999
1629811233631,-0.659349,0.552721,0.520269
1629811233640,-0.6606299999999999,0.548817,0.516548
1629811233650,-0.6624599999999999,0.549366,0.51118
1629811233659,-0.6624599999999999,0.550586,0.503799
1629811233669,-0.663436,0.547414,0.49519799999999997
1629811233679,-0.666303,0.5462549999999999,0.490989
1629811233688,-0.6557499999999999,0.5477799999999999,0.490318
1629811233698,-0.661362,0.556686,0.49019599999999997
1629811233707,-0.67039,0.559065,0.501115
1629811233717,-0.669963,0.552599,0.507276
1629811233727,-0.659898,0.549,0.5130709999999999
1629811233736,-0.659593,0.556015,0.513803
1629811233746,-0.6572749999999999,0.558455,0.512156
1629811233755,-0.653737,0.553148,0.506361
1629811233765,-0.650016,0.548451,0.500261
1629811233775,-0.650382,0.549366,0.49471
1629811233784,-0.64904,0.551867,0.492209
1629811233794,-0.650992,0.55266,0.491599
1629811233803,-0.647881,0.551501,0.49294099999999996
1629811233813,-0.645014,0.549122,0.49580799999999997
1629811233823,-0.640988,0.545889,0.498065
1629811233832,-0.638548,0.542473,0.500749
1629811233842,-0.636108,0.538996,0.502884
1629811233851,-0.6347659999999999,0.537532,0.501969
1629811233861,-0.634827,0.535031,0.502457
1629811233871,-0.634034,0.53558,0.501542
1629811233880,-0.63745,0.535031,0.499346
1629811233890,-0.6387309999999999,0.535702,0.500627
1629811233899,-0.640073,0.53558,0.50325
1629811233909,-0.63806,0.536983,0.502213
1629811233919,-0.643367,0.5383249999999999,0.501664
1629811233928,-0.650016,0.541192,0.50386
1629811233938,-0.651175,0.5374099999999999,0.504958
1629811233947,-0.653188,0.539423,0.507642
1629811233957,-0.657092,0.542534,0.510204
1629811233967,-0.662887,0.544242,0.510326
1629811233976,-0.667462,0.545401,0.510082
1629811233986,-0.670024,0.551379,0.508618
1629811233995,-0.671915,0.55693,0.504958
1629811234005,-0.671915,0.56242,0.502823
1629811234015,-0.668072,0.5638839999999999,0.500932
1629811234024,-0.661118,0.559309,0.500627
1629811234034,-0.654347,0.549976,0.499041
1629811234043,-0.647271,0.542534,0.501603
1629811234053,-0.6423909999999999,0.535885,0.507764
1629811234063,-0.639524,0.532591,0.514047
1629811234072,-0.63867,0.53192,0.517097
1629811234082,-0.637084,0.533628,0.519964
1629811234091,-0.63867,0.535275,0.521245
1629811234101,-0.641415,0.539057,0.5203909999999999
1629811234111,-0.6445259999999999,0.5398499999999999,0.520208
1629811234120,-0.648613,0.540338,0.520208
1629811234130,-0.652456,0.5404599999999999,0.520818
1629811234139,-0.654286,0.541009,0.525637
1629811234149,-0.655567,0.5395449999999999,0.527833
1629811234159,-0.657031,0.539179,0.529968
1629811234168,-0.654713,0.5389349999999999,0.531737
1629811234178,-0.657641,0.548146,0.532774
1629811234187,-0.659044,0.555649,0.533018
1629811234197,-0.656482,0.548634,0.53314
1629811234207,-0.649833,0.541619,0.530944
1629811234216,-0.650077,0.546438,0.527894
1629811234226,-0.648491,0.550769,0.525271
1629811234235,-0.641598,0.547963,0.523014
1629811234245,-0.633973,0.539118,0.5194759999999999
1629811234255,-0.62952,0.534604,0.517585
1629811234264,-0.626714,0.531981,0.51423
1629811234274,-0.626165,0.530578,0.51423
1629811234283,-0.625555,0.53009,0.513254
1629811234293,-0.625067,0.529602,0.514352
1629811234303,-0.627629,0.530944,0.514413
1629811234312,-0.630191,0.534543,0.5142909999999999
1629811234322,-0.631472,0.537349,0.513742
1629811234331,-0.632997,0.5377149999999999,0.51362
1629811234341,-0.634278,0.537837,0.514718
1629811234351,-0.635132,0.537654,0.515267
1629811234360,-0.634339,0.536617,0.515328
1629811234370,-0.6359859999999999,0.535458,0.516853
1629811234379,-0.637694,0.535092,0.5176459999999999
1629811234389,-0.636352,0.533567,0.517768
1629811234399,-0.63806,0.534848,0.515877
1629811234408,-0.640317,0.538142,0.516975
1629811234418,-0.643367,0.539301,0.514535
1629811234427,-0.6457459999999999,0.537898,0.513498
1629811234437,-0.648064,0.536434,0.513498
1629811234447,-0.65026,0.538691,0.5149009999999999
1629811234456,-0.652456,0.539118,0.516975
1629811234466,-0.654408,0.538996,0.5185
1629811234475,-0.6569699999999999,0.539118,0.5210009999999999
1629811234485,-0.658251,0.540216,0.522709
1629811234495,-0.659837,0.540521,0.525454
1629811234504,-0.6624599999999999,0.541314,0.52765
1629811234514,-0.6624599999999999,0.540826,0.530517
1629811234523,-0.661911,0.5404599999999999,0.531371
1629811234533,-0.661667,0.540216,0.530944
1629811234543,-0.661728,0.540826,0.531737
1629811234552,-0.660264,0.5410699999999999,0.532652
1629811234562,-0.658556,0.540887,0.533689
1629811234571,-0.657214,0.541131,0.532408
1629811234581,-0.6563599999999999,0.540826,0.53192
1629811234591,-0.654835,0.541497,0.5307
1629811234600,-0.65392,0.541619,0.527894
1629811234610,-0.650931,0.541863,0.525576
1629811234619,-0.648003,0.542107,0.522587
1629811234629,-0.6454409999999999,0.5404599999999999,0.5167309999999999
1629811234639,-0.645685,0.539789,0.512705
1629811234648,-0.641598,0.536007,0.510509
1629811234658,-0.641842,0.538081,0.506666
1629811234667,-0.642452,0.543571,0.505568
1629811234677,-0.6375109999999999,0.5404599999999999,0.505385
1629811234687,-0.632204,0.526552,0.507093
1629811234696,-0.63379,0.524539,0.506056
1629811234706,-0.636962,0.529602,0.508191
1629811234715,-0.637389,0.533079,0.512217
1629811234725,-0.636962,0.531737,0.5130709999999999
1629811234735,-0.637328,0.53314,0.513437
1629811234744,-0.6384259999999999,0.533994,0.5155109999999999
1629811234754,-0.640134,0.533323,0.518317
1629811234763,-0.642269,0.532408,0.519598
1629811234773,-0.642147,0.53009,0.519903
1629811234783,-0.640805,0.526491,0.520757
1629811234792,-0.641415,0.525942,0.521245
1629811234802,-0.6433059999999999,0.52765,0.5200859999999999
1629811234811,-0.643977,0.528443,0.518378
1629811234821,-0.646112,0.530944,0.51789
1629811234831,-0.64721,0.532347,0.516792
1629811234840,-0.649528,0.532347,0.517463
1629811234850,-0.650382,0.534665,0.518622
1629811234859,-0.65209,0.535763,0.520208
1629811234869,-0.652578,0.535519,0.5206959999999999
1629811234879,-0.65209,0.536312,0.517768
1629811234888,-0.655079,0.5374099999999999,0.51728
1629811234898,-0.6587999999999999,0.5389349999999999,0.516792
1629811234907,-0.659593,0.539057,0.514962
1629811234917,-0.659654,0.537166,0.515328
1629811234927,-0.6600199999999999,0.5374099999999999,0.516975
1629811234936,-0.660264,0.538264,0.517768
1629811234946,-0.660203,0.538752,0.520513
1629811234955,-0.659776,0.538874,0.520452
1629811234965,-0.6584949999999999,0.538752,0.522648
1629811234975,-0.659166,0.538264,0.52399
1629811234984,-0.658617,0.539667,0.525515
1629811234994,-0.658251,0.538508,0.526125
1629811235003,-0.657092,0.539484,0.527223
1629811235013,-0.65392,0.538752,0.525942
1629811235023,-0.652273,0.538142,0.525271
1629811235032,-0.650992,0.539057,0.523807
1629811235042,-0.650077,0.5404599999999999,0.523685
1629811235051,-0.648918,0.540094,0.5225259999999999
1629811235061,-0.646966,0.539423,0.5210009999999999
1629811235071,-0.645075,0.539606,0.519232
1629811235080,-0.643794,0.5380199999999999,0.518744
1629811235090,-0.641293,0.535763,0.516914
1629811235099,-0.640744,0.534787,0.516365
1629811235109,-0.6405609999999999,0.534482,0.515877
1629811235119,-0.640134,0.533872,0.5136809999999999
1629811235128,-0.6405609999999999,0.534421,0.510143
1629811235138,-0.6417809999999999,0.534482,0.507947
1629811235147,-0.637633,0.529785,0.507764
1629811235157,-0.640195,0.533445,0.507337
1629811235167,-0.641659,0.5371049999999999,0.507947
1629811235176,-0.640073,0.533506,0.50813
1629811235186,-0.638182,0.523929,0.510753
1629811235195,-0.640683,0.521367,0.510082
1629811235205,-0.644892,0.524539,0.5124609999999999
1629811235215,-0.647271,0.529358,0.5136809999999999
1629811235224,-0.649589,0.533262,0.512888
1629811235234,-0.651541,0.536373,0.5136809999999999
1629811235243,-0.653493,0.537349,0.511607
1629811235253,-0.655018,0.538386,0.513132
1629811235263,-0.6554449999999999,0.536861,0.514779
1629811235272,-0.654286,0.533872,0.515267
1629811235282,-0.654164,0.533811,0.514657
1629811235291,-0.65392,0.535397,0.515084
1629811235301,-0.65453,0.5361899999999999,0.515084
1629811235311,-0.65453,0.535702,0.515755
1629811235320,-0.654225,0.535275,0.515694
1629811235330,-0.652151,0.534848,0.517707
1629811235339,-0.653737,0.534665,0.518927
1629811235349,-0.654957,0.536312,0.520269
1629811235359,-0.654469,0.538691,0.523258
1629811235368,-0.651724,0.538996,0.524661
1629811235378,-0.652334,0.5416799999999999,0.522282
1629811235387,-0.653493,0.542778,0.522099
1629811235397,-0.653859,0.543327,0.52216
1629811235407,-0.654225,0.541802,0.5219159999999999
1629811235416,-0.652578,0.541497,0.523075
1629811235426,-0.653249,0.544669,0.524539
1629811235435,-0.653127,0.5474749999999999,0.526308
1629811235445,-0.65209,0.550647,0.526552
1629811235455,-0.649711,0.549244,0.525637
1629811235464,-0.647637,0.547292,0.525698
1629811235474,-0.644892,0.5450349999999999,0.52399
1629811235483,-0.6420859999999999,0.540582,0.5237459999999999
1629811235493,-0.641293,0.538264,0.52216
1629811235503,-0.642147,0.540216,0.522038
1629811235512,-0.6408659999999999,0.541131,0.519232
1629811235522,-0.639768,0.5398499999999999,0.518012
1629811235531,-0.6399509999999999,0.5395449999999999,0.515999
1629811235541,-0.638853,0.5371049999999999,0.515084
1629811235551,-0.6384259999999999,0.534787,0.514718
1629811235560,-0.639402,0.532652,0.512339
1629811235570,-0.639158,0.532347,0.510631
1629811235579,-0.640805,0.533933,0.510814
1629811235589,-0.64294,0.534482,0.510936
1629811235599,-0.645197,0.534848,0.510936
1629811235608,-0.644343,0.533384,0.510692
1629811235618,-0.644953,0.531737,0.509228
1629811235627,-0.6466,0.534055,0.506544
1629811235637,-0.647698,0.533506,0.50386
1629811235647,-0.642635,0.524478,0.500566
1629811235656,-0.640683,0.52704,0.495381
1629811235666,-0.649345,0.537532,0.501969
1629811235675,-0.651724,0.535153,0.510997
1629811235685,-0.653188,0.525271,0.515389
1629811235695,-0.6554449999999999,0.527589,0.517402
1629811235704,-0.660081,0.534665,0.5176459999999999
1629811235714,-0.658312,0.533506,0.515633
1629811235723,-0.659654,0.5307,0.510448
1629811235733,-0.659654,0.529602,0.50447
1629811235743,-0.659471,0.52765,0.500444
1629811235752,-0.659593,0.526491,0.499956
1629811235762,-0.662582,0.527162,0.503006
1629811235771,-0.662338,0.526918,0.505812
1629811235781,-0.663497,0.528016,0.510204
1629811235791,-0.664168,0.53314,0.512156
1629811235800,-0.6661199999999999,0.535397,0.516304
1629811235810,-0.667462,0.536373,0.518927
1629811235819,-0.667096,0.535641,0.520757
1629811235829,-0.664717,0.53436,0.522282
1629811235839,-0.664473,0.535397,0.522343
1629811235848,-0.663436,0.536617,0.5234409999999999
1629811235858,-0.662338,0.536983,0.526003
1629811235867,-0.659288,0.535946,0.524112
1629811235877,-0.657519,0.5371049999999999,0.519964
1629811235887,-0.656604,0.538752,0.516304
1629811235896,-0.657092,0.53497,0.515267
1629811235906,-0.654225,0.530334,0.5152059999999999
1629811235915,-0.653554,0.532652,0.516365
1629811235925,-0.65392,0.539606,0.518378
1629811235935,-0.653798,0.543449,0.51606
1629811235944,-0.651968,0.540826,0.513559
1629811235954,-0.650382,0.5389349999999999,0.512095
1629811235963,-0.648064,0.535946,0.511119
1629811235973,-0.645624,0.533872,0.510082
1629811235983,-0.644709,0.531737,0.512156
1629811235992,-0.642574,0.530212,0.513498
1629811236002,-0.6405,0.531249,0.51362
1629811236011,-0.640622,0.530944,0.514962
1629811236021,-0.64172,0.530273,0.516853
1629811236031,-0.6436109999999999,0.529907,0.519842
1629811236040,-0.643428,0.529602,0.520879
1629811236050,-0.643123,0.527833,0.520574
1629811236059,-0.644038,0.529419,0.5200859999999999
1629811236069,-0.646112,0.529724,0.522099
1629811236079,-0.6451359999999999,0.524539,0.5222209999999999
1629811236088,-0.6466,0.521184,0.520452
1629811236098,-0.647881,0.522038,0.5185
1629811236107,-0.649345,0.5231359999999999,0.517585
1629811236117,-0.650382,0.525759,0.5164259999999999
1629811236127,-0.65331,0.523563,0.512644
1629811236136,-0.65453,0.522648,0.511485
1629811236146,-0.646173,0.520025,0.50752
1629811236155,-0.6578849999999999,0.529968,0.508984
1629811236165,-0.6664249999999999,0.531615,0.5213059999999999
1629811236175,-0.668682,0.526918,0.52826
1629811236184,-0.664778,0.529602,0.528565
1629811236194,-0.664412,0.533811,0.529602
1629811236203,-0.6621549999999999,0.53253,0.526247
1629811236213,-0.660081,0.528077,0.5206959999999999
1629811236223,-0.6569699999999999,0.523319,0.518134
1629811236232,-0.657031,0.524478,0.51606
1629811236242,-0.658434,0.529236,0.516365
1629811236251,-0.660752,0.533079,0.519598
1629811236261,-0.659288,0.532774,0.52155
1629811236271,-0.659654,0.533628,0.521245
1629811236280,-0.657946,0.534421,0.520025
1629811236290,-0.657946,0.534726,0.52033
1629811236299,-0.656604,0.534787,0.520147
1629811236309,-0.656421,0.534604,0.520574
1629811236319,-0.654225,0.535763,0.520513
1629811236328,-0.653127,0.537898,0.519842
1629811236338,-0.652395,0.537776,0.51911
1629811236347,-0.652456,0.538874,0.519903
1629811236357,-0.647881,0.537898,0.5210009999999999
1629811236367,-0.64233,0.536068,0.5158159999999999
1629811236376,-0.642574,0.5361899999999999,0.5161209999999999
1629811236386,-0.64233,0.533201,0.518012
1629811236395,-0.641293,0.529724,0.518439
1629811236405,-0.639768,0.533567,0.5200859999999999
1629811236415,-0.6414759999999999,0.539972,0.521489
1629811236424,-0.64233,0.542656,0.52216
1629811236434,-0.64233,0.538996,0.522282
1629811236443,-0.64111,0.537349,0.519354
1629811236453,-0.640744,0.535153,0.519842
1629811236463,-0.640744,0.5307,0.519354
1629811236472,-0.6405,0.52826,0.520635
1629811236482,-0.6420859999999999,0.528382,0.521855
1629811236491,-0.64294,0.527162,0.521794
1629811236501,-0.643733,0.528443,0.5234409999999999
1629811236511,-0.6451359999999999,0.530517,0.52338
1629811236520,-0.647149,0.53253,0.525759
1629811236530,-0.648186,0.531737,0.524112
1629811236539,-0.646417,0.530395,0.5197809999999999
1629811236549,-0.646661,0.529663,0.5145959999999999
1629811236559,-0.646661,0.529663,0.5145959999999999
1629811236568,-0.646844,0.527223,0.514535
1629811236578,-0.647515,0.525576,0.5145959999999999
1629811236587,-0.647576,0.525393,0.5155109999999999
1629811236597,-0.6466,0.521245,0.5167309999999999
1629811236607,-0.64599,0.52094,0.516548
1629811236616,-0.6457459999999999,0.5200859999999999,0.515084
1629811236626,-0.648491,0.518927,0.515023
1629811236635,-0.64355,0.519293,0.513315
1629811236645,-0.651053,0.529053,0.5155109999999999
1629811236655,-0.656787,0.531981,0.522404
1629811236664,-0.6591049999999999,0.52033,0.52826
1629811236674,-0.659349,0.520635,0.531188
1629811236683,-0.664534,0.530029,0.533201
1629811236693,-0.665388,0.532774,0.534299
1629811236703,-0.663863,0.528992,0.532347
1629811236712,-0.6618499999999999,0.524844,0.528626
1629811236722,-0.659959,0.524661,0.525576
1629811236731,-0.661362,0.526918,0.52338
1629811236741,-0.6639849999999999,0.530883,0.522465
1629811236751,-0.664534,0.531066,0.5222209999999999
1629811236760,-0.665022,0.528809,0.523624
1629811236770,-0.665876,0.531432,0.524722
1629811236779,-0.6676449999999999,0.533811,0.527223
1629811236789,-0.669231,0.533323,0.531371
1629811236799,-0.670512,0.531737,0.535763
1629811236808,-0.671122,0.53497,0.535275
1629811236818,-0.672159,0.540094,0.53253
1629811236827,-0.670329,0.5441199999999999,0.530761
1629811236837,-0.667523,0.545523,0.529236
1629811236847,-0.663924,0.546682,0.528443
1629811236856,-0.661179,0.548573,0.525332
1629811236866,-0.660264,0.552843,0.5213059999999999
1629811236875,-0.659166,0.555466,0.517402
1629811236885,-0.656421,0.555344,0.5127659999999999
1629811236895,-0.651175,0.549793,0.509106
1629811236904,-0.648064,0.550098,0.5063
1629811236914,-0.6423909999999999,0.553941,0.504897
1629811236923,-0.6350709999999999,0.555527,0.503433
1629811236933,-0.630679,0.558455,0.501176
1629811236943,-0.625921,0.560956,0.498187
1629811236952,-0.623603,0.562786,0.498004
1629811236962,-0.624213,0.562908,0.501298
1629811236971,-0.623237,0.561078,0.50447
1629811236981,-0.620065,0.559858,0.508191
1629811236991,-0.6168319999999999,0.557357,0.510021
1629811237000,-0.6153069999999999,0.556381,0.508923
1629811237010,-0.613233,0.559126,0.509228
1629811237019,-0.611708,0.560956,0.508801
1629811237029,-0.61,0.561078,0.507398
1629811237039,-0.606096,0.561505,0.50508
1629811237048,-0.603046,0.559614,0.504653
1629811237058,-0.599508,0.558028,0.506727
1629811237067,-0.597373,0.5611389999999999,0.510753
1629811237077,-0.59536,0.563823,0.514962
1629811237087,-0.594079,0.5684589999999999,0.518012
1629811237096,-0.590785,0.5718139999999999,0.52094
1629811237106,-0.588894,0.574925,0.520208
1629811237115,-0.589016,0.577121,0.52277
1629811237125,-0.585234,0.572851,0.527772
1629811237135,-0.585905,0.577426,0.529236
1629811237144,-0.5903579999999999,0.585966,0.536007
1629811237154,-0.589504,0.585356,0.5413749999999999
1629811237163,-0.5873079999999999,0.575596,0.544669
1629811237173,-0.590114,0.579012,0.548634
1629811237183,-0.594201,0.5866979999999999,0.548268
1629811237192,-0.5958479999999999,0.590724,0.549183
1629811237202,-0.5970679999999999,0.590602,0.548024
1629811237211,-0.596946,0.589565,0.5465599999999999
1629811237221,-0.597922,0.585844,0.545096
1629811237231,-0.599325,0.585234,0.544181
1629811237240,-0.599691,0.584807,0.542778
1629811237250,-0.599081,0.580842,0.5401549999999999
1629811237259,-0.598166,0.576023,0.536373
1629811237269,-0.59841,0.574071,0.533262
1629811237279,-0.598654,0.573156,0.530639
1629811237288,-0.598837,0.57279,0.530334
1629811237298,-0.599447,0.570716,0.529541
1629811237307,-0.596946,0.568276,0.528443
1629811237317,-0.597678,0.565287,0.530822
1629811237327,-0.597556,0.561688,0.532774
1629811237336,-0.598593,0.559126,0.535336
1629811237346,-0.598532,0.556991,0.538264
1629811237355,-0.59719,0.55266,0.536678
1629811237365,-0.600667,0.552111,0.535336
1629811237375,-0.602924,0.551928,0.535641
1629811237384,-0.60512,0.552172,0.534299
1629811237394,-0.60512,0.5465599999999999,0.536373
1629811237403,-0.607133,0.545157,0.5386299999999999
1629811237413,-0.6079869999999999,0.545279,0.541863
1629811237423,-0.610244,0.544974,0.545462
1629811237432,-0.611708,0.544669,0.5483899999999999
1629811237442,-0.6122569999999999,0.5438149999999999,0.550586
1629811237451,-0.615429,0.543998,0.550769
1629811237461,-0.617686,0.543876,0.553087
1629811237471,-0.619455,0.542778,0.555954
1629811237480,-0.6214069999999999,0.542778,0.557418
1629811237490,-0.621773,0.540094,0.558089
1629811237499,-0.622749,0.5392399999999999,0.558943
1629811237509,-0.623664,0.538264,0.5605289999999999
1629811237519,-0.624823,0.539301,0.5617489999999999
1629811237528,-0.626714,0.542473,0.561932
1629811237538,-0.62708,0.545584,0.561261
1629811237547,-0.628788,0.546926,0.561871
1629811237557,-0.627202,0.547048,0.56364
1629811237567,-0.626226,0.544974,0.564128
1629811237576,-0.626714,0.542473,0.565226
1629811237586,-0.625799,0.539667,0.565165
1629811237595,-0.625433,0.536922,0.563762
1629811237605,-0.623725,0.537898,0.561505
1629811237615,-0.626226,0.540216,0.555527
1629811237624,-0.625555,0.541619,0.554063
1629811237634,-0.622993,0.540887,0.552477
1629811237643,-0.625128,0.549305,0.551135
1629811237653,-0.62586,0.554917,0.549976
1629811237663,-0.620126,0.5480849999999999,0.552965
1629811237672,-0.6177469999999999,0.540887,0.554246
1629811237682,-0.618113,0.5410699999999999,0.553087
1629811237691,-0.616954,0.542473,0.555222
1629811237701,-0.615673,0.544608,0.55449
1629811237711,-0.6134769999999999,0.5474749999999999,0.553026
1629811237720,-0.611464,0.547841,0.551867
1629811237730,-0.610793,0.546438,0.553758
1629811237739,-0.6089019999999999,0.546194,0.556381
1629811237749,-0.607499,0.5435099999999999,0.55754
1629811237759,-0.605303,0.540094,0.558089
1629811237768,-0.604266,0.538203,0.55693
1629811237778,-0.602863,0.536922,0.55571
1629811237787,-0.602436,0.538142,0.555832
1629811237797,-0.602619,0.537044,0.55571
1629811237807,-0.60268,0.5364949999999999,0.555954
1629811237816,-0.602436,0.5364949999999999,0.555344
1629811237826,-0.603839,0.535214,0.554978
1629811237835,-0.604449,0.535824,0.556076
1629811237845,-0.605913,0.53497,0.558455
1629811237855,-0.604998,0.53314,0.556198
1629811237864,-0.605608,0.532652,0.554551
1629811237874,-0.608414,0.535092,0.556869
1629811237883,-0.610671,0.538264,0.554734
1629811237893,-0.611464,0.537166,0.55632
1629811237903,-0.612745,0.537776,0.558089
1629811237912,-0.614453,0.5413749999999999,0.55937
1629811237922,-0.614819,0.543388,0.561078
1629811237931,-0.615063,0.545584,0.5632739999999999
1629811237941,-0.61488,0.544242,0.565226
1629811237951,-0.614331,0.544669,0.568276
1629811237960,-0.614026,0.543449,0.56852
1629811237970,-0.613538,0.543144,0.569557
1629811237979,-0.612684,0.5416799999999999,0.571021
1629811237989,-0.610976,0.5416799999999999,0.572912
1629811237999,-0.612135,0.541863,0.573583
1629811238008,-0.613111,0.543022,0.574986
1629811238018,-0.613294,0.544242,0.576206
1629811238027,-0.612135,0.545279,0.577182
1629811238037,-0.611464,0.544181,0.577365
1629811238047,-0.610366,0.544791,0.577548
1629811238056,-0.6089019999999999,0.545157,0.577731
1629811238066,-0.607377,0.544181,0.578524
1629811238075,-0.60634,0.5422899999999999,0.580415
1629811238085,-0.605242,0.5395449999999999,0.579866
1629811238095,-0.605242,0.5374099999999999,0.579134
1629811238104,-0.60451,0.536678,0.578768
1629811238114,-0.604876,0.539484,0.575535
1629811238123,-0.605303,0.542351,0.5715089999999999
1629811238133,-0.603351,0.542839,0.569618
1629811238143,-0.59719,0.536129,0.5684589999999999
1629811238152,-0.597861,0.538142,0.56608
1629811238162,-0.598898,0.542107,0.565165
1629811238171,-0.597129,0.537837,0.572058
1629811238181,-0.593469,0.528809,0.581452
1629811238191,-0.594506,0.53009,0.588711
1629811238200,-0.5970679999999999,0.537532,0.594445
1629811238210,-0.597251,0.540216,0.5949329999999999
1629811238219,-0.597861,0.543144,0.5912729999999999
1629811238229,-0.598349,0.542473,0.583465
1629811238239,-0.598715,0.540521,0.5724239999999999
1629811238248,-0.596336,0.537349,0.565348
1629811238258,-0.597373,0.536556,0.559492
1629811238267,-0.598654,0.535397,0.556991
1629811238277,-0.597983,0.535702,0.555771
1629811238287,-0.599447,0.540826,0.558272
1629811238296,-0.601094,0.5477799999999999,0.5614439999999999
1629811238306,-0.601704,0.554978,0.561871
1629811238315,-0.602192,0.556808,0.560407
1629811238325,-0.604205,0.55815,0.555039
1629811238335,-0.605364,0.558821,0.5483899999999999
1629811238344,-0.607621,0.563091,0.541558
1629811238354,-0.607804,0.568032,0.536251
1629811238363,-0.606645,0.5715089999999999,0.533079
1629811238373,-0.6079869999999999,0.573095,0.531249
1629811238383,-0.609024,0.575535,0.533384
1629811238392,-0.609329,0.576084,0.534665
1629811238402,-0.609634,0.574498,0.535946
1629811238411,-0.609878,0.57401,0.535946
1629811238421,-0.610305,0.574986,0.535519
1629811238431,-0.610549,0.574193,0.533872
1629811238440,-0.610061,0.574742,0.534299
1629811238450,-0.60817,0.573034,0.534604
1629811238459,-0.606767,0.568032,0.534604
1629811238469,-0.605669,0.564738,0.533567
1629811238479,-0.607377,0.563152,0.532347
1629811238488,-0.60817,0.563396,0.531493
1629811238498,-0.608658,0.562237,0.532469
1629811238507,-0.607743,0.5602239999999999,0.534909
1629811238517,-0.608719,0.559553,0.537044
1629811238527,-0.609451,0.55998,0.538569
1629811238536,-0.608963,0.560102,0.5404599999999999
1629811238546,-0.60878,0.557723,0.540643
1629811238555,-0.609024,0.555344,0.537898
1629811238565,-0.610976,0.55449,0.534116
1629811238575,-0.612501,0.556686,0.526064
1629811238584,-0.6150019999999999,0.555954,0.517585
1629811238594,-0.616954,0.55449,0.508679
1629811238603,-0.61671,0.553758,0.499285
1629811238613,-0.615429,0.554429,0.49141599999999996
1629811238623,-0.6161,0.5611389999999999,0.48836599999999997
1629811238632,-0.617076,0.568032,0.486902
1629811238642,-0.618906,0.569557,0.489769
1629811238651,-0.611281,0.565531,0.4941
1629811238661,-0.609085,0.5612,0.491843
1629811238671,-0.616466,0.568581,0.49776
1629811238680,-0.618113,0.569313,0.508984
1629811238690,-0.6153069999999999,0.556503,0.514535
1629811238699,-0.6165269999999999,0.5611389999999999,0.51606
1629811238709,-0.6183569999999999,0.569313,0.5127659999999999
1629811238719,-0.617869,0.568947,0.509472
1629811238728,-0.619333,0.565592,0.504958
1629811238738,-0.619455,0.563945,0.502274
1629811238747,-0.619028,0.5623589999999999,0.504287
1629811238757,-0.622322,0.568032,0.508191
1629811238767,-0.623115,0.571997,0.510021
1629811238776,-0.624823,0.573034,0.513925
1629811238786,-0.628361,0.577792,0.512583
1629811238795,-0.632143,0.579683,0.509899
1629811238805,-0.631472,0.577487,0.513498
1629811238815,-0.630557,0.572546,0.516914
1629811238824,-0.630618,0.568886,0.516975
1629811238834,-0.630252,0.5635789999999999,0.518073
1629811238843,-0.629947,0.558699,0.521672
1629811238853,-0.631106,0.558638,0.5234409999999999
1629811238863,-0.631777,0.558211,0.527467
1629811238872,-0.631106,0.558333,0.527284
1629811238882,-0.631106,0.556259,0.525637
1629811238891,-0.6323259999999999,0.554673,0.529175
1629811238901,-0.632997,0.547841,0.531188
1629811238911,-0.63379,0.5465599999999999,0.529785
1629811238920,-0.63623,0.557662,0.527589
1629811238930,-0.63684,0.563701,0.533323
1629811238939,-0.63562,0.559797,0.541192
1629811238949,-0.6335459999999999,0.553331,0.545279
1629811238959,-0.633058,0.547231,0.547292
1629811238968,-0.633363,0.540399,0.547353
1629811238978,-0.6344,0.534482,0.544547
1629811238987,-0.63684,0.533689,0.543022
1629811238997,-0.6384259999999999,0.534604,0.5395449999999999
1629811239007,-0.639768,0.535397,0.534787
1629811239016,-0.643245,0.535336,0.52948
1629811239026,-0.645685,0.535458,0.52582
1629811239035,-0.649955,0.536129,0.5228309999999999
1629811239045,-0.651785,0.535336,0.521855
1629811239055,-0.654408,0.535519,0.517097
1629811239064,-0.657458,0.537471,0.5133759999999999
1629811239074,-0.658434,0.540643,0.510265
1629811239083,-0.658373,0.539972,0.509045
1629811239093,-0.659166,0.537349,0.505751
1629811239103,-0.6587999999999999,0.5367999999999999,0.503189
1629811239112,-0.658007,0.5364949999999999,0.502213
1629811239122,-0.655262,0.536678,0.502274
1629811239131,-0.654957,0.536617,0.499956
1629811239141,-0.656909,0.540582,0.496235
1629811239151,-0.64965,0.544852,0.492819
1629811239160,-0.642269,0.544791,0.487695
1629811239170,-0.651541,0.553453,0.491538
1629811239179,-0.654225,0.551989,0.499224
1629811239189,-0.647393,0.544669,0.506849
1629811239199,-0.641842,0.544913,0.510692
1629811239208,-0.641354,0.55022,0.513315
1629811239218,-0.63867,0.545157,0.513254
1629811239227,-0.6356809999999999,0.536373,0.510997
1629811239237,-0.6353759999999999,0.528687,0.51179
1629811239247,-0.640073,0.528321,0.512339
1629811239256,-0.649467,0.537288,0.510753
1629811239266,-0.6578849999999999,0.547658,0.510875
1629811239275,-0.656848,0.557418,0.5133759999999999
1629811239285,-0.650687,0.5611389999999999,0.515023
1629811239295,-0.648308,0.564677,0.512095
1629811239304,-0.643062,0.56425,0.504775
1629811239314,-0.639524,0.549122,0.496906
1629811239323,-0.640134,0.542656,0.492514
1629811239333,-0.634644,0.5398499999999999,0.493978
1629811239343,-0.623176,0.526918,0.500566
1629811239352,-0.619821,0.522038,0.511668
1629811239362,-0.621346,0.531981,0.5197809999999999
1629811239371,-0.624579,0.548207,0.522038
1629811239381,-0.62891,0.5641889999999999,0.518439
1629811239391,-0.637328,0.57706,0.5139859999999999
1629811239400,-0.645075,0.580903,0.505873
1629811239410,-0.644099,0.5705939999999999,0.49959
1629811239419,-0.639158,0.556564,0.503128
1629811239429,-0.635803,0.549305,0.509899
1629811239439,-0.631655,0.544913,0.524356
1629811239448,-0.62952,0.543144,0.536861
1629811239458,-0.624945,0.531798,0.546926
1629811239467,-0.626043,0.524112,0.554917
1629811239477,-0.6320209999999999,0.523075,0.559492
1629811239487,-0.633912,0.523929,0.5614439999999999
1629811239496,-0.6387309999999999,0.528931,0.561383
1629811239506,-0.645014,0.537776,0.561627
1629811239515,-0.649589,0.544547,0.563701
1629811239525,-0.651663,0.545584,0.564982
1629811239535,-0.652944,0.541253,0.563762
1629811239544,-0.653798,0.535336,0.5611389999999999
1629811239554,-0.655689,0.527467,0.559004
1629811239563,-0.6563599999999999,0.520818,0.557967
1629811239573,-0.657458,0.518439,0.556198
1629811239583,-0.656482,0.519415,0.553026
1629811239592,-0.657214,0.519903,0.547231
1629811239602,-0.656726,0.518134,0.540338
1629811239611,-0.6572749999999999,0.515145,0.531981
1629811239621,-0.658312,0.510692,0.527833
1629811239631,-0.658007,0.503128,0.520025
1629811239640,-0.660142,0.49824799999999997,0.509228
1629811239650,-0.6603249999999999,0.495625,0.503494
1629811239659,-0.658617,0.492148,0.500078
1629811239669,-0.661118,0.501176,0.508984
1629811239679,-0.659532,0.505873,0.522953
1629811239688,-0.652761,0.499224,0.535946
1629811239698,-0.645868,0.490867,0.541802
1629811239707,-0.64843,0.499102,0.548329
1629811239717,-0.6451359999999999,0.501542,0.55266
1629811239727,-0.642635,0.512949,0.556015
1629811239736,-0.640012,0.521489,0.554978
1629811239746,-0.635254,0.525698,0.55388
1629811239755,-0.630496,0.526857,0.555832
1629811239765,-0.625616,0.531066,0.556991
1629811239775,-0.6189669999999999,0.532774,0.558821
1629811239784,-0.614148,0.532652,0.562176
1629811239794,-0.60939,0.534116,0.564738
1629811239803,-0.604815,0.537166,0.5663239999999999
1629811239813,-0.601338,0.5392399999999999,0.568581
1629811239823,-0.59902,0.541192,0.570777
1629811239832,-0.596519,0.540277,0.5734
1629811239842,-0.59353,0.537227,0.57584
1629811239851,-0.591151,0.534665,0.576511
1629811239861,-0.5937129999999999,0.534848,0.575169
1629811239871,-0.594506,0.536129,0.573583
1629811239880,-0.598288,0.537532,0.5702889999999999
1629811239890,-0.602863,0.542717,0.56669
1629811239899,-0.60634,0.545523,0.566202
1629811239909,-0.607255,0.5450349999999999,0.564006
1629811239919,-0.6107319999999999,0.540643,0.563518
1629811239928,-0.613904,0.540521,0.56303
1629811239938,-0.616649,0.541741,0.561078
1629811239947,-0.617686,0.541924,0.560102
1629811239957,-0.617808,0.543266,0.556076
1629811239967,-0.618113,0.545279,0.552477
1629811239976,-0.6201869999999999,0.549427,0.549183
1629811239986,-0.619089,0.550891,0.5465599999999999
1629811239995,-0.615856,0.547902,0.546987
1629811240005,-0.614453,0.553636,0.547292
1629811240015,-0.612196,0.557601,0.540826
1629811240024,-0.6104269999999999,0.555466,0.5371049999999999
1629811240034,-0.607499,0.552111,0.538264
1629811240043,-0.603107,0.548634,0.543632
1629811240053,-0.598471,0.5474749999999999,0.549244
1629811240063,-0.593957,0.541863,0.550159
1629811240072,-0.588284,0.534909,0.551013
1629811240082,-0.5863929999999999,0.53009,0.550708
1629811240091,-0.586942,0.531127,0.549061
1629811240101,-0.591517,0.5398499999999999,0.551196
1629811240111,-0.59597,0.548573,0.551257
1629811240120,-0.598715,0.553148,0.549976
1629811240130,-0.600545,0.559187,0.548512
1629811240139,-0.603229,0.562786,0.5465599999999999
1629811240149,-0.602497,0.558882,0.549854
1629811240159,-0.602741,0.552355,0.552172
1629811240168,-0.608841,0.553148,0.556564
1629811240178,-0.608414,0.552904,0.56059
1629811240187,-0.604876,0.5422899999999999,0.566995
1629811240197,-0.604815,0.531493,0.570228
1629811240207,-0.61,0.531188,0.567605
1629811240216,-0.616771,0.536922,0.565836
1629811240226,-0.619821,0.544547,0.564128
1629811240235,-0.621224,0.548024,0.5635789999999999
1629811240245,-0.622627,0.548695,0.565226
1629811240255,-0.62464,0.5483899999999999,0.567666
1629811240264,-0.625616,0.546804,0.5693739999999999
1629811240274,-0.625067,0.5447299999999999,0.570838
1629811240283,-0.625433,0.543876,0.568825
1629811240293,-0.624579,0.5453399999999999,0.567422
1629811240303,-0.625494,0.550586,0.564067
1629811240312,-0.62586,0.554246,0.561383
1629811240322,-0.624518,0.557784,0.555527
1629811240331,-0.6222,0.557784,0.550403
1629811240341,-0.620248,0.555588,0.543388
1629811240351,-0.61732,0.554612,0.537227
1629811240360,-0.6162219999999999,0.554246,0.53314
1629811240370,-0.614148,0.552172,0.532042
1629811240379,-0.6095119999999999,0.547902,0.532347
1629811240389,-0.605608,0.547048,0.53192
1629811240399,-0.60634,0.5468649999999999,0.533506
1629811240408,-0.60268,0.545096,0.534848
1629811240418,-0.601338,0.540826,0.535153
1629811240427,-0.599691,0.537227,0.533201
1629811240437,-0.600789,0.538569,0.532469
1629811240447,-0.602802,0.540399,0.532408
1629811240456,-0.603534,0.542229,0.535824
1629811240466,-0.603534,0.544486,0.542107
1629811240475,-0.604876,0.545584,0.5480849999999999
1629811240485,-0.604388,0.546682,0.55327
1629811240495,-0.604937,0.548268,0.554795
1629811240504,-0.60573,0.551806,0.553697
1629811240514,-0.606401,0.553453,0.551501
1629811240523,-0.605059,0.554612,0.549
1629811240533,-0.604388,0.555527,0.545767
1629811240543,-0.60634,0.554917,0.544486
1629811240552,-0.606706,0.555466,0.545279
1629811240562,-0.604754,0.555588,0.549793
1629811240571,-0.608048,0.555222,0.547536
1629811240581,-0.607011,0.556564,0.549122
1629811240591,-0.606706,0.557296,0.553941
1629811240600,-0.605486,0.558882,0.558699
1629811240610,-0.606218,0.5620539999999999,0.5611389999999999
1629811240619,-0.60329,0.5623589999999999,0.562725
1629811240629,-0.601155,0.562176,0.560102
1629811240639,-0.599813,0.5626639999999999,0.557357
1629811240648,-0.599874,0.56303,0.556076
1629811240658,-0.594811,0.557845,0.556564
1629811240667,-0.5937129999999999,0.557052,0.557784
1629811240677,-0.593164,0.557845,0.559309
1629811240687,-0.588284,0.553331,0.559614
1629811240696,-0.582062,0.5371049999999999,0.5693739999999999
1629811240706,-0.58255,0.53009,0.572058
1629811240715,-0.584624,0.531188,0.574376
1629811240725,-0.588467,0.5392399999999999,0.57584
1629811240735,-0.59048,0.544059,0.572058
1629811240744,-0.589199,0.546133,0.5724239999999999
1629811240754,-0.589016,0.543998,0.572058
1629811240763,-0.5912729999999999,0.543632,0.575352
1629811240773,-0.5934079999999999,0.5447299999999999,0.578768
1629811240783,-0.59353,0.544852,0.580049
1629811240792,-0.591517,0.5435099999999999,0.58011
1629811240802,-0.5917,0.544547,0.580232
1629811240811,-0.591395,0.548024,0.578341
1629811240821,-0.59292,0.550708,0.576938
1629811240831,-0.592676,0.550037,0.573034
1629811240840,-0.5921879999999999,0.548207,0.575779
1629811240850,-0.59292,0.545889,0.574986
1629811240859,-0.593225,0.542778,0.572546
1629811240869,-0.592005,0.542046,0.574376
1629811240879,-0.589504,0.540582,0.580964
1629811240888,-0.589565,0.539057,0.577426
1629811240898,-0.593835,0.537227,0.5705939999999999
1629811240907,-0.588772,0.535214,0.582733
1629811240917,-0.584624,0.531554,0.590724
1629811240927,-0.585905,0.528199,0.592371
1629811240936,-0.588162,0.525393,0.59231
1629811240946,-0.587247,0.52399,0.592249
1629811240955,-0.587857,0.524966,0.595726
1629811240965,-0.5894429999999999,0.525332,0.598593
1629811240975,-0.590419,0.524112,0.600728
1629811240984,-0.59048,0.523014,0.600606
1629811240994,-0.592554,0.522282,0.601643
1629811241003,-0.592615,0.516609,0.601826
1629811241013,-0.5958479999999999,0.518195,0.60451
1629811241023,-0.598654,0.516914,0.605364
1629811241032,-0.599508,0.517219,0.60451
1629811241042,-0.601704,0.516609,0.602924
1629811241051,-0.604632,0.519049,0.600179
1629811241061,-0.605974,0.51789,0.597556
1629811241071,-0.608414,0.517524,0.590785
1629811241080,-0.610061,0.519415,0.588467
1629811241090,-0.610061,0.5225259999999999,0.589077
1629811241099,-0.610793,0.523929,0.5891379999999999
1629811241109,-0.6110369999999999,0.52338,0.590175
1629811241119,-0.6089019999999999,0.523075,0.5909679999999999
1629811241128,-0.607316,0.523197,0.5917
1629811241138,-0.603717,0.523197,0.594079
1629811241147,-0.602741,0.524905,0.5964579999999999
1629811241157,-0.602253,0.525271,0.599203
1629811241167,-0.5967629999999999,0.519049,0.59902
1629811241176,-0.5909679999999999,0.5182559999999999,0.597495
1629811241186,-0.5958479999999999,0.528992,0.599874
1629811241195,-0.5978,0.53375,0.602192
1629811241205,-0.595055,0.526552,0.606462
1629811241215,-0.593896,0.52765,0.606706
1629811241224,-0.5970679999999999,0.539789,0.605608
1629811241234,-0.596702,0.547353,0.601521
1629811241243,-0.591151,0.547902,0.594689
1629811241253,-0.587247,0.543998,0.58743
1629811241263,-0.585539,0.541497,0.581147
1629811241272,-0.581818,0.540094,0.577243
1629811241282,-0.580049,0.538752,0.574803
1629811241291,-0.57828,0.536373,0.573827
1629811241301,-0.578402,0.537898,0.571692
1629811241311,-0.57828,0.543388,0.570411
1629811241320,-0.579927,0.548024,0.567361
1629811241330,-0.580293,0.551074,0.565836
1629811241339,-0.581086,0.550464,0.564372
1629811241349,-0.5795,0.548756,0.5626639999999999
1629811241359,-0.581391,0.548146,0.562847
1629811241368,-0.582062,0.548146,0.563701
1629811241378,-0.582001,0.548268,0.566141
1629811241387,-0.581757,0.547963,0.567666
1629811241397,-0.58316,0.553148,0.565836
1629811241407,-0.58499,0.555466,0.56547
1629811241416,-0.588406,0.553331,0.566995
1629811241426,-0.587552,0.545096,0.5696789999999999
1629811241435,-0.5885279999999999,0.5444249999999999,0.570655
1629811241445,-0.590175,0.548573,0.570045
1629811241455,-0.590846,0.550891,0.5715089999999999
1629811241464,-0.591334,0.553636,0.571326
1629811241474,-0.592432,0.554429,0.571631
1629811241483,-0.592371,0.553453,0.570838
1629811241493,-0.590907,0.550403,0.570472
1629811241503,-0.59048,0.549854,0.571021
1629811241512,-0.588711,0.550098,0.572668
1629811241522,-0.588162,0.55022,0.573644
1629811241531,-0.588101,0.549183,0.573278
1629811241541,-0.58865,0.548756,0.575474
1629811241551,-0.589687,0.548451,0.578341
1629811241560,-0.588894,0.546621,0.58011
1629811241570,-0.5888329999999999,0.543388,0.582245
1629811241579,-0.588955,0.541558,0.58377
1629811241589,-0.588711,0.541436,0.584685
1629811241599,-0.591212,0.5435099999999999,0.586149
1629811241608,-0.593164,0.544242,0.5860879999999999
1629811241618,-0.593774,0.543754,0.585905
1629811241627,-0.594872,0.5435099999999999,0.583587
1629811241637,-0.594384,0.5422899999999999,0.580842
1629811241647,-0.5964579999999999,0.542168,0.575718
1629811241656,-0.600606,0.538874,0.571692
1629811241666,-0.600728,0.538081,0.571021
1629811241675,-0.593042,0.536434,0.567361
1629811241685,-0.603107,0.545889,0.565287
1629811241695,-0.60756,0.541863,0.575291
1629811241704,-0.607804,0.535702,0.581147
1629811241714,-0.603412,0.539301,0.58072
1629811241723,-0.603778,0.546316,0.579622
1629811241733,-0.601216,0.544608,0.572546
1629811241743,-0.597495,0.540216,0.5678489999999999
1629811241752,-0.596641,0.535763,0.561627
1629811241762,-0.595055,0.532713,0.559248
1629811241771,-0.596946,0.536434,0.56181
1629811241781,-0.59963,0.541497,0.56608
1629811241791,-0.599691,0.5419849999999999,0.569618
1629811241800,-0.599935,0.542717,0.5724239999999999
1629811241810,-0.599569,0.546499,0.574681
1629811241819,-0.599142,0.547658,0.574132
1629811241829,-0.598959,0.548756,0.5734
1629811241839,-0.598166,0.546438,0.572302
1629811241848,-0.597312,0.545218,0.571692
1629811241858,-0.59597,0.544913,0.570838
1629811241867,-0.594689,0.545584,0.570045
1629811241877,-0.594445,0.544547,0.569801
1629811241887,-0.591639,0.544608,0.570167
1629811241896,-0.587674,0.543876,0.5663239999999999
1629811241906,-0.585356,0.5441199999999999,0.563823
1629811241915,-0.587247,0.541436,0.564982
1629811241925,-0.585234,0.534848,0.56669
1629811241935,-0.583282,0.53314,0.56913
1629811241944,-0.585295,0.538569,0.57279
1629811241954,-0.586942,0.5435099999999999,0.577121
1629811241963,-0.588162,0.542717,0.579622
1629811241973,-0.5897479999999999,0.541619,0.579378
1629811241983,-0.591456,0.540399,0.577914
1629811241992,-0.592676,0.540277,0.578341
1629811242002,-0.594262,0.5380199999999999,0.576694
1629811242011,-0.597373,0.5386299999999999,0.57828
1629811242021,-0.597373,0.538142,0.577426
1629811242031,-0.598593,0.5380199999999999,0.574864
1629811242040,-0.601216,0.538752,0.575901
1629811242050,-0.601765,0.542229,0.576694
1629811242059,-0.602375,0.541741,0.576023
1629811242069,-0.601826,0.5413749999999999,0.575779
1629811242079,-0.601399,0.538752,0.574986
1629811242088,-0.599264,0.538142,0.574925
1629811242098,-0.600118,0.537349,0.575352
1629811242107,-0.60085,0.536434,0.576389
1629811242117,-0.60085,0.534909,0.576633
1629811242127,-0.601033,0.535092,0.57767
1629811242136,-0.601216,0.535092,0.57706
1629811242146,-0.60268,0.5383249999999999,0.574986
1629811242155,-0.607194,0.538752,0.57279
1629811242165,-0.604205,0.538508,0.572851
1629811242175,-0.601338,0.5404599999999999,0.567422
1629811242184,-0.60817,0.55144,0.5681539999999999
1629811242194,-0.605974,0.544791,0.572668
1629811242203,-0.60146,0.530395,0.574986
1629811242213,-0.597129,0.52948,0.574925
1629811242223,-0.598105,0.5380199999999999,0.574803
1629811242232,-0.597556,0.5398499999999999,0.57584
1629811242242,-0.596275,0.538813,0.57401
1629811242251,-0.596702,0.5367999999999999,0.572973
1629811242261,-0.59841,0.537288,0.573278
1629811242271,-0.599996,0.540582,0.5724239999999999
1629811242280,-0.601704,0.540521,0.57279
1629811242290,-0.601277,0.538142,0.573217
1629811242299,-0.600606,0.5367999999999999,0.573034
1629811242309,-0.600728,0.537898,0.573949
1629811242319,-0.601643,0.540521,0.574681
1629811242328,-0.601338,0.541314,0.57584
1629811242338,-0.600911,0.540277,0.575901
1629811242347,-0.598105,0.539789,0.575169
1629811242357,-0.597739,0.538996,0.574071
1629811242367,-0.598105,0.538569,0.573278
1629811242376,-0.598837,0.537898,0.573278
1629811242386,-0.599508,0.538142,0.575596
1629811242395,-0.599386,0.538142,0.571082
1629811242405,-0.600484,0.540338,0.569191
1629811242415,-0.602009,0.541619,0.5696789999999999
1629811242424,-0.601338,0.537654,0.569618
1629811242434,-0.599264,0.530944,0.571936
1629811242443,-0.596702,0.528687,0.572973
1629811242453,-0.597495,0.533201,0.575474
1629811242463,-0.598105,0.535153,0.576755
1629811242472,-0.59841,0.532713,0.577914
1629811242482,-0.600667,0.535763,0.575901
1629811242491,-0.601704,0.536251,0.574498
1629811242501,-0.603351,0.536068,0.573278
1629811242511,-0.60512,0.535214,0.572668
1629811242520,-0.607621,0.533872,0.572302
1629811242530,-0.608719,0.53497,0.571936
1629811242539,-0.61,0.533689,0.5702889999999999
1629811242549,-0.610854,0.53314,0.5712039999999999
1629811242559,-0.6095119999999999,0.532042,0.570533
1629811242568,-0.610366,0.531798,0.571753
1629811242578,-0.6101219999999999,0.53009,0.571326
1629811242587,-0.610366,0.529724,0.572851
1629811242597,-0.608841,0.530212,0.577182
1629811242607,-0.6085969999999999,0.531066,0.578829
1629811242616,-0.608658,0.533506,0.580476
1629811242626,-0.61061,0.533628,0.579683
1629811242635,-0.609878,0.53314,0.578524
1629811242645,-0.609878,0.531798,0.575291
1629811242655,-0.611403,0.528382,0.57218
1629811242664,-0.610244,0.526186,0.57279
1629811242674,-0.608719,0.524966,0.573034
1629811242683,-0.613538,0.53497,0.573339
1629811242693,-0.612318,0.538691,0.574254
1629811242703,-0.606645,0.529175,0.577731
1629811242712,-0.603412,0.519232,0.579805
1629811242722,-0.60268,0.520269,0.581025
1629811242731,-0.603412,0.527528,0.581086
1629811242741,-0.601216,0.529968,0.578341
1629811242751,-0.600118,0.532042,0.577853
1629811242760,-0.59658,0.53131,0.574376
1629811242770,-0.596336,0.531005,0.572912
1629811242779,-0.593957,0.52948,0.572363
1629811242789,-0.593225,0.528809,0.572302
1629811242799,-0.591639,0.529175,0.57279
1629811242808,-0.59048,0.528687,0.571143
1629811242818,-0.5900529999999999,0.530456,0.573888
1629811242827,-0.5891379999999999,0.531188,0.575962
1629811242837,-0.588894,0.5307,0.579866
1629811242847,-0.5885279999999999,0.529602,0.582977
1629811242856,-0.588406,0.528992,0.583648
1629811242866,-0.589199,0.527162,0.584441
1629811242875,-0.58987,0.52765,0.585234
1629811242885,-0.590724,0.527772,0.585661
1629811242895,-0.5906629999999999,0.526552,0.585905
1629811242904,-0.592432,0.527772,0.583221
1629811242914,-0.594689,0.528809,0.58194
1629811242923,-0.598593,0.532408,0.580476
1629811242933,-0.60024,0.532774,0.578585
1629811242943,-0.600728,0.530517,0.577426
1629811242952,-0.602558,0.531554,0.576572
1629811242962,-0.603107,0.533445,0.575352
1629811242971,-0.604266,0.535336,0.576938
1629811242981,-0.60512,0.536373,0.575535
1629811242991,-0.604998,0.5361899999999999,0.574071
1629811243000,-0.606157,0.536129,0.573156
1629811243010,-0.606096,0.535885,0.571387
1629811243019,-0.606462,0.533628,0.56974
1629811243029,-0.607072,0.53314,0.568276
1629811243039,-0.6039,0.535397,0.5693739999999999
1629811243048,-0.603839,0.534482,0.570716
1629811243058,-0.603778,0.53436,0.571875
1629811243067,-0.602924,0.533079,0.574864
1629811243077,-0.602375,0.530944,0.577975
1629811243087,-0.601826,0.528931,0.58194
1629811243096,-0.600484,0.52704,0.583831
1629811243106,-0.599386,0.527223,0.5885279999999999
1629811243115,-0.597678,0.525515,0.592981
1629811243125,-0.597617,0.5246,0.595604
1629811243135,-0.598593,0.524722,0.597983
1629811243144,-0.598776,0.52521,0.598898
1629811243154,-0.598898,0.525576,0.594811
1629811243163,-0.602741,0.525759,0.587979
1629811243173,-0.602497,0.52399,0.584624
1629811243183,-0.601826,0.5216109999999999,0.581818
1629811243192,-0.607499,0.52826,0.578524
1629811243202,-0.607377,0.530944,0.576572
1629811243211,-0.603595,0.522282,0.576023
1629811243221,-0.602192,0.512278,0.577487
1629811243231,-0.60573,0.51179,0.574498
1629811243240,-0.609939,0.51484,0.574132
1629811243250,-0.611098,0.519598,0.573278
1629811243259,-0.6128669999999999,0.524234,0.571997
1629811243269,-0.614209,0.525759,0.5718139999999999
1629811243279,-0.616283,0.525454,0.5705939999999999
1629811243288,-0.6171369999999999,0.525149,0.571631
1629811243298,-0.617869,0.523807,0.5715089999999999
1629811243307,-0.617625,0.5231359999999999,0.571326
1629811243317,-0.618296,0.524539,0.570777
1629811243327,-0.6174419999999999,0.525393,0.5712039999999999
1629811243336,-0.617808,0.525271,0.571387
1629811243346,-0.61732,0.525759,0.570716
1629811243355,-0.617869,0.526003,0.570716
1629811243365,-0.616344,0.528016,0.569923
1629811243375,-0.6153069999999999,0.529053,0.569191
1629811243384,-0.614941,0.528199,0.5702889999999999
1629811243394,-0.61549,0.528504,0.5708989999999999
1629811243403,-0.612745,0.526186,0.571936
1629811243413,-0.611891,0.525088,0.568093
1629811243423,-0.612989,0.528016,0.566812
1629811243432,-0.614331,0.530029,0.565836
1629811243442,-0.613599,0.528016,0.564311
1629811243451,-0.612806,0.525698,0.5651039999999999
1629811243461,-0.612623,0.526796,0.565836
1629811243471,-0.612806,0.530334,0.567178
1629811243480,-0.61183,0.531554,0.567727
1629811243490,-0.612196,0.533079,0.56791
1629811243499,-0.611098,0.5307,0.5673
1629811243509,-0.611159,0.529724,0.5666289999999999
1629811243519,-0.611281,0.527833,0.565043
1629811243528,-0.6104269999999999,0.52704,0.56364
1629811243538,-0.610061,0.526735,0.563396
1629811243547,-0.611464,0.527406,0.5641889999999999
1629811243557,-0.610305,0.528382,0.564311
1629811243567,-0.609085,0.525881,0.564128
1629811243576,-0.610244,0.525698,0.5651039999999999
1629811243586,-0.609634,0.525454,0.564555
1629811243595,-0.6104269999999999,0.5246,0.563091
1629811243605,-0.61122,0.526064,0.56181
1629811243615,-0.610915,0.525149,0.5608339999999999
1629811243624,-0.610305,0.525088,0.5611389999999999
1629811243634,-0.612196,0.5231359999999999,0.5614439999999999
1629811243643,-0.6116469999999999,0.522099,0.562176
1629811243653,-0.612379,0.523014,0.561688
1629811243663,-0.614331,0.5237459999999999,0.560285
1629811243672,-0.616649,0.525088,0.558028
1629811243682,-0.619455,0.527284,0.555954
1629811243691,-0.621041,0.526552,0.555771
1629811243701,-0.6171369999999999,0.5206959999999999,0.554978
1629811243711,-0.618235,0.525332,0.552721
1629811243720,-0.623603,0.535641,0.558882
1629811243730,-0.62281,0.53131,0.565348
1629811243739,-0.62159,0.519598,0.573217
1629811243749,-0.624457,0.5231359999999999,0.5795
1629811243759,-0.626897,0.531981,0.582245
1629811243768,-0.626348,0.5367999999999999,0.580842
1629811243778,-0.626958,0.541314,0.578585
1629811243787,-0.62586,0.539972,0.574071
1629811243797,-0.624335,0.536068,0.568337
1629811243807,-0.622871,0.532957,0.5673
1629811243816,-0.620248,0.532286,0.566385
1629811243826,-0.619516,0.530517,0.56608
1629811243835,-0.6195769999999999,0.530822,0.563762
1629811243845,-0.619943,0.535885,0.5620539999999999
1629811243855,-0.6201869999999999,0.538996,0.5617489999999999
1629811243864,-0.6195769999999999,0.539423,0.560773
1629811243874,-0.61793,0.5367999999999999,0.559126
1629811243883,-0.6159169999999999,0.534055,0.556503
1629811243893,-0.614636,0.532957,0.556564
1629811243903,-0.612318,0.532103,0.556564
1629811243912,-0.6119519999999999,0.530578,0.55815
1629811243922,-0.610061,0.529297,0.558577
1629811243931,-0.6095119999999999,0.531066,0.555405
1629811243941,-0.60878,0.531188,0.554185
1629811243951,-0.611159,0.53131,0.553148
1629811243960,-0.612135,0.526735,0.551989
1629811243970,-0.613599,0.525576,0.551684
1629811243979,-0.616649,0.53131,0.551379
1629811243989,-0.6180519999999999,0.5374099999999999,0.551989
1629811243999,-0.618235,0.538569,0.551867
1629811244008,-0.61671,0.536373,0.551196
1629811244018,-0.616649,0.531371,0.549976
1629811244027,-0.615734,0.526857,0.549244
1629811244037,-0.616893,0.524539,0.548024
1629811244047,-0.6195769999999999,0.525515,0.548939
1629811244056,-0.622444,0.530151,0.548573
1629811244066,-0.62464,0.531432,0.547841
1629811244075,-0.626958,0.532042,0.547841
1629811244085,-0.630679,0.531432,0.5477799999999999
1629811244095,-0.633424,0.53253,0.548207
1629811244104,-0.635742,0.533018,0.549427
1629811244114,-0.636413,0.53192,0.550464
1629811244123,-0.6365959999999999,0.53253,0.548512
1629811244133,-0.640134,0.537044,0.549305
1629811244143,-0.643367,0.539972,0.549366
1629811244152,-0.643855,0.539728,0.548878
1629811244162,-0.644465,0.5383249999999999,0.546316
1629811244171,-0.643672,0.536617,0.543876
1629811244181,-0.6451359999999999,0.5361899999999999,0.539972
1629811244191,-0.646661,0.537166,0.535397
1629811244200,-0.649284,0.536556,0.53131
1629811244210,-0.65148,0.532774,0.530578
1629811244219,-0.642757,0.53009,0.530578
1629811244229,-0.643245,0.533994,0.5246
1629811244239,-0.656299,0.542534,0.529114
1629811244248,-0.662033,0.5425949999999999,0.534055
1629811244258,-0.6618499999999999,0.539728,0.535824
1629811244267,-0.663009,0.547048,0.533689
1629811244277,-0.662704,0.552538,0.528809
1629811244287,-0.6612399999999999,0.552782,0.518805
1629811244296,-0.6581899999999999,0.551562,0.507276
1629811244306,-0.6569699999999999,0.547292,0.496967
1629811244315,-0.655384,0.543998,0.487939
1629811244325,-0.655994,0.5462549999999999,0.48440099999999997
1629811244335,-0.655689,0.548146,0.481961
1629811244344,-0.654347,0.549366,0.48068
1629811244354,-0.654286,0.552355,0.48092399999999996
1629811244363,-0.65453,0.560041,0.48031399999999996
1629811244373,-0.653615,0.56425,0.479521
1629811244383,-0.650382,0.56425,0.478301
1629811244392,-0.646539,0.561566,0.476288
1629811244402,-0.6442209999999999,0.561322,0.47397
1629811244411,-0.6423909999999999,0.5608339999999999,0.47031
1629811244421,-0.6396459999999999,0.5626639999999999,0.466528
1629811244431,-0.638853,0.56425,0.462746
1629811244440,-0.637328,0.567422,0.456707
1629811244450,-0.63623,0.57218,0.449387
1629811244459,-0.639097,0.578158,0.447984
1629811244469,-0.643672,0.577304,0.447557
1629811244479,-0.6445259999999999,0.576023,0.449143
1629811244488,-0.6436109999999999,0.578646,0.451888
1629811244498,-0.645807,0.584807,0.453352
1629811244507,-0.648064,0.588406,0.453108
1629811244517,-0.649406,0.588955,0.451278
1629811244527,-0.649162,0.5870029999999999,0.448594
1629811244536,-0.647942,0.585112,0.44895999999999997
1629811244546,-0.64721,0.582916,0.448838
1629811244555,-0.647942,0.582916,0.449448
1629811244565,-0.65026,0.585722,0.45078999999999997
1629811244575,-0.650687,0.586881,0.451339
1629811244584,-0.650748,0.586576,0.450302
1629811244594,-0.654103,0.588284,0.449448
1629811244603,-0.657031,0.592981,0.44987499999999997
1629811244613,-0.656604,0.594567,0.44987499999999997
1629811244623,-0.656421,0.5912729999999999,0.44682499999999997
1629811244632,-0.655384,0.588345,0.444873
1629811244642,-0.65453,0.58438,0.446398
1629811244651,-0.653615,0.579378,0.447679
1629811244661,-0.653249,0.575718,0.44865499999999997
1629811244671,-0.654164,0.573766,0.45017999999999997
1629811244680,-0.655262,0.5724239999999999,0.450546
1629811244690,-0.657031,0.573644,0.450668
1629811244699,-0.658007,0.571936,0.449448
1629811244709,-0.661057,0.568642,0.446215
1629811244719,-0.664473,0.569252,0.442677
1629811244728,-0.656482,0.568642,0.43846799999999997
1629811244738,-0.665632,0.576816,0.435601
1629811244747,-0.677893,0.581757,0.44469
1629811244757,-0.6800889999999999,0.578097,0.449753
1629811244767,-0.675758,0.578158,0.454328
1629811244776,-0.675026,0.58072,0.457134
1629811244786,-0.673684,0.583343,0.454206
1629811244795,-0.670451,0.574498,0.450302
1629811244805,-0.664656,0.562908,0.44456799999999996
1629811244815,-0.661484,0.55327,0.445056
1629811244824,-0.662704,0.549793,0.44712999999999997
1629811244834,-0.6688649999999999,0.554429,0.45139999999999997
1629811244843,-0.672098,0.556137,0.456768
1629811244853,-0.673013,0.555588,0.459574
1629811244863,-0.677405,0.5602239999999999,0.45994
1629811244872,-0.679723,0.563518,0.458964
1629811244882,-0.6794789999999999,0.56303,0.460489
1629811244891,-0.681126,0.5605289999999999,0.459513
1629811244901,-0.682712,0.557845,0.458964
1629811244911,-0.683322,0.554978,0.460184
1629811244920,-0.685518,0.553087,0.460306
1629811244930,-0.6886289999999999,0.555222,0.460123
1629811244939,-0.690886,0.557723,0.46097699999999997
1629811244949,-0.692106,0.561078,0.46067199999999997
1629811244959,-0.6916789999999999,0.562237,0.456768
1629811244968,-0.693631,0.565531,0.454816
1629811244978,-0.694973,0.564982,0.454206
1629811244987,-0.6932039999999999,0.559919,0.454023
1629811244997,-0.69113,0.559309,0.45444999999999997
1629811245007,-0.688202,0.561871,0.455731
1629811245016,-0.685823,0.561505,0.457866
1629811245026,-0.685701,0.562908,0.46067199999999997
1629811245035,-0.685152,0.562115,0.46280699999999997
1629811245045,-0.685091,0.557906,0.466894
1629811245055,-0.6831389999999999,0.552111,0.470432
1629811245064,-0.683505,0.551135,0.47268899999999997
1629811245074,-0.6837489999999999,0.550708,0.47702
1629811245083,-0.681431,0.553026,0.478972
1629811245093,-0.676185,0.554734,0.478362
1629811245103,-0.67588,0.559675,0.47482399999999997
1629811245112,-0.675697,0.562542,0.475922
1629811245122,-0.675148,0.564555,0.477325
1629811245131,-0.672281,0.559614,0.481961
1629811245141,-0.669414,0.552233,0.486292
1629811245151,-0.665327,0.550098,0.488854
1629811245160,-0.661972,0.547292,0.49080599999999996
1629811245170,-0.659776,0.546499,0.49105
1629811245179,-0.655567,0.546621,0.491477
1629811245189,-0.652456,0.550037,0.48745099999999997
1629811245199,-0.649101,0.555466,0.483974
1629811245208,-0.645197,0.5608339999999999,0.478362
1629811245218,-0.64355,0.562908,0.471042
1629811245227,-0.64538,0.563457,0.46799199999999996
1629811245237,-0.640073,0.561078,0.46738199999999996
1629811245247,-0.640012,0.5623589999999999,0.46646699999999996
1629811245256,-0.644648,0.567422,0.468724
1629811245266,-0.64294,0.5617489999999999,0.473482
1629811245275,-0.637694,0.556137,0.476715
1629811245285,-0.638243,0.56486,0.476837
1629811245295,-0.639463,0.577914,0.479826
1629811245304,-0.637145,0.578768,0.479643
1629811245314,-0.63379,0.575352,0.480253
1629811245323,-0.630374,0.5702889999999999,0.481107
1629811245333,-0.628544,0.568337,0.481168
1629811245343,-0.629642,0.5693739999999999,0.482449
1629811245352,-0.629825,0.5718139999999999,0.483059
1629811245362,-0.631777,0.573217,0.485194
1629811245371,-0.632509,0.575657,0.488183
1629811245381,-0.6335459999999999,0.57889,0.49019599999999997
1629811245391,-0.6362909999999999,0.581696,0.49288
1629811245400,-0.637938,0.582489,0.496174
1629811245410,-0.637694,0.583038,0.498736
1629811245419,-0.635559,0.583648,0.496906
1629811245429,-0.635742,0.582062,0.495442
1629811245439,-0.6341559999999999,0.580415,0.493612
1629811245448,-0.634095,0.581208,0.492514
1629811245458,-0.632265,0.580293,0.49288
1629811245467,-0.628483,0.576999,0.489708
1629811245477,-0.627141,0.575596,0.487512
1629811245487,-0.626958,0.575596,0.487634
1629811245496,-0.628544,0.575108,0.488
1629811245506,-0.628605,0.571021,0.489098
1629811245515,-0.630496,0.573217,0.489708
1629811245525,-0.6338509999999999,0.578646,0.491904
1629811245535,-0.635132,0.581574,0.49141599999999996
1629811245544,-0.633668,0.581452,0.49105
1629811245554,-0.632143,0.575962,0.49050099999999996
1629811245563,-0.630618,0.573522,0.48958599999999997
1629811245573,-0.62952,0.5705939999999999,0.488183
1629811245583,-0.63257,0.5702889999999999,0.48745099999999997
1629811245592,-0.632082,0.571997,0.486353
1629811245602,-0.632204,0.569252,0.485133
1629811245611,-0.631777,0.564982,0.483059
1629811245621,-0.6320209999999999,0.56181,0.482937
1629811245631,-0.633058,0.560468,0.481046
1629811245640,-0.635803,0.559919,0.480558
1629811245650,-0.638487,0.560102,0.48000899999999996
1629811245659,-0.6420859999999999,0.561261,0.480375
1629811245669,-0.6442209999999999,0.5602239999999999,0.481839
1629811245679,-0.647149,0.5608339999999999,0.483425
1629811245688,-0.649467,0.559553,0.48592599999999997
1629811245698,-0.652883,0.559492,0.486414
1629811245707,-0.654469,0.558333,0.486719
1629811245717,-0.654774,0.555161,0.487695
1629811245727,-0.656848,0.554063,0.488305
1629811245736,-0.659166,0.553514,0.486658
1629811245746,-0.662704,0.553087,0.486963
1629811245755,-0.6618499999999999,0.551684,0.489159
1629811245765,-0.667706,0.560895,0.488793
1629811245775,-0.671793,0.566446,0.493368
1629811245784,-0.6679499999999999,0.561017,0.49611299999999997
1629811245794,-0.663009,0.546682,0.500688
1629811245803,-0.665693,0.546316,0.499224
1629811245813,-0.6700849999999999,0.552965,0.498492
1629811245823,-0.670756,0.558211,0.498614
1629811245832,-0.670634,0.561261,0.498187
1629811245842,-0.668987,0.561078,0.49885799999999997
1629811245851,-0.668438,0.559553,0.499224
1629811245861,-0.668194,0.559553,0.501359
1629811245871,-0.667096,0.559614,0.501603
1629811245880,-0.664351,0.557235,0.501481
1629811245890,-0.6624599999999999,0.555405,0.501664
1629811245899,-0.660508,0.555893,0.50203
1629811245909,-0.659166,0.55693,0.500322
1629811245919,-0.657702,0.555893,0.499651
1629811245928,-0.655628,0.555344,0.49898
1629811245938,-0.653432,0.553758,0.500139
1629811245947,-0.652578,0.55022,0.500749
1629811245957,-0.651907,0.5483899999999999,0.502396
1629811245967,-0.652273,0.548512,0.503494
1629811245976,-0.651785,0.549244,0.505629
1629811245986,-0.650992,0.547536,0.503494
1629811245995,-0.652822,0.548024,0.49977299999999997
1629811246005,-0.653798,0.549244,0.498919
1629811246015,-0.654408,0.55022,0.49733299999999997
1629811246024,-0.655201,0.550098,0.494954
1629811246034,-0.654774,0.549183,0.493856
1629811246043,-0.653737,0.55022,0.494344
1629811246053,-0.653676,0.550525,0.493734
1629811246063,-0.652578,0.55205,0.49355099999999996
1629811246072,-0.651663,0.552416,0.493063
1629811246082,-0.651724,0.550769,0.49172099999999996
1629811246091,-0.649589,0.550586,0.49105
1629811246101,-0.64843,0.548634,0.490623
1629811246111,-0.647637,0.548695,0.490623
1629811246120,-0.64599,0.547902,0.490318
1629811246130,-0.645502,0.547719,0.491538
1629811246139,-0.6451359999999999,0.546682,0.491233
1629811246149,-0.644038,0.545706,0.491599
1629811246159,-0.64538,0.546316,0.492148
1629811246168,-0.645502,0.546926,0.49263599999999996
1629811246178,-0.646905,0.547902,0.492758
1629811246187,-0.64843,0.549305,0.493429
1629811246197,-0.647454,0.551318,0.494466
1629811246207,-0.646783,0.550952,0.496906
1629811246216,-0.646112,0.549488,0.499407
1629811246226,-0.64477,0.549061,0.500078
1629811246235,-0.644343,0.546804,0.500932
1629811246245,-0.643184,0.546804,0.50203
1629811246255,-0.6426959999999999,0.549488,0.500566
1629811246264,-0.647088,0.551074,0.498187
1629811246274,-0.648491,0.550586,0.499041
1629811246283,-0.650626,0.551928,0.498736
1629811246293,-0.65514,0.560712,0.49837
1629811246303,-0.656848,0.56425,0.500627
1629811246312,-0.653005,0.556259,0.503128
1629811246322,-0.649772,0.5459499999999999,0.506056
1629811246331,-0.651297,0.547048,0.507093
1629811246341,-0.652883,0.552721,0.508435
1629811246351,-0.652212,0.557784,0.50935
1629811246360,-0.653676,0.561566,0.510326
1629811246370,-0.651114,0.560773,0.512217
1629811246379,-0.649894,0.557296,0.512705
1629811246389,-0.649345,0.552843,0.512278
1629811246399,-0.647698,0.549488,0.511546
1629811246408,-0.646539,0.547597,0.510936
1629811246418,-0.644282,0.5459499999999999,0.509411
1629811246427,-0.64233,0.545096,0.507398
1629811246437,-0.641842,0.544913,0.507581
1629811246447,-0.643123,0.547414,0.508008
1629811246456,-0.6426959999999999,0.5471699999999999,0.509777
1629811246466,-0.643733,0.544608,0.510692
1629811246475,-0.6423909999999999,0.5435099999999999,0.508862
1629811246485,-0.640805,0.542229,0.507825
1629811246495,-0.641415,0.543388,0.508862
1629811246504,-0.641415,0.5459499999999999,0.508923
1629811246514,-0.640744,0.549244,0.504226
1629811246523,-0.640622,0.551989,0.501725
1629811246533,-0.6402559999999999,0.551074,0.499224
1629811246543,-0.640012,0.548451,0.49733299999999997
1629811246552,-0.638182,0.545706,0.496784
1629811246562,-0.637267,0.5425949999999999,0.495869
1629811246571,-0.638243,0.5453399999999999,0.495991
1629811246581,-0.6381209999999999,0.546072,0.497577
1629811246591,-0.637084,0.545279,0.497272
1629811246600,-0.636718,0.543571,0.498065
1629811246610,-0.637877,0.539179,0.497272
1629811246619,-0.638304,0.539057,0.495869
1629811246629,-0.639463,0.540216,0.495991
1629811246639,-0.642269,0.542778,0.49641799999999997
1629811246648,-0.644282,0.543876,0.497577
1629811246658,-0.646661,0.5432049999999999,0.499895
1629811246667,-0.64782,0.540277,0.50081
1629811246677,-0.649101,0.536922,0.503006
1629811246687,-0.65148,0.532896,0.506239
1629811246696,-0.653798,0.529968,0.509228
1629811246706,-0.655811,0.528199,0.511058
1629811246715,-0.660752,0.529175,0.511668
1629811246725,-0.6627649999999999,0.533689,0.512949
1629811246735,-0.665998,0.535458,0.513559
1629811246744,-0.666547,0.532652,0.5142909999999999
1629811246754,-0.668499,0.528931,0.514718
1629811246763,-0.669597,0.526064,0.513437
1629811246773,-0.669353,0.523258,0.512827
1629811246783,-0.6697799999999999,0.5203909999999999,0.513315
1629811246792,-0.672403,0.520574,0.5124
1629811246802,-0.67466,0.517402,0.513803
1629811246811,-0.670878,0.511729,0.514352
1629811246821,-0.672098,0.513193,0.511912
1629811246831,-0.679601,0.5194759999999999,0.5152059999999999
1629811246840,-0.6810039999999999,0.5124,0.520818
1629811246850,-0.682285,0.505141,0.527284
1629811246859,-0.6861889999999999,0.5124,0.532286
1629811246869,-0.6922889999999999,0.520574,0.536312
1629811246879,-0.692777,0.521062,0.534543
1629811246888,-0.690337,0.5182559999999999,0.531432
1629811246898,-0.6880189999999999,0.511729,0.526369
1629811246907,-0.6861889999999999,0.505263,0.521672
1629811246917,-0.685396,0.501359,0.51911
1629811246927,-0.687226,0.502396,0.520147
1629811246936,-0.6874089999999999,0.502884,0.52521
1629811246946,-0.688263,0.500566,0.529846
1629811246955,-0.6893,0.50264,0.531737
1629811246965,-0.6893,0.505812,0.532957
1629811246975,-0.69052,0.508496,0.530456
1629811246984,-0.690398,0.511668,0.526796
1629811246994,-0.687531,0.512827,0.5228309999999999
1629811247003,-0.684176,0.509167,0.520025
1629811247013,-0.68259,0.508191,0.516914
1629811247023,-0.680821,0.510082,0.517097
1629811247032,-0.676124,0.51118,0.51728
1629811247042,-0.671427,0.5124,0.5130709999999999
1629811247051,-0.668499,0.513742,0.509106
1629811247061,-0.665632,0.513132,0.50691
1629811247071,-0.664168,0.509594,0.50569
1629811247080,-0.662826,0.51179,0.504348
1629811247090,-0.660874,0.522648,0.503311
1629811247099,-0.659044,0.529724,0.503738
1629811247109,-0.658434,0.532164,0.50203
1629811247119,-0.655689,0.533567,0.503433
1629811247128,-0.652761,0.53375,0.502762
1629811247138,-0.650443,0.533018,0.503006
1629811247147,-0.648796,0.533323,0.500993
1629811247157,-0.646722,0.534909,0.501603
1629811247167,-0.64538,0.536068,0.500688
1629811247176,-0.6439159999999999,0.539301,0.49916299999999997
1629811247186,-0.64355,0.540399,0.498431
1629811247195,-0.645075,0.543388,0.49794299999999997
1629811247205,-0.645197,0.546438,0.499956
1629811247215,-0.645197,0.549305,0.502091
1629811247224,-0.644587,0.549244,0.502884
1629811247234,-0.644953,0.551379,0.503067
1629811247243,-0.643794,0.553392,0.503006
1629811247253,-0.644404,0.555039,0.504897
1629811247263,-0.642574,0.554124,0.505751
1629811247272,-0.64233,0.55205,0.506422
1629811247282,-0.64111,0.55022,0.50813
1629811247291,-0.63867,0.548268,0.509716
1629811247301,-0.63928,0.548634,0.509838
1629811247311,-0.638548,0.546377,0.50752
1629811247320,-0.6420859999999999,0.546316,0.506178
1629811247330,-0.637877,0.547536,0.504836
1629811247339,-0.6359859999999999,0.5477799999999999,0.499712
1629811247349,-0.646539,0.551989,0.502823
1629811247359,-0.651541,0.5465599999999999,0.50996
1629811247368,-0.64843,0.5428999999999999,0.51118
1629811247378,-0.648125,0.546743,0.507581
1629811247387,-0.64965,0.54961,0.504531
1629811247397,-0.647454,0.5453399999999999,0.500688
1629811247407,-0.647515,0.538752,0.494344
1629811247416,-0.645319,0.533872,0.491172
1629811247426,-0.648125,0.535214,0.487024
1629811247435,-0.65148,0.5398499999999999,0.487939
1629811247445,-0.652761,0.5410699999999999,0.490135
1629811247455,-0.651419,0.5380199999999999,0.493368
1629811247464,-0.651968,0.538996,0.494344
1629811247474,-0.653066,0.542839,0.494771
1629811247483,-0.653981,0.545889,0.496296
1629811247493,-0.655506,0.5462549999999999,0.499346
1629811247503,-0.654103,0.548268,0.499712
1629811247512,-0.653493,0.549671,0.500505
1629811247522,-0.651907,0.553636,0.500688
1629811247531,-0.652212,0.557723,0.498797
1629811247541,-0.65026,0.558943,0.500322
1629811247551,-0.643367,0.55632,0.50081
1629811247560,-0.638304,0.553331,0.498736
1629811247570,-0.636474,0.554307,0.498675
1629811247579,-0.63562,0.55327,0.501054
1629811247589,-0.633363,0.5447299999999999,0.503433
1629811247599,-0.630984,0.544486,0.508435
1629811247608,-0.634095,0.547658,0.51301
1629811247618,-0.637938,0.558211,0.5152059999999999
1629811247627,-0.64111,0.564616,0.516853
1629811247637,-0.642818,0.5675439999999999,0.515694
1629811247647,-0.644282,0.569252,0.512034
1629811247656,-0.642879,0.564067,0.508252
1629811247666,-0.640744,0.557784,0.5063
1629811247675,-0.638609,0.550586,0.506971
1629811247685,-0.638548,0.546682,0.507398
1629811247695,-0.6405,0.543388,0.507032
1629811247704,-0.641537,0.540704,0.506483
1629811247714,-0.64721,0.543449,0.506544
1629811247723,-0.652395,0.548695,0.5063
1629811247733,-0.656848,0.551318,0.5063
1629811247743,-0.660569,0.548939,0.506178
1629811247752,-0.664351,0.5483899999999999,0.504104
1629811247762,-0.665998,0.5468649999999999,0.50386
1629811247771,-0.665998,0.543144,0.503616
1629811247781,-0.665998,0.537959,0.504348
1629811247791,-0.665571,0.533079,0.504897
1629811247800,-0.663497,0.528992,0.503006
1629811247810,-0.662094,0.527467,0.501908
1629811247819,-0.662338,0.528016,0.501176
1629811247829,-0.664473,0.526369,0.499895
1629811247839,-0.667523,0.525332,0.500444
1629811247848,-0.664229,0.523319,0.501237
1629811247858,-0.669048,0.533201,0.500383
1629811247867,-0.673074,0.537837,0.506849
1629811247877,-0.674111,0.529785,0.511241
1629811247887,-0.673135,0.523197,0.512827
1629811247896,-0.675636,0.531981,0.512949
1629811247906,-0.675209,0.540582,0.515084
1629811247915,-0.671793,0.541619,0.51362
1629811247925,-0.6691699999999999,0.540033,0.511363
1629811247935,-0.665449,0.535031,0.510143
1629811247944,-0.6618499999999999,0.532774,0.508252
1629811247954,-0.6587999999999999,0.531859,0.509289
1629811247963,-0.6578849999999999,0.532103,0.510997
1629811247973,-0.6563599999999999,0.534726,0.5133759999999999
1629811247983,-0.655262,0.537288,0.515328
1629811247992,-0.654164,0.538508,0.516853
1629811248002,-0.652578,0.540948,0.5194759999999999
1629811248011,-0.651175,0.542961,0.520879
1629811248021,-0.648735,0.543266,0.52155
1629811248031,-0.646905,0.542351,0.520757
1629811248040,-0.644343,0.541436,0.519598
1629811248050,-0.6433059999999999,0.542839,0.518317
1629811248059,-0.642208,0.543876,0.519354
1629811248069,-0.641232,0.543571,0.51972
1629811248079,-0.639829,0.544608,0.514657
1629811248088,-0.6396459999999999,0.547414,0.51301
1629811248098,-0.6402559999999999,0.548939,0.511119
1629811248107,-0.6390359999999999,0.543327,0.508557
1629811248117,-0.637389,0.538752,0.508496
1629811248127,-0.6369009999999999,0.541619,0.508557
1629811248136,-0.63623,0.545279,0.510204
1629811248146,-0.6359859999999999,0.546011,0.511668
1629811248155,-0.6353759999999999,0.546438,0.511424
1629811248165,-0.6338509999999999,0.545401,0.512888
1629811248175,-0.6332409999999999,0.544913,0.513315
1629811248184,-0.633912,0.543693,0.5130709999999999
1629811248194,-0.635132,0.542107,0.513498
1629811248203,-0.634888,0.5422899999999999,0.516182
1629811248213,-0.63623,0.542839,0.516792
1629811248223,-0.636352,0.542046,0.516548
1629811248232,-0.636535,0.5416799999999999,0.516609
1629811248242,-0.637023,0.541497,0.516975
1629811248251,-0.6372059999999999,0.5401549999999999,0.518134
1629811248261,-0.638182,0.539118,0.517158
1629811248271,-0.6390359999999999,0.5377149999999999,0.516548
1629811248280,-0.6387309999999999,0.5364949999999999,0.5176459999999999
1629811248290,-0.639707,0.535824,0.519415
1629811248299,-0.640988,0.536678,0.5200859999999999
1629811248309,-0.643428,0.539362,0.5213059999999999
1629811248319,-0.644465,0.541131,0.51972
1629811248328,-0.6451359999999999,0.542656,0.519354
1629811248338,-0.646173,0.544669,0.5182559999999999
1629811248347,-0.646661,0.5441199999999999,0.51484
1629811248357,-0.647149,0.543083,0.514108
1629811248367,-0.645624,0.539606,0.5161209999999999
1629811248376,-0.649528,0.5477799999999999,0.515755
1629811248386,-0.651114,0.554002,0.519415
1629811248395,-0.646722,0.549793,0.5222209999999999
1629811248405,-0.6420859999999999,0.5364949999999999,0.524539
1629811248415,-0.643855,0.536861,0.5237459999999999
1629811248424,-0.645563,0.543632,0.524356
1629811248434,-0.644648,0.548207,0.525149
1629811248443,-0.643733,0.550403,0.525332
1629811248453,-0.64355,0.550891,0.525759
1629811248463,-0.641232,0.548512,0.524539
1629811248472,-0.6402559999999999,0.546316,0.524783
1629811248482,-0.63806,0.544059,0.523929
1629811248491,-0.63501,0.542656,0.520635
1629811248501,-0.633058,0.5404599999999999,0.519293
1629811248511,-0.633729,0.540338,0.518683
1629811248520,-0.632448,0.540826,0.518134
1629811248530,-0.632814,0.541192,0.517402
1629811248539,-0.633302,0.541924,0.515999
1629811248549,-0.633912,0.542046,0.515023
1629811248559,-0.6335459999999999,0.5413749999999999,0.513864
1629811248568,-0.634095,0.540704,0.513498
1629811248578,-0.635254,0.540582,0.513498
1629811248587,-0.6362909999999999,0.540094,0.5161209999999999
1629811248597,-0.636047,0.538203,0.515328
1629811248607,-0.639524,0.538996,0.511546
1629811248616,-0.642574,0.540338,0.510936
1629811248626,-0.6457459999999999,0.541619,0.510814
1629811248635,-0.645075,0.536861,0.511424
1629811248645,-0.645563,0.535885,0.512522
1629811248655,-0.647637,0.5380199999999999,0.5133759999999999
1629811248664,-0.649711,0.539606,0.515572
1629811248674,-0.648796,0.540582,0.517829
1629811248683,-0.650748,0.539972,0.521977
1629811248693,-0.651114,0.5383249999999999,0.523624
1629811248703,-0.651663,0.536373,0.524966
1629811248712,-0.651968,0.535092,0.526979
1629811248722,-0.653554,0.535275,0.527772
1629811248731,-0.654774,0.536251,0.529724
1629811248741,-0.654164,0.535702,0.527894
1629811248751,-0.655384,0.534665,0.52643
1629811248760,-0.6554449999999999,0.533567,0.525759
1629811248770,-0.655506,0.534238,0.52704
1629811248779,-0.656482,0.53436,0.526979
1629811248789,-0.657641,0.532591,0.527284
1629811248799,-0.657214,0.531493,0.526186
1629811248808,-0.6569699999999999,0.531615,0.528138
1629811248818,-0.656177,0.529602,0.528992
1629811248827,-0.656177,0.529236,0.52948
1629811248837,-0.656421,0.529602,0.530456
1629811248847,-0.6563599999999999,0.532713,0.529724
1629811248856,-0.6557499999999999,0.533628,0.526918
1629811248866,-0.655872,0.533933,0.522648
1629811248875,-0.654286,0.534299,0.518439
1629811248885,-0.651419,0.530273,0.517524
1629811248895,-0.648674,0.530273,0.515755
1629811248904,-0.651663,0.537288,0.514657
1629811248914,-0.648308,0.539484,0.515633
1629811248923,-0.6426959999999999,0.531676,0.518622
1629811248933,-0.640805,0.525759,0.520818
1629811248943,-0.641964,0.527162,0.521184
1629811248952,-0.643062,0.530639,0.521245
1629811248962,-0.640439,0.533018,0.5200859999999999
1629811248971,-0.6405609999999999,0.53558,0.5191709999999999
1629811248981,-0.640439,0.537959,0.519659
1629811248991,-0.640378,0.538081,0.519964
1629811249000,-0.640378,0.536007,0.521733
1629811249010,-0.639402,0.534177,0.523868
1629811249019,-0.638548,0.536068,0.522892
1629811249029,-0.638182,0.536068,0.523075
1629811249039,-0.6384259999999999,0.536922,0.523685
1629811249048,-0.63867,0.5367999999999999,0.5234409999999999
1629811249058,-0.6384259999999999,0.536556,0.524173
1629811249067,-0.637084,0.533689,0.525332
1629811249077,-0.63623,0.531676,0.525759
1629811249087,-0.63562,0.532957,0.526674
1629811249096,-0.636657,0.533506,0.527284
1629811249106,-0.637572,0.533811,0.529663
1629811249115,-0.63745,0.532469,0.53253
1629811249125,-0.636535,0.531615,0.530761
1629811249135,-0.638548,0.531371,0.528504
1629811249144,-0.642879,0.536556,0.52521
1629811249154,-0.644404,0.538142,0.52521
1629811249163,-0.644953,0.535824,0.52643
1629811249173,-0.645624,0.537654,0.527223
1629811249183,-0.646539,0.540399,0.528992
1629811249192,-0.646478,0.541619,0.530639
1629811249202,-0.648064,0.542534,0.531493
1629811249211,-0.646966,0.542107,0.530273
1629811249221,-0.645929,0.539423,0.528748
1629811249231,-0.643489,0.536434,0.528382
1629811249240,-0.642879,0.535092,0.527711
1629811249250,-0.6433059999999999,0.536068,0.527162
1629811249259,-0.641842,0.537837,0.527223
1629811249269,-0.642208,0.538447,0.529663
1629811249279,-0.6414759999999999,0.538142,0.529236
1629811249288,-0.640927,0.536678,0.528748
1629811249298,-0.639097,0.536007,0.52704
1629811249307,-0.638792,0.5374099999999999,0.527162
1629811249317,-0.63745,0.536007,0.52704
1629811249327,-0.6365959999999999,0.53436,0.526857
1629811249336,-0.636169,0.534177,0.527467
1629811249346,-0.636108,0.534909,0.527406
1629811249355,-0.6359859999999999,0.535275,0.52704
1629811249365,-0.6365959999999999,0.535397,0.525942
1629811249375,-0.637267,0.537166,0.523563
1629811249384,-0.639158,0.536922,0.521855
1629811249394,-0.638792,0.5364949999999999,0.5197809999999999
1629811249403,-0.6396459999999999,0.537837,0.516487
1629811249413,-0.6426959999999999,0.540399,0.512705
1629811249423,-0.640683,0.536739,0.510631
1629811249432,-0.6341559999999999,0.532408,0.506483
1629811249442,-0.639402,0.541314,0.505629
1629811249451,-0.6423909999999999,0.543327,0.512705
1629811249461,-0.642574,0.535153,0.520269
1629811249471,-0.6430009999999999,0.53253,0.526674
1629811249480,-0.647515,0.544852,0.529602
1629811249490,-0.649162,0.551684,0.530944
1629811249499,-0.648979,0.552782,0.529114
1629811249509,-0.645929,0.550037,0.526125
1629811249519,-0.64416,0.543937,0.522404
1629811249528,-0.6408659999999999,0.5371049999999999,0.5203909999999999
1629811249538,-0.6420859999999999,0.53558,0.522038
1629811249547,-0.64233,0.5374099999999999,0.526552
1629811249557,-0.643672,0.539484,0.529297
1629811249567,-0.643367,0.541924,0.530639
1629811249576,-0.64416,0.543327,0.531493
1629811249586,-0.643489,0.544547,0.532835
1629811249595,-0.643489,0.543388,0.532835
1629811249605,-0.642757,0.5407649999999999,0.531859
1629811249615,-0.642025,0.539789,0.5307
1629811249624,-0.640805,0.539789,0.530212
1629811249634,-0.640317,0.539484,0.529419
1629811249643,-0.640439,0.540704,0.53009
1629811249653,-0.637694,0.5392399999999999,0.531188
1629811249663,-0.6375109999999999,0.5404599999999999,0.527162
1629811249672,-0.637267,0.542412,0.525576
1629811249682,-0.637877,0.5398499999999999,0.5240509999999999
1629811249691,-0.638304,0.533994,0.524661
1629811249701,-0.637999,0.5361899999999999,0.525088
1629811249711,-0.638304,0.543571,0.526613
1629811249720,-0.638548,0.5459499999999999,0.526918
1629811249730,-0.637328,0.544913,0.525698
1629811249739,-0.6350709999999999,0.5419849999999999,0.5240509999999999
1629811249749,-0.6335459999999999,0.537898,0.524234
1629811249759,-0.632265,0.532896,0.523075
1629811249768,-0.63074,0.533506,0.522892
1629811249778,-0.632448,0.537044,0.522099
1629811249787,-0.63257,0.539423,0.5225259999999999
1629811249797,-0.632875,0.538691,0.523075
1629811249807,-0.633485,0.536129,0.52338
1629811249816,-0.632875,0.533872,0.521733
1629811249826,-0.6323259999999999,0.532591,0.5237459999999999
1629811249835,-0.634278,0.532591,0.52521
1629811249845,-0.636047,0.531615,0.526186
1629811249855,-0.638792,0.534177,0.525759
1629811249864,-0.6408659999999999,0.539362,0.5246
1629811249874,-0.64355,0.540704,0.52399
1629811249883,-0.643428,0.540887,0.524173
1629811249893,-0.64233,0.5377149999999999,0.525576
1629811249903,-0.643123,0.535824,0.5231359999999999
1629811249912,-0.643977,0.536434,0.5219159999999999
1629811249922,-0.641842,0.536007,0.521977
1629811249931,-0.641903,0.533506,0.520025
1629811249941,-0.646783,0.534116,0.518988
1629811249951,-0.644465,0.535824,0.520208
1629811249960,-0.640195,0.538874,0.516365
1629811249970,-0.649833,0.544852,0.521733
1629811249979,-0.655811,0.541497,0.533994
1629811249989,-0.654042,0.539789,0.540338
1629811249999,-0.650138,0.543632,0.539362
1629811250008,-0.647088,0.547597,0.539911
1629811250018,-0.6433059999999999,0.542778,0.537166
1629811250027,-0.642574,0.536678,0.531371
1629811250037,-0.6399509999999999,0.53253,0.529114
1629811250047,-0.640683,0.53436,0.528321
1629811250056,-0.641232,0.537471,0.529602
1629811250066,-0.6405609999999999,0.5389349999999999,0.531554
1629811250075,-0.640744,0.538691,0.532896
1629811250085,-0.640378,0.539057,0.531981
1629811250095,-0.6396459999999999,0.539667,0.530151
1629811250104,-0.638609,0.538264,0.527162
1629811250114,-0.637633,0.535824,0.524966
1629811250123,-0.637389,0.535397,0.524417
1629811250133,-0.636718,0.535275,0.522953
1629811250143,-0.63562,0.533994,0.522282
1629811250152,-0.635254,0.532957,0.521123
1629811250162,-0.634705,0.532713,0.521672
1629811250171,-0.63318,0.533628,0.521428
1629811250181,-0.630618,0.534909,0.517158
1629811250191,-0.632204,0.536922,0.5145959999999999
1629811250200,-0.635559,0.536373,0.514962
1629811250210,-0.635803,0.530639,0.515999
1629811250219,-0.63745,0.531493,0.5167309999999999
1629811250229,-0.638304,0.537593,0.5188659999999999
1629811250239,-0.64111,0.542717,0.5219159999999999
1629811250248,-0.642452,0.5435099999999999,0.523807
1629811250258,-0.641903,0.541924,0.524173
1629811250267,-0.64294,0.541558,0.524661
1629811250277,-0.6420859999999999,0.540826,0.5246
1629811250287,-0.6430009999999999,0.538996,0.525088
1629811250296,-0.643184,0.5413749999999999,0.526369
1629811250306,-0.64477,0.5435099999999999,0.525881
1629811250315,-0.643062,0.545706,0.52643
1629811250325,-0.64172,0.543876,0.52521
1629811250335,-0.640317,0.541314,0.524844
1629811250344,-0.640073,0.540704,0.524356
1629811250354,-0.637938,0.537288,0.525698
1629811250363,-0.638243,0.534909,0.526491
1629811250373,-0.641354,0.536556,0.527772
1629811250383,-0.6430009999999999,0.541009,0.529236
1629811250392,-0.6442209999999999,0.541131,0.531798
1629811250402,-0.64599,0.542351,0.531798
1629811250411,-0.648552,0.544242,0.53192
1629811250421,-0.64965,0.543388,0.531554
1629811250431,-0.648247,0.541192,0.528382
1629811250440,-0.646783,0.539179,0.524539
1629811250450,-0.645624,0.5367999999999999,0.520025
1629811250459,-0.648125,0.5367999999999999,0.518683
1629811250469,-0.64294,0.534177,0.5173409999999999
1629811250479,-0.641232,0.5377149999999999,0.512949
1629811250488,-0.645807,0.544364,0.517707
1629811250498,-0.642635,0.536617,0.5225259999999999
1629811250507,-0.6384259999999999,0.5231359999999999,0.522892
1629811250517,-0.636047,0.526796,0.522892
1629811250527,-0.636535,0.532164,0.524295
1629811250536,-0.637328,0.53497,0.52521
1629811250546,-0.636535,0.533689,0.525759
1629811250555,-0.637389,0.531371,0.526064
1629811250565,-0.640317,0.532408,0.525393
1629811250575,-0.642635,0.536434,0.528199
1629811250584,-0.645319,0.5364949999999999,0.530822
1629811250594,-0.645624,0.535702,0.53131
1629811250603,-0.646478,0.535214,0.530822
1629811250613,-0.645563,0.536251,0.529541
1629811250623,-0.643184,0.536312,0.528992
1629811250632,-0.6405,0.536129,0.529419
1629811250642,-0.639524,0.53314,0.529724
1629811250651,-0.636718,0.53192,0.529663
1629811250661,-0.634888,0.53131,0.529175
1629811250671,-0.635193,0.532042,0.529236
1629811250680,-0.63623,0.534238,0.529846
1629811250690,-0.636535,0.534726,0.533384
1629811250699,-0.63745,0.536373,0.533872
1629811250709,-0.639158,0.539118,0.533994
1629811250719,-0.641232,0.542656,0.534787
1629811250728,-0.644099,0.541802,0.535153
1629811250738,-0.643733,0.53497,0.535092
1629811250747,-0.641598,0.536068,0.535641
1629811250757,-0.639768,0.5386299999999999,0.5361899999999999
1629811250767,-0.637572,0.540338,0.537532
1629811250776,-0.6344609999999999,0.5389349999999999,0.535763
1629811250786,-0.6353759999999999,0.537837,0.5361899999999999
1629811250795,-0.6353759999999999,0.537593,0.534787
1629811250805,-0.6369009999999999,0.538996,0.533689
1629811250815,-0.637145,0.5386299999999999,0.532957
1629811250824,-0.6375109999999999,0.5395449999999999,0.531249
1629811250834,-0.637999,0.541192,0.530456
1629811250843,-0.636962,0.541131,0.528992
1629811250853,-0.636108,0.539179,0.527406
1629811250863,-0.633668,0.535946,0.52704
1629811250872,-0.632143,0.536373,0.528443
1629811250882,-0.631777,0.535946,0.528626
1629811250891,-0.631838,0.534238,0.528443
1629811250901,-0.631594,0.532835,0.528748
1629811250911,-0.628483,0.530517,0.528565
1629811250920,-0.627995,0.528687,0.529968
1629811250930,-0.631228,0.531066,0.532896
1629811250939,-0.634522,0.53253,0.532591
1629811250949,-0.636657,0.534238,0.531615
1629811250959,-0.6372059999999999,0.534848,0.529907
1629811250968,-0.637633,0.533872,0.52826
1629811250978,-0.638914,0.533506,0.525393
1629811250987,-0.638914,0.531798,0.524722
1629811250997,-0.6375109999999999,0.531249,0.524356
1629811251007,-0.64294,0.541436,0.5228309999999999
1629811251016,-0.64416,0.544242,0.526979
1629811251026,-0.64111,0.535458,0.530212
1629811251035,-0.639402,0.5240509999999999,0.532652
1629811251045,-0.641415,0.528626,0.533506
1629811251055,-0.643855,0.537654,0.534665
1629811251064,-0.643733,0.5428999999999999,0.536251
1629811251074,-0.644038,0.546438,0.536922
1629811251083,-0.6426959999999999,0.545767,0.5371049999999999
1629811251093,-0.6423909999999999,0.542534,0.538447
1629811251103,-0.64294,0.5413749999999999,0.539179
1629811251112,-0.641354,0.541558,0.538813
1629811251122,-0.639219,0.541619,0.537532
1629811251131,-0.638365,0.542168,0.5374099999999999
1629811251141,-0.637938,0.543388,0.536373
1629811251151,-0.636352,0.543998,0.537898
1629811251160,-0.634339,0.5435099999999999,0.537593
1629811251170,-0.633363,0.542107,0.536434
1629811251179,-0.632204,0.5419849999999999,0.534848
1629811251189,-0.630679,0.5404599999999999,0.53497
1629811251199,-0.628727,0.5380199999999999,0.534543
1629811251208,-0.627812,0.538142,0.535275
1629811251218,-0.627324,0.5389349999999999,0.538142
1629811251227,-0.625738,0.537288,0.536251
1629811251237,-0.626592,0.538996,0.53192
1629811251247,-0.627873,0.539301,0.531127
1629811251256,-0.627507,0.539301,0.52948
1629811251266,-0.627751,0.535336,0.528626
1629811251275,-0.626592,0.534299,0.528931
1629811251285,-0.628178,0.536068,0.528748
1629811251295,-0.6283,0.539179,0.528687
1629811251304,-0.628056,0.540338,0.527711
1629811251314,-0.628056,0.538874,0.528504
1629811251323,-0.62769,0.5374099999999999,0.526674
1629811251333,-0.627934,0.5364949999999999,0.526735
1629811251343,-0.628666,0.536129,0.526369
1629811251352,-0.630191,0.537044,0.526613
1629811251362,-0.629947,0.538142,0.528626
1629811251371,-0.630496,0.539362,0.530761
1629811251381,-0.631533,0.539972,0.531371
1629811251391,-0.631045,0.5392399999999999,0.531371
1629811251400,-0.633058,0.539789,0.532652
1629811251410,-0.6335459999999999,0.540887,0.535092
1629811251419,-0.6350709999999999,0.5422899999999999,0.535824
1629811251429,-0.635315,0.542168,0.537532
1629811251439,-0.6347659999999999,0.541802,0.5386299999999999
1629811251448,-0.634095,0.541558,0.539911
1629811251458,-0.633912,0.539789,0.541253
1629811251467,-0.635315,0.539972,0.542107
1629811251477,-0.63562,0.540887,0.5422899999999999
1629811251487,-0.636413,0.541497,0.540643
1629811251496,-0.637084,0.544242,0.5395449999999999
1629811251506,-0.6378159999999999,0.545279,0.535824
1629811251515,-0.637755,0.543388,0.534055
1629811251525,-0.6353759999999999,0.540948,0.53375
1629811251535,-0.637633,0.546743,0.532347
1629811251544,-0.637023,0.550586,0.534604
1629811251554,-0.6323259999999999,0.544852,0.536068
1629811251563,-0.628666,0.533201,0.538752
1629811251573,-0.629032,0.531737,0.537532
1629811251583,-0.631411,0.535214,0.5367999999999999
1629811251592,-0.631655,0.540643,0.5361899999999999
1629811251602,-0.632082,0.543998,0.53497
1629811251611,-0.631045,0.5441199999999999,0.534299
1629811251621,-0.629703,0.541131,0.532347
1629811251631,-0.628605,0.537776,0.533689
1629811251640,-0.62647,0.534238,0.534299
1629811251650,-0.625006,0.534055,0.534726
1629811251659,-0.624091,0.533628,0.533933
1629811251669,-0.624579,0.534482,0.534116
1629811251679,-0.625921,0.536922,0.534299
1629811251688,-0.62647,0.539179,0.534665
1629811251698,-0.625433,0.537837,0.534543
1629811251707,-0.62464,0.53497,0.535031
1629811251717,-0.624762,0.53253,0.535153
1629811251727,-0.626287,0.535275,0.535641
1629811251736,-0.628361,0.536922,0.536129
1629811251746,-0.629337,0.5386299999999999,0.5386299999999999
1629811251755,-0.6283,0.539179,0.537288
1629811251765,-0.630557,0.540521,0.533994
1629811251775,-0.632204,0.541863,0.53314
1629811251784,-0.6335459999999999,0.5441199999999999,0.531737
1629811251794,-0.63318,0.543022,0.532164
1629811251803,-0.631899,0.540643,0.532835
1629811251813,-0.632082,0.543022,0.534421
1629811251823,-0.63257,0.545523,0.53558
1629811251832,-0.633607,0.5465599999999999,0.536678
1629811251842,-0.633363,0.5471699999999999,0.5367999999999999
1629811251851,-0.633668,0.546316,0.53558
1629811251861,-0.633485,0.5453399999999999,0.5361899999999999
1629811251871,-0.633729,0.543327,0.535641
1629811251880,-0.632753,0.543571,0.5361899999999999
1629811251890,-0.63379,0.546499,0.535458
1629811251899,-0.6344,0.5477799999999999,0.535519
1629811251909,-0.634034,0.548146,0.534787
1629811251919,-0.632143,0.545584,0.533811
1629811251928,-0.630801,0.543754,0.532774
1629811251938,-0.630984,0.5435099999999999,0.534238
1629811251947,-0.631838,0.545279,0.536007
1629811251957,-0.63013,0.544608,0.536617
1629811251967,-0.629276,0.5428999999999999,0.536251
1629811251976,-0.627812,0.541436,0.535946
1629811251986,-0.627141,0.540338,0.536617
1629811251995,-0.625982,0.538508,0.536617
1629811252005,-0.625616,0.536983,0.536068
1629811252015,-0.625677,0.5367999999999999,0.533628
1629811252024,-0.626836,0.537776,0.531737
1629811252034,-0.627019,0.539728,0.530273
1629811252043,-0.630069,0.540277,0.528443
1629811252053,-0.630984,0.540582,0.527528
1629811252063,-0.625494,0.533018,0.524173
1629811252072,-0.628666,0.5386299999999999,0.518988
1629811252082,-0.6332409999999999,0.545401,0.524234
1629811252091,-0.631045,0.5380199999999999,0.530456
1629811252101,-0.630923,0.528382,0.53558
1629811252111,-0.634522,0.534604,0.539057
1629811252120,-0.637389,0.543144,0.540582
1629811252130,-0.637572,0.5474749999999999,0.5404599999999999
1629811252139,-0.637328,0.549,0.5374099999999999
1629811252149,-0.635864,0.5471699999999999,0.535641
1629811252159,-0.635742,0.542778,0.532835
1629811252168,-0.634339,0.5404599999999999,0.532713
1629811252178,-0.633119,0.539606,0.534299
1629811252187,-0.6323259999999999,0.538874,0.536373
1629811252197,-0.63135,0.5416799999999999,0.537898
1629811252207,-0.631289,0.545462,0.538569
1629811252216,-0.630923,0.547048,0.539667
1629811252226,-0.630618,0.546743,0.540887
1629811252235,-0.628788,0.543754,0.539789
1629811252245,-0.62647,0.542412,0.5401549999999999
1629811252255,-0.62647,0.543998,0.539911
1629811252264,-0.626348,0.545828,0.5407649999999999
1629811252274,-0.625738,0.546621,0.540277
1629811252283,-0.625189,0.547658,0.541802
1629811252293,-0.623359,0.546682,0.540399
1629811252303,-0.623176,0.548207,0.535641
1629811252312,-0.625006,0.548939,0.534665
1629811252322,-0.625189,0.545462,0.535153
1629811252331,-0.623847,0.542473,0.533811
1629811252341,-0.624396,0.548024,0.534909
1629811252351,-0.62281,0.551623,0.536861
1629811252360,-0.622078,0.550708,0.536861
1629811252370,-0.621163,0.5465599999999999,0.534848
1629811252379,-0.620248,0.541314,0.533689
1629811252389,-0.6204919999999999,0.5392399999999999,0.532042
1629811252399,-0.621773,0.5398499999999999,0.531493
1629811252408,-0.622932,0.5410699999999999,0.532042
1629811252418,-0.624335,0.5428999999999999,0.531493
1629811252427,-0.626836,0.544059,0.533079
1629811252437,-0.627019,0.544791,0.533933
1629811252447,-0.627751,0.543388,0.532652
1629811252456,-0.62952,0.542534,0.531127
1629811252466,-0.630313,0.541436,0.53192
1629811252475,-0.63196,0.542473,0.532652
1629811252485,-0.633363,0.543083,0.534238
1629811252495,-0.634583,0.5444249999999999,0.533567
1629811252504,-0.634705,0.546438,0.531371
1629811252514,-0.6356809999999999,0.5459499999999999,0.530151
1629811252523,-0.635498,0.545157,0.529236
1629811252533,-0.6347659999999999,0.543449,0.528565
1629811252543,-0.634522,0.542473,0.526613
1629811252552,-0.634949,0.542961,0.526796
1629811252562,-0.633912,0.543998,0.526796
1629811252571,-0.632814,0.544791,0.524966
1629811252581,-0.635437,0.543632,0.523014
1629811252591,-0.634888,0.543937,0.5240509999999999
1629811252600,-0.62525,0.544181,0.52277
1629811252610,-0.632082,0.552721,0.523258
1629811252619,-0.637694,0.553514,0.5371049999999999
1629811252629,-0.638182,0.547658,0.548024
1629811252639,-0.632692,0.549122,0.5483899999999999
1629811252648,-0.632753,0.556808,0.547719
1629811252658,-0.627812,0.556137,0.5444249999999999
1629811252667,-0.623847,0.548756,0.538203
1629811252677,-0.6211019999999999,0.543266,0.532774
1629811252687,-0.618906,0.5419849999999999,0.532408
1629811252696,-0.619394,0.5447299999999999,0.533872
1629811252706,-0.622017,0.548634,0.536922
1629811252715,-0.620431,0.5480849999999999,0.539484
1629811252725,-0.618845,0.5471699999999999,0.539911
1629811252735,-0.618479,0.547536,0.5380199999999999
1629811252744,-0.617625,0.548146,0.538508
1629811252754,-0.618784,0.5477799999999999,0.538752
1629811252763,-0.620004,0.547536,0.536922
1629811252773,-0.620919,0.5477799999999999,0.535641
1629811252783,-0.621285,0.548329,0.533872
1629811252792,-0.620553,0.547353,0.530883
1629811252802,-0.621041,0.5459499999999999,0.529541
1629811252811,-0.62037,0.544303,0.530578
1629811252821,-0.619638,0.543937,0.527467
1629811252831,-0.617259,0.544852,0.5231359999999999
1629811252840,-0.621346,0.547536,0.523929
1629811252850,-0.624518,0.5432049999999999,0.526186
1629811252859,-0.625006,0.539606,0.526186
1629811252869,-0.625555,0.543754,0.528992
1629811252879,-0.629825,0.551989,0.53253
1629811252888,-0.632692,0.554612,0.534665
1629811252898,-0.632204,0.552355,0.535763
1629811252907,-0.631472,0.549793,0.536007
1629811252917,-0.633058,0.550403,0.535641
1629811252927,-0.634522,0.549915,0.536678
1629811252936,-0.634095,0.548512,0.537837
1629811252946,-0.633912,0.549122,0.537898
1629811252955,-0.631472,0.549305,0.536068
1629811252965,-0.629459,0.546621,0.534665
1629811252975,-0.62769,0.5456449999999999,0.532164
1629811252984,-0.628178,0.546621,0.531798
1629811252994,-0.629215,0.5477799999999999,0.53436
1629811253003,-0.630557,0.54961,0.534726
1629811253013,-0.6323259999999999,0.549305,0.53558
1629811253023,-0.632143,0.549793,0.535092
1629811253032,-0.631533,0.551806,0.536983
1629811253042,-0.632082,0.549549,0.5364949999999999
1629811253051,-0.631167,0.546926,0.536068
1629811253061,-0.629703,0.544852,0.534238
