timestamp,ax,ay,az
1629810908085,-0.703696,-0.636169,-0.29700899999999997
1629810908095,-0.700829,-0.644038,-0.292983
1629810908105,-0.698938,-0.648003,-0.29219
1629810908114,-0.69967,-0.648491,-0.292068
1629810908124,-0.701195,-0.647149,-0.293593
1629810908133,-0.703086,-0.6442209999999999,-0.294386
1629810908143,-0.707234,-0.6408659999999999,-0.298168
1629810908153,-0.710589,-0.6378159999999999,-0.30012
1629810908162,-0.71553,-0.633912,-0.30256
1629810908172,-0.720776,-0.634278,-0.303902
1629810908181,-0.72529,-0.634583,-0.30622
1629810908191,-0.728279,-0.634949,-0.30567099999999997
1629810908201,-0.731939,-0.633485,-0.30658599999999997
1629810908210,-0.734074,-0.630679,-0.30475599999999997
1629810908220,-0.735355,-0.626958,-0.300913
1629810908229,-0.734196,-0.622139,-0.293532
1629810908239,-0.736514,-0.6177469999999999,-0.290909
1629810908249,-0.737978,-0.612501,-0.29304399999999997
1629810908258,-0.739076,-0.610061,-0.298351
1629810908268,-0.741699,-0.605059,-0.304024
1629810908277,-0.7434069999999999,-0.599874,-0.309758
1629810908287,-0.746274,-0.592432,-0.314211
1629810908297,-0.74847,-0.586454,-0.31781
1629810908306,-0.75091,-0.582306,-0.318481
1629810908316,-0.750849,-0.579317,-0.318664
1629810908325,-0.752008,-0.575901,-0.31842
1629810908335,-0.753228,-0.573339,-0.320067
1629810908345,-0.7549359999999999,-0.570228,-0.318969
1629810908354,-0.75457,-0.568032,-0.320372
1629810908364,-0.7521909999999999,-0.563518,-0.31890799999999997
1629810908373,-0.753045,-0.562115,-0.31646799999999997
1629810615835,-0.770796,-0.39283999999999997,-0.49885799999999997
1629810615844,-0.770857,-0.391559,-0.500444
1629810615854,-0.770247,-0.391559,-0.499651
1629810615864,-0.769698,-0.392413,-0.499346
1629810615873,-0.77043,-0.393511,-0.498431
1629810615883,-0.770796,-0.391986,-0.498126
1629810615892,-0.77043,-0.391742,-0.499895
1629810615902,-0.770308,-0.389973,-0.499834
1629810615912,-0.771162,-0.388204,-0.498614
1629810615921,-0.773297,-0.389424,-0.500993
1629810615931,-0.773846,-0.392657,-0.504348
1629810615940,-0.772748,-0.393816,-0.507764
1629810615950,-0.772809,-0.393389,-0.506849
1629810615960,-0.771528,-0.390827,-0.502152
1629810615969,-0.770125,-0.389302,-0.49776
1629810615979,-0.769576,-0.388204,-0.495869
1629810615988,-0.769088,-0.38917999999999997,-0.497272
1629810615998,-0.769576,-0.389729,-0.498004
1629810616008,-0.767868,-0.390034,-0.500993
1629810616017,-0.768234,-0.38917999999999997,-0.502274
1629810616027,-0.76921,-0.390278,-0.502884
1629810616036,-0.768905,-0.391193,-0.502762
1629810616046,-0.769759,-0.391132,-0.502396
1629810616056,-0.768844,-0.390827,-0.501481
1629810616065,-0.769088,-0.392108,-0.499651
1629810616075,-0.769393,-0.39131499999999997,-0.498431
1629810616084,-0.770369,-0.392047,-0.498919
1629810616094,-0.770308,-0.391803,-0.500322
1629810616104,-0.76982,-0.39192499999999997,-0.501176
1629810616113,-0.769515,-0.391742,-0.503189
1629810616123,-0.770369,-0.391437,-0.502762
1629810616132,-0.770064,-0.389973,-0.503189
1629810616142,-0.769881,-0.389668,-0.502274
1629810616152,-0.770491,-0.39039999999999997,-0.502701
1629810616161,-0.769881,-0.389546,-0.502335
1629810616171,-0.771162,-0.389058,-0.50264
1629810616180,-0.769332,-0.38978999999999997,-0.502457
1629810616190,-0.770064,-0.389912,-0.502518
1629810616200,-0.770003,-0.389607,-0.501908
1629810616209,-0.768112,-0.38917999999999997,-0.501847
1629810616219,-0.769332,-0.38613,-0.49946799999999997
1629810616228,-0.770369,-0.38674,-0.499895
1629810616238,-0.769881,-0.387594,-0.50142
1629810616248,-0.772016,-0.388448,-0.506483
1629810616257,-0.772809,-0.387899,-0.507337
1629810616267,-0.772016,-0.387472,-0.506422
1629810616276,-0.772626,-0.386313,-0.504226
1629810616286,-0.772809,-0.38613,-0.501969
1629810616296,-0.77287,-0.386801,-0.500627
1629810616305,-0.772321,-0.387472,-0.501298
1629810616315,-0.771772,-0.386923,-0.501237
1629810616324,-0.772504,-0.387106,-0.502335
1629810616334,-0.771162,-0.387533,-0.503494
1629810616344,-0.77104,-0.386008,-0.503189
1629810616353,-0.771162,-0.386679,-0.503067
1629810616363,-0.770308,-0.386313,-0.503738
1629810616372,-0.77104,-0.386496,-0.504836
1629810616382,-0.769759,-0.386252,-0.504226
1629810616392,-0.770308,-0.38674,-0.503189
1629810616401,-0.769393,-0.386557,-0.503555
1629810616411,-0.769881,-0.386313,-0.503372
1629810616420,-0.769698,-0.386435,-0.503128
1629810616430,-0.769393,-0.38765499999999997,-0.504531
1629810616440,-0.769942,-0.387716,-0.505507
1629810616449,-0.770064,-0.389241,-0.505141
1629810616459,-0.769637,-0.38856999999999997,-0.504775
1629810616468,-0.769149,-0.388326,-0.503738
1629810616478,-0.7686,-0.389119,-0.501725
1629810616488,-0.768356,-0.389851,-0.501237
1629810616497,-0.768661,-0.390522,-0.500932
1629810616507,-0.768356,-0.391498,-0.500566
1629810616516,-0.767807,-0.39222999999999997,-0.501298
1629810616526,-0.769027,-0.393816,-0.500749
1629810616536,-0.769515,-0.393816,-0.500627
1629810616545,-0.768417,-0.393999,-0.499956
1629810616555,-0.767929,-0.393694,-0.49946799999999997
1629810616564,-0.769332,-0.393328,-0.499224
1629810616574,-0.769454,-0.39375499999999997,-0.499712
1629810616584,-0.769637,-0.394182,-0.49959
1629810616593,-0.769332,-0.39375499999999997,-0.5002
1629810616603,-0.769698,-0.393267,-0.499285
1629810616612,-0.770064,-0.393084,-0.5002
1629810616622,-0.770369,-0.391803,-0.501237
1629810616632,-0.771162,-0.391437,-0.500444
1629810616641,-0.771467,-0.391437,-0.500932
1629810616651,-0.77165,-0.39131499999999997,-0.500871
1629810616660,-0.771223,-0.391254,-0.500749
1629810616670,-0.77165,-0.391376,-0.501603
1629810616680,-0.772016,-0.390766,-0.501176
1629810616689,-0.77226,-0.390766,-0.500261
1629810616699,-0.771711,-0.39100999999999997,-0.500871
1629810616708,-0.77165,-0.390766,-0.49946799999999997
1629810616718,-0.770979,-0.391376,-0.499651
1629810616728,-0.771833,-0.39131499999999997,-0.499346
1629810616737,-0.771284,-0.391376,-0.498492
1629810616747,-0.771223,-0.391681,-0.49794299999999997
1629810616756,-0.77165,-0.392901,-0.498797
1629810616766,-0.771467,-0.392657,-0.498736
1629810616776,-0.771772,-0.392962,-0.499041
1629810616785,-0.770613,-0.392352,-0.49824799999999997
1629810616795,-0.770674,-0.39222999999999997,-0.498492
1629810616804,-0.771284,-0.392108,-0.498614
1629810616814,-0.771223,-0.392291,-0.497455
1629810616824,-0.77165,-0.39222999999999997,-0.49824799999999997
1629810616833,-0.77104,-0.39131499999999997,-0.49837
1629810616843,-0.77104,-0.39131499999999997,-0.498797
1629810616852,-0.770735,-0.391498,-0.498675
1629810616862,-0.770186,-0.390888,-0.497821
1629810616872,-0.771284,-0.391498,-0.498492
1629810616881,-0.772626,-0.391742,-0.499407
1629810616891,-0.771101,-0.39009499999999997,-0.498004
1629810616900,-0.771101,-0.389241,-0.49702799999999997
1629810616910,-0.77287,-0.390278,-0.498065
1629810616920,-0.77409,-0.393084,-0.500688
1629810616929,-0.773602,-0.395036,-0.505263
1629810616939,-0.77348,-0.395097,-0.507581
1629810616948,-0.773724,-0.392108,-0.506483
1629810616958,-0.772748,-0.38978999999999997,-0.502335
1629810616968,-0.771345,-0.388814,-0.497699
1629810616977,-0.770674,-0.388204,-0.496052
1629810616987,-0.769515,-0.389607,-0.49519799999999997
1629810616996,-0.768722,-0.392047,-0.496967
1629810617006,-0.7686,-0.393389,-0.49959
1629810617016,-0.769515,-0.394121,-0.501481
1629810617025,-0.769393,-0.393511,-0.501664
1629810617035,-0.770064,-0.393206,-0.501176
1629810617044,-0.769515,-0.393633,-0.500505
1629810617054,-0.769881,-0.392657,-0.500627
1629810617064,-0.77043,-0.393694,-0.498309
1629810617073,-0.769698,-0.393206,-0.497699
1629810617083,-0.769942,-0.394426,-0.498187
1629810617092,-0.770003,-0.392718,-0.498187
1629810617102,-0.770674,-0.39222999999999997,-0.49898
1629810617112,-0.770552,-0.391193,-0.500261
1629810617121,-0.770735,-0.38948499999999997,-0.501359
1629810617131,-0.770491,-0.388509,-0.50264
1629810617140,-0.769942,-0.387533,-0.503555
1629810617150,-0.770613,-0.386252,-0.503006
1629810617160,-0.770796,-0.385581,-0.502457
1629810617169,-0.77104,-0.386374,-0.501542
1629810617179,-0.770918,-0.386435,-0.501664
1629810617188,-0.771223,-0.386801,-0.50142
1629810617198,-0.771772,-0.387045,-0.501481
1629810617208,-0.770857,-0.387533,-0.501603
1629810617217,-0.770674,-0.384239,-0.500261
1629810617227,-0.771833,-0.382104,-0.501237
1629810617236,-0.771284,-0.381799,-0.502762
1629810617246,-0.77287,-0.381006,-0.504348
1629810617256,-0.773358,-0.38112799999999997,-0.505751
1629810617265,-0.773907,-0.380945,-0.506788
1629810617275,-0.77409,-0.379847,-0.504958
1629810617284,-0.774761,-0.379664,-0.50264
1629810617294,-0.773663,-0.379359,-0.502762
1629810617304,-0.7746999999999999,-0.379115,-0.502152
1629810617313,-0.774578,-0.37929799999999997,-0.502762
1629810617323,-0.77409,-0.378261,-0.502518
1629810617332,-0.773907,-0.378261,-0.502945
1629810617342,-0.774761,-0.37594299999999997,-0.504104
1629810617352,-0.774944,-0.375272,-0.505446
1629810617361,-0.774883,-0.37594299999999997,-0.50569
1629810617371,-0.775249,-0.375455,-0.505873
1629810617380,-0.775798,-0.374784,-0.506727
1629810617390,-0.7756149999999999,-0.374235,-0.50569
1629810617400,-0.776469,-0.373991,-0.505324
1629810617409,-0.776164,-0.372893,-0.505202
1629810617419,-0.777384,-0.372466,-0.50569
1629810617428,-0.7768349999999999,-0.37155099999999996,-0.504653
1629810617438,-0.777201,-0.371795,-0.5063
1629810617448,-0.777506,-0.37063599999999997,-0.506727
1629810617457,-0.7780549999999999,-0.370758,-0.507032
1629810617467,-0.777811,-0.36966,-0.508557
1629810617476,-0.7780549999999999,-0.368379,-0.507154
1629810617486,-0.778177,-0.368562,-0.506971
1629810617496,-0.778177,-0.366854,-0.505812
1629810617505,-0.7783599999999999,-0.368074,-0.505568
1629810617515,-0.778787,-0.368867,-0.505019
1629810617524,-0.777933,-0.369172,-0.504653
1629810617534,-0.778482,-0.369538,-0.50386
1629810617544,-0.7786649999999999,-0.37063599999999997,-0.503128
1629810617553,-0.777689,-0.37155099999999996,-0.503311
1629810617563,-0.778482,-0.37155099999999996,-0.502091
1629810617572,-0.777933,-0.371612,-0.501359
1629810617582,-0.779153,-0.370453,-0.501176
1629810617592,-0.7786649999999999,-0.369904,-0.500932
1629810617601,-0.780617,-0.368928,-0.502823
1629810617611,-0.781227,-0.368989,-0.503738
1629810617620,-0.7811049999999999,-0.367769,-0.504592
1629810617630,-0.781044,-0.367952,-0.505934
1629810617640,-0.7814099999999999,-0.367647,-0.504958
1629810617649,-0.781227,-0.366793,-0.5063
1629810617659,-0.780922,-0.36575599999999997,-0.505019
1629810617668,-0.781654,-0.365634,-0.504531
1629810617678,-0.781654,-0.365024,-0.503982
1629810617688,-0.7807999999999999,-0.366732,-0.503494
1629810617697,-0.781166,-0.366854,-0.503616
1629810617707,-0.780556,-0.367464,-0.502335
1629810617716,-0.780739,-0.368135,-0.502884
1629810617726,-0.780434,-0.368562,-0.503128
1629810617736,-0.780983,-0.36880599999999997,-0.501603
1629810617745,-0.782081,-0.369477,-0.500993
1629810617755,-0.781959,-0.370148,-0.500566
1629810617764,-0.7817149999999999,-0.370087,-0.501054
1629810617774,-0.781227,-0.370392,-0.500993
1629810617784,-0.780922,-0.370514,-0.500749
1629810617793,-0.781776,-0.371795,-0.50081
1629810617803,-0.780678,-0.37149,-0.501054
1629810617812,-0.780983,-0.37094099999999997,-0.499834
1629810617822,-0.780922,-0.371795,-0.49959
1629810617832,-0.781532,-0.372466,-0.499651
1629810617841,-0.7804949999999999,-0.371795,-0.49946799999999997
1629810617851,-0.781654,-0.371185,-0.499102
1629810617860,-0.781471,-0.371368,-0.499651
1629810617870,-0.7817149999999999,-0.371795,-0.499712
1629810617880,-0.7826299999999999,-0.372832,-0.501359
1629810617889,-0.783362,-0.370819,-0.50081
1629810617899,-0.782508,-0.371795,-0.501054
1629810617908,-0.782142,-0.37063599999999997,-0.5002
1629810617918,-0.782081,-0.369355,-0.500261
1629810617928,-0.782569,-0.36941599999999997,-0.500017
1629810617937,-0.7826299999999999,-0.368074,-0.49824799999999997
1629810617947,-0.7841549999999999,-0.36728099999999997,-0.497577
1629810617956,-0.787876,-0.368135,-0.500383
1629810617966,-0.789157,-0.371002,-0.505446
1629810617976,-0.791048,-0.37454,-0.508862
1629810617985,-0.791841,-0.37454,-0.511729
1629810617995,-0.792512,-0.371185,-0.51057
1629810618004,-0.791414,-0.368318,-0.507154
1629810618014,-0.787571,-0.36575599999999997,-0.503494
1629810618024,-0.785741,-0.364475,-0.502823
1629810618033,-0.784216,-0.363316,-0.502701
1629810618043,-0.781837,-0.366,-0.505812
1629810618052,-0.778787,-0.369172,-0.507459
1629810618062,-0.775676,-0.371856,-0.507581
1629810618072,-0.773602,-0.373991,-0.508069
1629810618081,-0.771589,-0.376065,-0.508435
1629810618091,-0.769515,-0.378017,-0.510021
1629810618100,-0.767685,-0.379786,-0.50813
1629810618110,-0.766404,-0.382165,-0.508252
1629810618120,-0.7643909999999999,-0.383812,-0.507459
1629810618129,-0.762622,-0.385093,-0.508008
1629810618139,-0.762805,-0.384178,-0.510631
1629810618148,-0.760914,-0.387411,-0.509838
1629810618158,-0.760853,-0.388692,-0.513254
1629810618168,-0.7601209999999999,-0.386252,-0.5161209999999999
1629810618177,-0.76067,-0.384971,-0.517585
1629810618187,-0.758718,-0.384849,-0.51972
1629810618196,-0.758535,-0.383995,-0.5222209999999999
1629810618206,-0.757193,-0.383141,-0.524478
1629810618216,-0.757437,-0.38265299999999997,-0.527528
1629810618225,-0.756278,-0.380335,-0.528565
1629810618235,-0.756034,-0.380274,-0.52948
1629810618244,-0.756644,-0.379847,-0.530822
1629810618254,-0.754204,-0.37942,-0.531554
1629810618264,-0.7534109999999999,-0.376004,-0.532469
1629810618273,-0.7546309999999999,-0.373503,-0.534421
1629810618283,-0.754387,-0.373015,-0.5361899999999999
1629810618292,-0.752984,-0.374235,-0.538264
1629810618302,-0.75274,-0.378322,-0.541436
1629810618312,-0.7521909999999999,-0.378261,-0.541802
1629810618321,-0.75152,-0.38143299999999997,-0.541314
1629810618331,-0.750178,-0.38247,-0.5410699999999999
1629810618340,-0.749751,-0.386618,-0.541253
1629810618350,-0.748104,-0.389302,-0.542168
1629810618360,-0.74725,-0.389851,-0.541253
1629810618369,-0.74542,-0.390339,-0.542412
1629810618379,-0.744505,-0.39253499999999997,-0.544364
1629810618388,-0.742248,-0.392779,-0.5447299999999999
1629810618398,-0.741211,-0.39344999999999997,-0.5477799999999999
1629810618408,-0.7397469999999999,-0.391742,-0.548207
1629810618417,-0.738344,-0.390888,-0.549915
1629810618427,-0.735965,-0.391071,-0.551562
1629810618436,-0.735599,-0.389119,-0.552843
1629810618446,-0.7324269999999999,-0.388631,-0.552599
1629810618456,-0.73078,-0.38856999999999997,-0.553514
1629810618465,-0.729743,-0.388753,-0.5551
1629810618475,-0.727974,-0.388448,-0.55815
1629810618484,-0.726632,-0.389241,-0.560468
1629810618494,-0.726266,-0.388631,-0.564067
1629810618504,-0.724802,-0.38978999999999997,-0.566263
1629810618513,-0.723704,-0.389912,-0.568337
1629810618523,-0.723338,-0.392108,-0.57401
1629810618532,-0.719678,-0.392962,-0.571936
1629810618542,-0.718641,-0.390644,-0.567422
1629810618552,-0.717055,-0.390217,-0.566568
1629810618561,-0.7160179999999999,-0.390583,-0.5663239999999999
1629810618571,-0.714005,-0.391132,-0.563701
1629810618580,-0.712541,-0.389363,-0.5647989999999999
1629810618590,-0.710101,-0.390827,-0.566568
1629810618600,-0.708576,-0.393328,-0.567422
1629810618609,-0.708332,-0.394792,-0.569252
1629810618619,-0.707234,-0.393694,-0.570411
1629810618628,-0.706197,-0.393633,-0.571326
1629810618638,-0.706014,-0.394243,-0.572912
1629810618648,-0.7059529999999999,-0.393572,-0.574498
1629810618657,-0.706014,-0.393023,-0.575047
1629810618667,-0.706502,-0.394426,-0.57584
1629810618676,-0.705831,-0.395646,-0.577792
1629810618686,-0.705709,-0.396866,-0.579378
1629810618696,-0.7053429999999999,-0.395219,-0.578524
1629810618705,-0.70638,-0.393999,-0.578402
1629810618715,-0.706197,-0.393877,-0.580598
1629810618724,-0.707356,-0.39344999999999997,-0.580598
1629810618734,-0.706502,-0.393572,-0.582489
1629810618744,-0.707417,-0.392169,-0.581635
1629810618753,-0.707661,-0.391742,-0.58194
1629810618763,-0.707356,-0.391376,-0.581452
1629810618772,-0.707295,-0.391742,-0.582855
1629810618782,-0.707356,-0.392718,-0.582062
1629810618792,-0.707417,-0.391864,-0.582489
1629810618801,-0.707966,-0.389729,-0.582184
1629810618811,-0.7080879999999999,-0.389302,-0.581391
1629810618820,-0.708149,-0.389058,-0.581208
1629810618830,-0.708942,-0.387472,-0.580354
1629810618840,-0.710101,-0.38674,-0.579805
1629810618849,-0.71126,-0.387289,-0.578768
1629810618859,-0.711504,-0.385764,-0.578646
1629810618868,-0.712175,-0.387045,-0.577121
1629810618878,-0.713029,-0.387533,-0.57584
1629810618888,-0.7126629999999999,-0.388326,-0.573766
1629810618897,-0.7141879999999999,-0.38795999999999997,-0.571936
1629810618907,-0.715957,-0.388021,-0.571021
1629810618916,-0.7160179999999999,-0.385825,-0.570228
1629810618926,-0.717177,-0.382836,-0.568276
1629810618936,-0.7187629999999999,-0.381555,-0.5684589999999999
1629810618945,-0.7198,-0.382226,-0.568703
1629810618955,-0.720166,-0.38308,-0.569923
1629810618964,-0.721752,-0.383385,-0.570411
1629810618974,-0.723338,-0.38369,-0.568581
1629810618984,-0.723948,-0.383385,-0.564555
1629810618993,-0.724924,-0.383202,-0.559675
1629810619003,-0.724192,-0.382531,-0.554429
1629810619012,-0.726205,-0.384422,-0.550769
1629810619022,-0.727486,-0.384605,-0.548146
1629810619032,-0.729316,-0.385886,-0.548329
1629810619041,-0.730475,-0.384239,-0.546926
1629810619051,-0.732488,-0.384605,-0.546011
1629810619060,-0.735111,-0.384544,-0.543998
1629810619070,-0.73749,-0.383324,-0.5416799999999999
1629810619080,-0.7394419999999999,-0.384117,-0.541558
1629810619089,-0.741394,-0.384483,-0.540216
1629810619099,-0.744078,-0.382226,-0.538142
1629810619108,-0.746579,-0.378505,-0.534482
1629810619118,-0.749507,-0.376309,-0.533079
1629810619128,-0.751337,-0.377102,-0.531981
1629810619137,-0.754143,-0.377224,-0.529785
1629810619147,-0.757254,-0.376919,-0.52704
1629810619156,-0.759938,-0.380152,-0.524905
1629810619166,-0.763659,-0.380884,-0.522465
1629810619176,-0.766709,-0.382592,-0.52033
1629810619185,-0.769576,-0.384422,-0.51728
1629810619195,-0.772321,-0.385215,-0.514535
1629810619204,-0.775188,-0.385642,-0.5124609999999999
1629810619214,-0.777628,-0.385093,-0.510814
1629810619224,-0.779092,-0.386191,-0.509106
1629810619233,-0.779763,-0.385886,-0.506788
1629810619243,-0.781349,-0.38356799999999996,-0.503799
1629810619252,-0.784826,-0.385276,-0.502823
1629810619262,-0.7856799999999999,-0.386862,-0.500871
1629810619272,-0.787876,-0.386618,-0.500322
1629810619281,-0.787998,-0.386557,-0.49916299999999997
1629810619291,-0.789523,-0.385398,-0.49837
1629810619300,-0.7905599999999999,-0.385642,-0.495015
1629810619310,-0.791841,-0.385459,-0.491904
1629810619320,-0.7905599999999999,-0.384666,-0.488915
1629810619329,-0.790926,-0.3843,-0.487024
1629810619339,-0.791109,-0.384361,-0.484523
1629810619348,-0.791048,-0.383934,-0.48312
1629810619358,-0.791292,-0.383324,-0.481046
1629810619368,-0.791231,-0.383812,-0.48031399999999996
1629810619377,-0.791048,-0.3843,-0.479887
1629810619387,-0.790621,-0.384178,-0.479521
1629810619396,-0.791719,-0.38265299999999997,-0.479948
1629810619406,-0.7914749999999999,-0.382592,-0.48007
1629810619416,-0.791353,-0.38112799999999997,-0.480375
1629810619425,-0.791536,-0.381067,-0.478118
1629810619435,-0.790987,-0.379237,-0.47763
1629810619444,-0.7920849999999999,-0.379054,-0.477447
1629810619454,-0.791292,-0.378932,-0.477508
1629810619464,-0.790804,-0.377651,-0.476776
1629810619473,-0.791536,-0.37868799999999997,-0.476776
1629810619483,-0.792451,-0.3782,-0.47695899999999997
1629810619492,-0.791231,-0.378261,-0.476715
1629810619502,-0.791841,-0.379542,-0.475556
1629810619512,-0.790499,-0.379115,-0.47482399999999997
1629810619521,-0.791414,-0.37942,-0.474092
1629810619531,-0.791292,-0.379725,-0.472201
1629810619540,-0.7908649999999999,-0.380274,-0.472445
1629810619550,-0.790987,-0.381189,-0.470676
1629810619560,-0.791231,-0.38247,-0.470493
1629810619569,-0.792329,-0.382897,-0.471103
1629810619579,-0.792512,-0.38387299999999996,-0.469639
1629810619588,-0.793,-0.385154,-0.46921199999999996
1629810619598,-0.79361,-0.384849,-0.470554
1629810619608,-0.79361,-0.385276,-0.468419
1629810619617,-0.795867,-0.385459,-0.469334
1629810619627,-0.795928,-0.3843,-0.46848
1629810619636,-0.79666,-0.383751,-0.4697
1629810619646,-0.796233,-0.38356799999999996,-0.470188
1629810619656,-0.796538,-0.38326299999999996,-0.470554
1629810619665,-0.797392,-0.38247,-0.471835
1629810619675,-0.79788,-0.38173799999999997,-0.47329899999999997
1629810619684,-0.797697,-0.381006,-0.473665
1629810619694,-0.797514,-0.380579,-0.473055
1629810619704,-0.798124,-0.379847,-0.473238
1629810619713,-0.798124,-0.38003,-0.47421399999999997
1629810619723,-0.797941,-0.37942,-0.47573899999999997
1629810619732,-0.798917,-0.377834,-0.475495
1629810619742,-0.798612,-0.377041,-0.476166
1629810619752,-0.798368,-0.37685799999999997,-0.477386
1629810619761,-0.797819,-0.376431,-0.47756899999999997
1629810619771,-0.797148,-0.374784,-0.478606
1629810619780,-0.796233,-0.37393,-0.478606
1629810619790,-0.795318,-0.372893,-0.47756899999999997
1629810619800,-0.794403,-0.373564,-0.478423
1629810619809,-0.793488,-0.372588,-0.479033
1629810619819,-0.792939,-0.373198,-0.479887
1629810619828,-0.792329,-0.373015,-0.47946
1629810619838,-0.7917799999999999,-0.373869,-0.48007
1629810619848,-0.791353,-0.373137,-0.479216
1629810619857,-0.790804,-0.373686,-0.479948
1629810619867,-0.7908649999999999,-0.373503,-0.478545
1629810619876,-0.790316,-0.373503,-0.479521
1629810619886,-0.790316,-0.374723,-0.480375
1629810619896,-0.790438,-0.376126,-0.48061899999999996
1629810619905,-0.789767,-0.376492,-0.48122899999999996
1629810619915,-0.788181,-0.377102,-0.480497
1629810619924,-0.787754,-0.377407,-0.47970399999999996
1629810619934,-0.7881199999999999,-0.377224,-0.479582
1629810619944,-0.787571,-0.377895,-0.479643
1629810619953,-0.7862899999999999,-0.37685799999999997,-0.479033
1629810619963,-0.787266,-0.376126,-0.479582
1629810619972,-0.789584,-0.377834,-0.48122899999999996
1629810619982,-0.790072,-0.38204299999999997,-0.485255
1629810619992,-0.790682,-0.38356799999999996,-0.487878
1629810620001,-0.790438,-0.38265299999999997,-0.48861
1629810620011,-0.789279,-0.38247,-0.485865
1629810620020,-0.7884249999999999,-0.380457,-0.482144
1629810620030,-0.785619,-0.378749,-0.479643
1629810620040,-0.7859849999999999,-0.37881,-0.478911
1629810620049,-0.786351,-0.378322,-0.480131
1629810620059,-0.784216,-0.379664,-0.480863
1629810620068,-0.7841549999999999,-0.37990799999999997,-0.481717
1629810620078,-0.783728,-0.38051799999999997,-0.483547
1629810620088,-0.784643,-0.381006,-0.484523
1629810620097,-0.784582,-0.38265299999999997,-0.485438
1629810620107,-0.784643,-0.383141,-0.48440099999999997
1629810620116,-0.784826,-0.383141,-0.483242
1629810620126,-0.7844599999999999,-0.384361,-0.482205
1629810620136,-0.784094,-0.384422,-0.482022
1629810620145,-0.784887,-0.384239,-0.481473
1629810620155,-0.785436,-0.384971,-0.482632
1629810620164,-0.785131,-0.384605,-0.483852
1629810620174,-0.786107,-0.384117,-0.484279
1629810620184,-0.786107,-0.38387299999999996,-0.484828
1629810620193,-0.786351,-0.38369,-0.485865
1629810620203,-0.784887,-0.384239,-0.48531599999999997
1629810620212,-0.784826,-0.38369,-0.485682
1629810620222,-0.783667,-0.384422,-0.48495
1629810620232,-0.784887,-0.384483,-0.48373
1629810620241,-0.784948,-0.38491,-0.483974
1629810620251,-0.784033,-0.384544,-0.484645
1629810620260,-0.782874,-0.384239,-0.484218
1629810620270,-0.782508,-0.380945,-0.48287599999999997
1629810620280,-0.783606,-0.379359,-0.482266
1629810620289,-0.784338,-0.380457,-0.483852
1629810620299,-0.785131,-0.381189,-0.48678
1629810620308,-0.785009,-0.381982,-0.489159
1629810620318,-0.786046,-0.38125,-0.48897599999999997
1629810620328,-0.7853749999999999,-0.380396,-0.486658
1629810620337,-0.786412,-0.381006,-0.484523
1629810620347,-0.787327,-0.381494,-0.484279
1629810620356,-0.786168,-0.38112799999999997,-0.483608
1629810620366,-0.786351,-0.380579,-0.483547
1629810620376,-0.786473,-0.37942,-0.484279
1629810620385,-0.786656,-0.3782,-0.485194
1629810620395,-0.786046,-0.377834,-0.486292
1629810620404,-0.785863,-0.378139,-0.486902
1629810620414,-0.785009,-0.377529,-0.487695
1629810620424,-0.785863,-0.377102,-0.488122
1629810620433,-0.7856799999999999,-0.37716299999999997,-0.487695
1629810620443,-0.784399,-0.376431,-0.487573
1629810620452,-0.784948,-0.376797,-0.48739
1629810620462,-0.785558,-0.376309,-0.487878
1629810620472,-0.784582,-0.378322,-0.487512
1629810620481,-0.784582,-0.37868799999999997,-0.488549
1629810620491,-0.786168,-0.379054,-0.488549
1629810620500,-0.785741,-0.379176,-0.49080599999999996
1629810620510,-0.784826,-0.37960299999999997,-0.490745
1629810620520,-0.783911,-0.377285,-0.49105
1629810620529,-0.784277,-0.376736,-0.491782
1629810620539,-0.783972,-0.377041,-0.490379
1629810620548,-0.782447,-0.377102,-0.488549
1629810620558,-0.782447,-0.377041,-0.488122
1629810620568,-0.780983,-0.37942,-0.486719
1629810620577,-0.780983,-0.380152,-0.486048
1629810620587,-0.781288,-0.38186,-0.486292
1629810620596,-0.7814099999999999,-0.382897,-0.48653599999999997
1629810620606,-0.782447,-0.383507,-0.486048
1629810620616,-0.781471,-0.384544,-0.485804
1629810620625,-0.781593,-0.385398,-0.48495
1629810620635,-0.7820199999999999,-0.383202,-0.485255
1629810620644,-0.781654,-0.383812,-0.48556
1629810620654,-0.7817149999999999,-0.384117,-0.48556
1629810620664,-0.784521,-0.383629,-0.488122
1629810620673,-0.784887,-0.3843,-0.488
1629810620683,-0.7856799999999999,-0.383324,-0.488427
1629810620692,-0.785497,-0.384056,-0.489769
1629810620702,-0.785192,-0.38204299999999997,-0.489647
1629810620712,-0.7844599999999999,-0.38125,-0.48989099999999997
1629810620721,-0.785131,-0.380884,-0.48983
1629810620731,-0.785009,-0.380396,-0.48983
1629810620740,-0.784643,-0.379847,-0.48922
1629810620750,-0.783728,-0.380396,-0.488793
1629810620760,-0.783667,-0.380396,-0.488122
1629810620769,-0.783057,-0.38003,-0.488183
1629810620779,-0.783606,-0.38064,-0.486597
1629810620788,-0.785436,-0.38143299999999997,-0.487695
1629810620798,-0.784887,-0.381921,-0.48836599999999997
1629810620808,-0.785192,-0.383812,-0.487085
1629810620817,-0.785131,-0.383385,-0.488488
1629810620827,-0.783972,-0.383141,-0.48861
1629810620836,-0.784094,-0.38247,-0.488549
1629810620846,-0.7829349999999999,-0.38143299999999997,-0.48745099999999997
1629810620856,-0.782569,-0.380152,-0.487268
1629810620865,-0.7844599999999999,-0.378261,-0.488488
1629810620875,-0.784338,-0.378749,-0.490623
1629810620884,-0.783484,-0.38003,-0.491965
1629810620894,-0.782996,-0.37960299999999997,-0.49111099999999996
1629810620904,-0.7820199999999999,-0.37838299999999997,-0.490745
1629810620913,-0.782264,-0.379237,-0.489403
1629810620923,-0.781776,-0.38021299999999997,-0.490135
1629810620932,-0.7811049999999999,-0.37929799999999997,-0.490867
1629810620942,-0.7820199999999999,-0.37960299999999997,-0.49019599999999997
1629810620952,-0.782874,-0.381677,-0.490745
1629810620961,-0.7823249999999999,-0.385032,-0.493002
1629810620971,-0.781044,-0.387716,-0.49550299999999997
1629810620980,-0.781654,-0.387106,-0.493673
1629810620990,-0.780678,-0.385703,-0.490379
1629810621000,-0.779458,-0.385337,-0.488
1629810621009,-0.778482,-0.38491,-0.48678
1629810621019,-0.7774449999999999,-0.385032,-0.48684099999999997
1629810621028,-0.777628,-0.384788,-0.487695
1629810621038,-0.777628,-0.385947,-0.489403
1629810621048,-0.776774,-0.385703,-0.49105
1629810621057,-0.777506,-0.385032,-0.491355
1629810621067,-0.777872,-0.386313,-0.490745
1629810621076,-0.777628,-0.386069,-0.49080599999999996
1629810621086,-0.777384,-0.386923,-0.49080599999999996
1629810621096,-0.777689,-0.386801,-0.48989099999999997
1629810621105,-0.7783599999999999,-0.38674,-0.48928099999999997
1629810621115,-0.778787,-0.386801,-0.48983
1629810621124,-0.7780549999999999,-0.385337,-0.490623
1629810621134,-0.778848,-0.385154,-0.492209
1629810621144,-0.779519,-0.386069,-0.492758
1629810621153,-0.7801899999999999,-0.385642,-0.493368
1629810621163,-0.779092,-0.386069,-0.49233099999999996
1629810621172,-0.779824,-0.385337,-0.49172099999999996
1629810621182,-0.779214,-0.385886,-0.491477
1629810621192,-0.778543,-0.385642,-0.490928
1629810621201,-0.778543,-0.386374,-0.490928
1629810621211,-0.7786649999999999,-0.386618,-0.490379
1629810621220,-0.777689,-0.385032,-0.489342
1629810621230,-0.776774,-0.38186,-0.487817
1629810621240,-0.7786649999999999,-0.38143299999999997,-0.48861
1629810621249,-0.779092,-0.383812,-0.489037
1629810621259,-0.779824,-0.386984,-0.49294099999999996
1629810621268,-0.781044,-0.387594,-0.493856
1629810621278,-0.782142,-0.38674,-0.494222
1629810621288,-0.782081,-0.386069,-0.493124
1629810621297,-0.780678,-0.386435,-0.492148
1629810621307,-0.779824,-0.386008,-0.49080599999999996
1629810621316,-0.780556,-0.386313,-0.489708
1629810621326,-0.780251,-0.38552,-0.489098
1629810621336,-0.779946,-0.386618,-0.48983
1629810621345,-0.779946,-0.387594,-0.490989
1629810621355,-0.780678,-0.388631,-0.492087
1629810621364,-0.779702,-0.38826499999999997,-0.493734
1629810621374,-0.780312,-0.387289,-0.493002
1629810621384,-0.7807999999999999,-0.38826499999999997,-0.49355099999999996
1629810621393,-0.779946,-0.38826499999999997,-0.494222
1629810621403,-0.779214,-0.388326,-0.493368
1629810621412,-0.778726,-0.38826499999999997,-0.493307
1629810621422,-0.778482,-0.387716,-0.492087
1629810621432,-0.777567,-0.38765499999999997,-0.493124
1629810621441,-0.777201,-0.387045,-0.493795
1629810621451,-0.775493,-0.387106,-0.493612
1629810621460,-0.775554,-0.387167,-0.4941
1629810621470,-0.775554,-0.386862,-0.494039
1629810621480,-0.775249,-0.387716,-0.494405
1629810621489,-0.774822,-0.388021,-0.49471
1629810621499,-0.774151,-0.389302,-0.4941
1629810621508,-0.774273,-0.388448,-0.49349
1629810621518,-0.77409,-0.389119,-0.49233099999999996
1629810621528,-0.77409,-0.390217,-0.49288
1629810621537,-0.773968,-0.390949,-0.492087
1629810621547,-0.773724,-0.391803,-0.491355
1629810621556,-0.772992,-0.391742,-0.490623
1629810621566,-0.773114,-0.391803,-0.491172
1629810621576,-0.773724,-0.39253499999999997,-0.491965
1629810621585,-0.774822,-0.393389,-0.492514
1629810621595,-0.774456,-0.392596,-0.49324599999999996
1629810621604,-0.775249,-0.393389,-0.49288
1629810621614,-0.774761,-0.39222999999999997,-0.493673
1629810621624,-0.774395,-0.390461,-0.493612
1629810621633,-0.774578,-0.389668,-0.49355099999999996
1629810621643,-0.774578,-0.388692,-0.493917
1629810621652,-0.774273,-0.388082,-0.493734
1629810621662,-0.774395,-0.388204,-0.493856
1629810621672,-0.775249,-0.389241,-0.493917
1629810621681,-0.776042,-0.390949,-0.494832
1629810621691,-0.776103,-0.39222999999999997,-0.494771
1629810621700,-0.775798,-0.39283999999999997,-0.494832
1629810621710,-0.775127,-0.393389,-0.493673
1629810621720,-0.7759199999999999,-0.393633,-0.49288
1629810621729,-0.7762249999999999,-0.394304,-0.49263599999999996
1629810621739,-0.776164,-0.39436499999999997,-0.492209
1629810621748,-0.775493,-0.394121,-0.491904
1629810621758,-0.775859,-0.393023,-0.493673
1629810621768,-0.775554,-0.392779,-0.49489299999999997
1629810621777,-0.773602,-0.391376,-0.493124
1629810621787,-0.774273,-0.389851,-0.49227
1629810621796,-0.776164,-0.39039999999999997,-0.493124
1629810621806,-0.775737,-0.39253499999999997,-0.494466
1629810621816,-0.773236,-0.390644,-0.494222
1629810621825,-0.774395,-0.389119,-0.493124
1629810621835,-0.776591,-0.39070499999999997,-0.4941
1629810621844,-0.775676,-0.394182,-0.49672299999999997
1629810621854,-0.774212,-0.395646,-0.497821
1629810621864,-0.774334,-0.394182,-0.495564
1629810621873,-0.773968,-0.392352,-0.49294099999999996
1629810621883,-0.773053,-0.391193,-0.49044
1629810621892,-0.772077,-0.391803,-0.49044
1629810621902,-0.77043,-0.391803,-0.492453
1629810621912,-0.771345,-0.391864,-0.49355099999999996
1629810621921,-0.77104,-0.392169,-0.494222
1629810621931,-0.771101,-0.391132,-0.494405
1629810621940,-0.771589,-0.392657,-0.494283
1629810621950,-0.771833,-0.393267,-0.494771
1629810621960,-0.771467,-0.393572,-0.4941
1629810621969,-0.771711,-0.394182,-0.494283
1629810621979,-0.771467,-0.39405999999999997,-0.493368
1629810621988,-0.773236,-0.394304,-0.494527
1629810621998,-0.774151,-0.395219,-0.493124
1629810622008,-0.77348,-0.396012,-0.493795
1629810622017,-0.774334,-0.395524,-0.494527
1629810622027,-0.774883,-0.395829,-0.49519799999999997
1629810622036,-0.773785,-0.396256,-0.494283
1629810622046,-0.774151,-0.396134,-0.493612
1629810622056,-0.773297,-0.396622,-0.492758
1629810622065,-0.773724,-0.397354,-0.492392
1629810622075,-0.773358,-0.397476,-0.49233099999999996
1629810622084,-0.77348,-0.397659,-0.492819
1629810622094,-0.773236,-0.398879,-0.492453
1629810622104,-0.772321,-0.39711,-0.491233
1629810622113,-0.77226,-0.392474,-0.489647
1629810622123,-0.773175,-0.393206,-0.48922
1629810622132,-0.7746999999999999,-0.39497499999999997,-0.49141599999999996
1629810622142,-0.774822,-0.3965,-0.495625
1629810622152,-0.775859,-0.395402,-0.49654
1629810622161,-0.777384,-0.392413,-0.49471
1629810622171,-0.777079,-0.392718,-0.494039
1629810622180,-0.776774,-0.39161999999999997,-0.49550299999999997
1629810622190,-0.775859,-0.390827,-0.494527
1629810622200,-0.775798,-0.391498,-0.49294099999999996
1629810622209,-0.774822,-0.390888,-0.491904
1629810622219,-0.774456,-0.39161999999999997,-0.491477
1629810622228,-0.774517,-0.391864,-0.49233099999999996
1629810622238,-0.775249,-0.391559,-0.493368
1629810622248,-0.775127,-0.392596,-0.494283
1629810622257,-0.775249,-0.39192499999999997,-0.49458799999999997
1629810622267,-0.774822,-0.391742,-0.49471
1629810622276,-0.774944,-0.391132,-0.494954
1629810622286,-0.774273,-0.389424,-0.494649
1629810622296,-0.773602,-0.390034,-0.494344
1629810622305,-0.77409,-0.388997,-0.495991
1629810622315,-0.773846,-0.390034,-0.49489299999999997
1629810622324,-0.773114,-0.390644,-0.496357
1629810622334,-0.772809,-0.389363,-0.496296
1629810622344,-0.773419,-0.38765499999999997,-0.49611299999999997
1629810622353,-0.772443,-0.387411,-0.49654
1629810622363,-0.77287,-0.387838,-0.496845
1629810622372,-0.773053,-0.387411,-0.496235
1629810622382,-0.772992,-0.387411,-0.495625
1629810622392,-0.773236,-0.388387,-0.49471
1629810622401,-0.772443,-0.389973,-0.494527
1629810622411,-0.773053,-0.391376,-0.49458799999999997
1629810622420,-0.77287,-0.392718,-0.494222
1629810622430,-0.773175,-0.39283999999999997,-0.493368
1629810622440,-0.773785,-0.393267,-0.493795
1629810622449,-0.773846,-0.394182,-0.493917
1629810622459,-0.773663,-0.393938,-0.494344
1629810622468,-0.773663,-0.392901,-0.494161
1629810622478,-0.774273,-0.392413,-0.494771
1629810622488,-0.774761,-0.392413,-0.494405
1629810622497,-0.774395,-0.390827,-0.49593
1629810622507,-0.774395,-0.389546,-0.496235
1629810622516,-0.776347,-0.388753,-0.49715
1629810622526,-0.776042,-0.388692,-0.49641799999999997
1629810622536,-0.775981,-0.388448,-0.49641799999999997
1629810622545,-0.775859,-0.388631,-0.49580799999999997
1629810622555,-0.775066,-0.38948499999999997,-0.495076
1629810622564,-0.775737,-0.390034,-0.494832
1629810622574,-0.776042,-0.392352,-0.494954
1629810622584,-0.776286,-0.392901,-0.495991
1629810622593,-0.776896,-0.392169,-0.494344
1629810622603,-0.7756149999999999,-0.391498,-0.494832
1629810622612,-0.776652,-0.390156,-0.494771
1629810622622,-0.776408,-0.389363,-0.493734
1629810622632,-0.776347,-0.388448,-0.494527
1629810622641,-0.775798,-0.386923,-0.494161
1629810622651,-0.7762249999999999,-0.388448,-0.49458799999999997
1629810622660,-0.776042,-0.38856999999999997,-0.494954
1629810622670,-0.774334,-0.390217,-0.492148
1629810622680,-0.775493,-0.39039999999999997,-0.491233
1629810622689,-0.775737,-0.390644,-0.492819
1629810622699,-0.774761,-0.388753,-0.495137
1629810622708,-0.775432,-0.387167,-0.493978
1629810622718,-0.776957,-0.386679,-0.49489299999999997
1629810622728,-0.777506,-0.389851,-0.499529
1629810622737,-0.777201,-0.392657,-0.502945
1629810622747,-0.776652,-0.392291,-0.501054
1629810622756,-0.776408,-0.391193,-0.49672299999999997
1629810622766,-0.774212,-0.38978999999999997,-0.49233099999999996
1629810622776,-0.77348,-0.388692,-0.49141599999999996
1629810622785,-0.772687,-0.388448,-0.492453
1629810622795,-0.771528,-0.388448,-0.493978
1629810622804,-0.770674,-0.389912,-0.494283
1629810622814,-0.772077,-0.39161999999999997,-0.49458799999999997
1629810622824,-0.771772,-0.391742,-0.494527
1629810622833,-0.770735,-0.391742,-0.49471
1629810622843,-0.770735,-0.392779,-0.49471
1629810622852,-0.771345,-0.39344999999999997,-0.496479
1629810622862,-0.772077,-0.394243,-0.49580799999999997
1629810622872,-0.77226,-0.39314499999999997,-0.494527
1629810622881,-0.772931,-0.392596,-0.494771
1629810622891,-0.772504,-0.39405999999999997,-0.494771
1629810622900,-0.773541,-0.394243,-0.49593
1629810622910,-0.774151,-0.394609,-0.497272
1629810622920,-0.773602,-0.394182,-0.49763799999999997
1629810622929,-0.77287,-0.394121,-0.498065
1629810622939,-0.773358,-0.393511,-0.497882
1629810622948,-0.772382,-0.39375499999999997,-0.49776
1629810622958,-0.772077,-0.393694,-0.49702799999999997
1629810622968,-0.772382,-0.393572,-0.496662
1629810622977,-0.771467,-0.39344999999999997,-0.496906
1629810622987,-0.771772,-0.39405999999999997,-0.496296
1629810622996,-0.771711,-0.393938,-0.49654
1629810623006,-0.770979,-0.393694,-0.497272
1629810623016,-0.770064,-0.39131499999999997,-0.49593
1629810623025,-0.770735,-0.389546,-0.4941
1629810623035,-0.770674,-0.390034,-0.495015
1629810623044,-0.772199,-0.391742,-0.498431
1629810623054,-0.773358,-0.392901,-0.50264
1629810623064,-0.774578,-0.39253499999999997,-0.503372
1629810623073,-0.774334,-0.390827,-0.500993
1629810623083,-0.773724,-0.39100999999999997,-0.498065
1629810623092,-0.773419,-0.39039999999999997,-0.497699
1629810623102,-0.77226,-0.391193,-0.498614
1629810623112,-0.771772,-0.392169,-0.49824799999999997
1629810623121,-0.771406,-0.391681,-0.49763799999999997
1629810623131,-0.771284,-0.390034,-0.498004
1629810623140,-0.77104,-0.389119,-0.498492
1629810623150,-0.772077,-0.38917999999999997,-0.49959
1629810623160,-0.770857,-0.38856999999999997,-0.500444
1629810623169,-0.771101,-0.388753,-0.50081
1629810623179,-0.772382,-0.388448,-0.502152
1629810623188,-0.77104,-0.388997,-0.501176
1629810623198,-0.771223,-0.38948499999999997,-0.500749
1629810623208,-0.77104,-0.38948499999999997,-0.499346
1629810623217,-0.770369,-0.391742,-0.499346
1629810623227,-0.76982,-0.39222999999999997,-0.500993
1629810623236,-0.770552,-0.391986,-0.501298
1629810623246,-0.769759,-0.392657,-0.500993
1629810623256,-0.769454,-0.39100999999999997,-0.501237
1629810623265,-0.769393,-0.390156,-0.501176
1629810623275,-0.769515,-0.389058,-0.50081
1629810623284,-0.76982,-0.389241,-0.500505
1629810623294,-0.769027,-0.39100999999999997,-0.499224
1629810623304,-0.769088,-0.391742,-0.499346
1629810623313,-0.769881,-0.393084,-0.499102
1629810623323,-0.769881,-0.39436499999999997,-0.498675
1629810623332,-0.769454,-0.393877,-0.499041
1629810623342,-0.770491,-0.392962,-0.497882
1629810623352,-0.769881,-0.392657,-0.498004
1629810623361,-0.770369,-0.392352,-0.498797
1629810623371,-0.770796,-0.39222999999999997,-0.49824799999999997
1629810623380,-0.770918,-0.390034,-0.499102
1629810623390,-0.771894,-0.389851,-0.500078
1629810623400,-0.77165,-0.390034,-0.500688
1629810623409,-0.771955,-0.38917999999999997,-0.500688
1629810623419,-0.772992,-0.389424,-0.5002
1629810623428,-0.772443,-0.389241,-0.501176
1629810623438,-0.772809,-0.388143,-0.500322
1629810623448,-0.77226,-0.388387,-0.500932
1629810623457,-0.773358,-0.388326,-0.501725
1629810623467,-0.773785,-0.388387,-0.500261
1629810623476,-0.773541,-0.388631,-0.499712
1629810623486,-0.773419,-0.389668,-0.5002
1629810623496,-0.772992,-0.39009499999999997,-0.500871
1629810623505,-0.773297,-0.389912,-0.5002
1629810623515,-0.773968,-0.389363,-0.49824799999999997
1629810623524,-0.772199,-0.389668,-0.498309
1629810623534,-0.772138,-0.39039999999999997,-0.498004
1629810623544,-0.772138,-0.389851,-0.49837
1629810623553,-0.772199,-0.39161999999999997,-0.49824799999999997
1629810623563,-0.772138,-0.391193,-0.49855299999999997
1629810623572,-0.772199,-0.393511,-0.498736
1629810623582,-0.77287,-0.39344999999999997,-0.498065
1629810623592,-0.771589,-0.393389,-0.497394
1629810623601,-0.771528,-0.392657,-0.49763799999999997
1629810623611,-0.77104,-0.393206,-0.49715
1629810623620,-0.770979,-0.392962,-0.496479
1629810623630,-0.770674,-0.39222999999999997,-0.497882
1629810623640,-0.770918,-0.391986,-0.497882
1629810623649,-0.77043,-0.39222999999999997,-0.497089
1629810623659,-0.770491,-0.391742,-0.49654
1629810623668,-0.771528,-0.392718,-0.497882
1629810623678,-0.771528,-0.392352,-0.496784
1629810623688,-0.771162,-0.390156,-0.496906
1629810623697,-0.772321,-0.39039999999999997,-0.497272
1629810623707,-0.773541,-0.394182,-0.5002
1629810623716,-0.772992,-0.396317,-0.504165
1629810623726,-0.773968,-0.396439,-0.506727
1629810623736,-0.773663,-0.394487,-0.505263
1629810623745,-0.772138,-0.39222999999999997,-0.500017
1629810623755,-0.77165,-0.389973,-0.496052
1629810623764,-0.770003,-0.390888,-0.49471
1629810623774,-0.770064,-0.390461,-0.495747
1629810623784,-0.769088,-0.39222999999999997,-0.49672299999999997
1629810623793,-0.770064,-0.393084,-0.498614
1629810623803,-0.769088,-0.392779,-0.49946799999999997
1629810623812,-0.76921,-0.393816,-0.49959
1629810623822,-0.769393,-0.39436499999999997,-0.499407
1629810623832,-0.769027,-0.394304,-0.500505
1629810623841,-0.769698,-0.395524,-0.49959
1629810623851,-0.769271,-0.394914,-0.498126
1629810623860,-0.769271,-0.39466999999999997,-0.496906
1629810623870,-0.769454,-0.394853,-0.495686
1629810623880,-0.769515,-0.395768,-0.496784
1629810623889,-0.770308,-0.395402,-0.497577
1629810623899,-0.770247,-0.396683,-0.497882
1629810623908,-0.769332,-0.395646,-0.49916299999999997
1629810623918,-0.769942,-0.395219,-0.499956
1629810623928,-0.769698,-0.39527999999999996,-0.49946799999999997
1629810623937,-0.769454,-0.393816,-0.499041
1629810623947,-0.76921,-0.393267,-0.498919
1629810623956,-0.769271,-0.394548,-0.498065
1629810623966,-0.770369,-0.393694,-0.49898
1629810623976,-0.770491,-0.394792,-0.499712
1629810623985,-0.770308,-0.395036,-0.49898
1629810623995,-0.770186,-0.394548,-0.500139
1629810624004,-0.76982,-0.393389,-0.499956
1629810624014,-0.769698,-0.392596,-0.498431
1629810624024,-0.770613,-0.390644,-0.498187
1629810624033,-0.770064,-0.39222999999999997,-0.499712
1629810624043,-0.769393,-0.393572,-0.50386
1629810624052,-0.770918,-0.39375499999999997,-0.503799
1629810624062,-0.771162,-0.392962,-0.502213
1629810624072,-0.771223,-0.392413,-0.50142
1629810624081,-0.770613,-0.393938,-0.500749
1629810624091,-0.770796,-0.394426,-0.499285
1629810624100,-0.77104,-0.394548,-0.498431
1629810624110,-0.76982,-0.393938,-0.497882
1629810624120,-0.769332,-0.393633,-0.49776
1629810624129,-0.768356,-0.394121,-0.499346
1629810624139,-0.769149,-0.392962,-0.499712
1629810624148,-0.769088,-0.393877,-0.500322
1629810624158,-0.769088,-0.393023,-0.501237
1629810624168,-0.769759,-0.393328,-0.501115
1629810624177,-0.770003,-0.392718,-0.501298
1629810624187,-0.769515,-0.392657,-0.501969
1629810624196,-0.769393,-0.392779,-0.501298
1629810624206,-0.768905,-0.393694,-0.500749
1629810624216,-0.769271,-0.393694,-0.500017
1629810624225,-0.770064,-0.394792,-0.499956
1629810624235,-0.769332,-0.395463,-0.501237
1629810624244,-0.769149,-0.396317,-0.499834
1629810624254,-0.770491,-0.394853,-0.500566
1629810624264,-0.769332,-0.39375499999999997,-0.500322
1629810624273,-0.76982,-0.393206,-0.499712
1629810624283,-0.768905,-0.394121,-0.49916299999999997
1629810624292,-0.769942,-0.394914,-0.498065
1629810624302,-0.768478,-0.395646,-0.49715
1629810624312,-0.767807,-0.397171,-0.49702799999999997
1629810624321,-0.768356,-0.398452,-0.49763799999999997
1629810624331,-0.768722,-0.398452,-0.496662
1629810624340,-0.768234,-0.39955,-0.495259
1629810624350,-0.768722,-0.399794,-0.495869
1629810624360,-0.768295,-0.401014,-0.494283
1629810624369,-0.769149,-0.399855,-0.49471
1629810624379,-0.768661,-0.399916,-0.494771
1629810624388,-0.768661,-0.399916,-0.49580799999999997
1629810624398,-0.769393,-0.39894,-0.496479
1629810624408,-0.770186,-0.398208,-0.49715
1629810624417,-0.769759,-0.397781,-0.49763799999999997
1629810624427,-0.770064,-0.398452,-0.49733299999999997
1629810624436,-0.770674,-0.397842,-0.49672299999999997
1629810624446,-0.770918,-0.397598,-0.496845
1629810624456,-0.770491,-0.397659,-0.496967
1629810624465,-0.770918,-0.396622,-0.495747
1629810624475,-0.770857,-0.396561,-0.49611299999999997
1629810624484,-0.771406,-0.396988,-0.496662
1629810624494,-0.770735,-0.397171,-0.496845
1629810624504,-0.771467,-0.396195,-0.496357
1629810624513,-0.770552,-0.39558499999999996,-0.495747
1629810624523,-0.770674,-0.397171,-0.49580799999999997
1629810624532,-0.771162,-0.396988,-0.49580799999999997
1629810624542,-0.772199,-0.397232,-0.49519799999999997
1629810624552,-0.771223,-0.39833,-0.495564
1629810624561,-0.770674,-0.397293,-0.495381
1629810624571,-0.770552,-0.396256,-0.494771
1629810624580,-0.771284,-0.395829,-0.494405
1629810624590,-0.771162,-0.395951,-0.495137
1629810624600,-0.771101,-0.395646,-0.495015
1629810624609,-0.771528,-0.396378,-0.4941
1629810624619,-0.771528,-0.397232,-0.494466
1629810624628,-0.770918,-0.397659,-0.49458799999999997
1629810624638,-0.771406,-0.397476,-0.494649
1629810624648,-0.771345,-0.397049,-0.494466
1629810624657,-0.771406,-0.396134,-0.49593
1629810624667,-0.771467,-0.39588999999999996,-0.495625
1629810624676,-0.770125,-0.395402,-0.49471
1629810624686,-0.771528,-0.395402,-0.495137
1629810624696,-0.771101,-0.393877,-0.495869
1629810624705,-0.770979,-0.39405999999999997,-0.495381
1629810624715,-0.770674,-0.393999,-0.495076
1629810624724,-0.771162,-0.39497499999999997,-0.494954
1629810624734,-0.772199,-0.394548,-0.49532
1629810624744,-0.771406,-0.39466999999999997,-0.494222
1629810624753,-0.77165,-0.392962,-0.494283
1629810624763,-0.773724,-0.393816,-0.494954
1629810624772,-0.774212,-0.397476,-0.49824799999999997
1629810624782,-0.774578,-0.399794,-0.50203
1629810624792,-0.775554,-0.39894,-0.503494
1629810624801,-0.774395,-0.397049,-0.501664
1629810624811,-0.773602,-0.394487,-0.497455
1629810624820,-0.772443,-0.392657,-0.494039
1629810624830,-0.770857,-0.391071,-0.492087
1629810624840,-0.770796,-0.391498,-0.492575
1629810624849,-0.77043,-0.393023,-0.49471
1629810624859,-0.769637,-0.394182,-0.49654
1629810624868,-0.76982,-0.394548,-0.497272
1629810624878,-0.771101,-0.39558499999999996,-0.496906
1629810624888,-0.770674,-0.39527999999999996,-0.49702799999999997
1629810624897,-0.769942,-0.396012,-0.495564
1629810624907,-0.769515,-0.3965,-0.494466
1629810624916,-0.769881,-0.396805,-0.49324599999999996
1629810624926,-0.770186,-0.397232,-0.492148
1629810624936,-0.770186,-0.397476,-0.492514
1629810624945,-0.770674,-0.398086,-0.49202599999999996
1629810624955,-0.771284,-0.398574,-0.492575
1629810624964,-0.771284,-0.398269,-0.493795
1629810624974,-0.771589,-0.396988,-0.494649
1629810624984,-0.77226,-0.396073,-0.49471
1629810624993,-0.772199,-0.395768,-0.49519799999999997
1629810625003,-0.773053,-0.394792,-0.495076
1629810625012,-0.771833,-0.395158,-0.495076
1629810625022,-0.773541,-0.39375499999999997,-0.49519799999999997
1629810625032,-0.772748,-0.394304,-0.49550299999999997
1629810625041,-0.771894,-0.394792,-0.494527
1629810625051,-0.772443,-0.395707,-0.493429
1629810625060,-0.772504,-0.397049,-0.493734
1629810625070,-0.772199,-0.395341,-0.49349
1629810625080,-0.773236,-0.393694,-0.493368
1629810625089,-0.772565,-0.393999,-0.49489299999999997
1629810625099,-0.772992,-0.395219,-0.494954
1629810625108,-0.774456,-0.395219,-0.497455
1629810625118,-0.773785,-0.395829,-0.49702799999999997
1629810625128,-0.774822,-0.395829,-0.496662
1629810625137,-0.773053,-0.39558499999999996,-0.49489299999999997
1629810625147,-0.773602,-0.397049,-0.4941
1629810625156,-0.772443,-0.396073,-0.493978
1629810625166,-0.772565,-0.396134,-0.493429
1629810625176,-0.771589,-0.394853,-0.493856
1629810625185,-0.772321,-0.395524,-0.494039
1629810625195,-0.772016,-0.396073,-0.493734
1629810625204,-0.772016,-0.396195,-0.494466
1629810625214,-0.772504,-0.396378,-0.49489299999999997
1629810625224,-0.772321,-0.396805,-0.49532
1629810625233,-0.772138,-0.39558499999999996,-0.495625
1629810625243,-0.771528,-0.395646,-0.496906
1629810625252,-0.772504,-0.396378,-0.496174
1629810625262,-0.77104,-0.395158,-0.49593
1629810625272,-0.772016,-0.394182,-0.495686
1629810625281,-0.771284,-0.393511,-0.495137
1629810625291,-0.770674,-0.39375499999999997,-0.496479
1629810625300,-0.770308,-0.394182,-0.497882
1629810625310,-0.771345,-0.393633,-0.497394
1629810625320,-0.771284,-0.393084,-0.49824799999999997
1629810625329,-0.770491,-0.392108,-0.498736
1629810625339,-0.770552,-0.392169,-0.497577
1629810625348,-0.769698,-0.392657,-0.49654
1629810625358,-0.770979,-0.393694,-0.49580799999999997
1629810625368,-0.770491,-0.395219,-0.496479
1629810625377,-0.770918,-0.39711,-0.495259
1629810625387,-0.77104,-0.398208,-0.495442
1629810625396,-0.770247,-0.399184,-0.493795
1629810625406,-0.770491,-0.399123,-0.492819
1629810625416,-0.770979,-0.398635,-0.493124
1629810625425,-0.771406,-0.398818,-0.492697
1629810625435,-0.770064,-0.397293,-0.49349
1629810625444,-0.771589,-0.395402,-0.494405
1629810625454,-0.771528,-0.395097,-0.495442
1629810625464,-0.77104,-0.39436499999999997,-0.496052
1629810625473,-0.772138,-0.393084,-0.496601
1629810625483,-0.771528,-0.393084,-0.496296
1629810625492,-0.771894,-0.39253499999999997,-0.497089
1629810625502,-0.772199,-0.392657,-0.496479
1629810625512,-0.772992,-0.39344999999999997,-0.49654
1629810625521,-0.773114,-0.394182,-0.496906
1629810625531,-0.773175,-0.394609,-0.49702799999999997
1629810625540,-0.77348,-0.39558499999999996,-0.496052
1629810625550,-0.773297,-0.396317,-0.49580799999999997
1629810625560,-0.772504,-0.396744,-0.49489299999999997
1629810625569,-0.772992,-0.396195,-0.49471
1629810625579,-0.772199,-0.397476,-0.493734
1629810625588,-0.771406,-0.397781,-0.494161
1629810625598,-0.771711,-0.397049,-0.49355099999999996
1629810625608,-0.771284,-0.397232,-0.493734
1629810625617,-0.77226,-0.39711,-0.494039
1629810625627,-0.771345,-0.396744,-0.49471
1629810625636,-0.77226,-0.396012,-0.494405
1629810625646,-0.77165,-0.395463,-0.494466
1629810625656,-0.771284,-0.396195,-0.494405
1629810625665,-0.771589,-0.396622,-0.493795
1629810625675,-0.771406,-0.396622,-0.493978
1629810625684,-0.771711,-0.397903,-0.49355099999999996
1629810625694,-0.771711,-0.397415,-0.493856
1629810625704,-0.771833,-0.397964,-0.493368
1629810625713,-0.770796,-0.398025,-0.492575
1629810625723,-0.770918,-0.397598,-0.49288
1629810625732,-0.771589,-0.397537,-0.492758
1629810625742,-0.771101,-0.397232,-0.493124
1629810625752,-0.770613,-0.396988,-0.493124
1629810625761,-0.771284,-0.396988,-0.492392
1629810625771,-0.772016,-0.397232,-0.492209
1629810625780,-0.771101,-0.397171,-0.49233099999999996
1629810625790,-0.772321,-0.396988,-0.490989
1629810625800,-0.771467,-0.397293,-0.491477
1629810625809,-0.772016,-0.3965,-0.491233
1629810625819,-0.77226,-0.39466999999999997,-0.490562
1629810625828,-0.774578,-0.396622,-0.49105
1629810625838,-0.775127,-0.399428,-0.494527
1629810625848,-0.775188,-0.400953,-0.49855299999999997
1629810625857,-0.775554,-0.40138,-0.500383
1629810625867,-0.775249,-0.400648,-0.497699
1629810625876,-0.775066,-0.398879,-0.494954
1629810625886,-0.772382,-0.398025,-0.491355
1629810625896,-0.772626,-0.396561,-0.488244
1629810625905,-0.771528,-0.396195,-0.48922
1629810625915,-0.77104,-0.396988,-0.48989099999999997
1629810625924,-0.770552,-0.398086,-0.491904
1629810625934,-0.770491,-0.398452,-0.492819
1629810625944,-0.770369,-0.398208,-0.493368
1629810625953,-0.77104,-0.399245,-0.493185
1629810625963,-0.770918,-0.399855,-0.492514
1629810625972,-0.770735,-0.400526,-0.49111099999999996
1629810625982,-0.771162,-0.40028199999999997,-0.491294
1629810625992,-0.770796,-0.40058699999999997,-0.48958599999999997
1629810626001,-0.771406,-0.401136,-0.489952
1629810626011,-0.77165,-0.401624,-0.49019599999999997
1629810626020,-0.772382,-0.401441,-0.492575
1629810626030,-0.772626,-0.40077,-0.492697
1629810626040,-0.772199,-0.39936699999999997,-0.493673
1629810626049,-0.772504,-0.399062,-0.493917
1629810626059,-0.772077,-0.397964,-0.494832
1629810626068,-0.77165,-0.397537,-0.493673
1629810626078,-0.771284,-0.397049,-0.49349
1629810626088,-0.771772,-0.397659,-0.493307
1629810626097,-0.771406,-0.398635,-0.492758
1629810626107,-0.770979,-0.397415,-0.493124
1629810626116,-0.772138,-0.398208,-0.492514
1629810626126,-0.770674,-0.400465,-0.492758
1629810626136,-0.770918,-0.396622,-0.489952
1629810626145,-0.772138,-0.395219,-0.490562
1629810626155,-0.771101,-0.395768,-0.490928
1629810626164,-0.772138,-0.397903,-0.494344
1629810626174,-0.772687,-0.398452,-0.497516
1629810626184,-0.77348,-0.398086,-0.496662
1629810626193,-0.773785,-0.397415,-0.494344
1629810626203,-0.77409,-0.397232,-0.492697
1629810626212,-0.773419,-0.397293,-0.49227
1629810626222,-0.77409,-0.398025,-0.492758
1629810626232,-0.773846,-0.397354,-0.492453
1629810626241,-0.77348,-0.397232,-0.49263599999999996
1629810626251,-0.772992,-0.396256,-0.493429
1629810626260,-0.773785,-0.396561,-0.494649
1629810626270,-0.772016,-0.397171,-0.49471
1629810626280,-0.771833,-0.396439,-0.49489299999999997
1629810626289,-0.772687,-0.395524,-0.49519799999999997
1629810626299,-0.771589,-0.396256,-0.495747
1629810626308,-0.770674,-0.396744,-0.495564
1629810626318,-0.77104,-0.3965,-0.495747
1629810626328,-0.77165,-0.396134,-0.495076
1629810626337,-0.771284,-0.396073,-0.494466
1629810626347,-0.771223,-0.395097,-0.494405
1629810626356,-0.771345,-0.395768,-0.495381
1629810626366,-0.77043,-0.39497499999999997,-0.496784
1629810626376,-0.770308,-0.395768,-0.497699
1629810626385,-0.769942,-0.39558499999999996,-0.49898
1629810626395,-0.769393,-0.395402,-0.498675
1629810626404,-0.770064,-0.394304,-0.497455
1629810626414,-0.768905,-0.394731,-0.495991
1629810626424,-0.769576,-0.396134,-0.49471
1629810626433,-0.768051,-0.39772,-0.494649
1629810626443,-0.769515,-0.398696,-0.493978
1629810626452,-0.768112,-0.400526,-0.493063
1629810626462,-0.7671359999999999,-0.40058699999999997,-0.49263599999999996
1629810626472,-0.767868,-0.40138,-0.492453
1629810626481,-0.7686,-0.401868,-0.49172099999999996
1629810626491,-0.768112,-0.401258,-0.491538
1629810626500,-0.769454,-0.400404,-0.491538
1629810626510,-0.769759,-0.399428,-0.492697
1629810626520,-0.770674,-0.399489,-0.494039
1629810626529,-0.770796,-0.399123,-0.495015
1629810626539,-0.771589,-0.398147,-0.495564
1629810626548,-0.771528,-0.396805,-0.495869
1629810626558,-0.772199,-0.396866,-0.49672299999999997
1629810626568,-0.771894,-0.3965,-0.496601
1629810626577,-0.772077,-0.396012,-0.496662
1629810626587,-0.77287,-0.395463,-0.496235
1629810626596,-0.772321,-0.39527999999999996,-0.496296
1629810626606,-0.772931,-0.395463,-0.495747
1629810626616,-0.772016,-0.395646,-0.49550299999999997
1629810626625,-0.772748,-0.396134,-0.49550299999999997
1629810626635,-0.773419,-0.396622,-0.495381
1629810626644,-0.77226,-0.397232,-0.495625
1629810626654,-0.772626,-0.3965,-0.494649
1629810626664,-0.771101,-0.396195,-0.49458799999999997
1629810626673,-0.77165,-0.395768,-0.493856
1629810626683,-0.771589,-0.396012,-0.492758
1629810626692,-0.771833,-0.396256,-0.492453
1629810626702,-0.772382,-0.396988,-0.493124
1629810626712,-0.772626,-0.397598,-0.493368
1629810626721,-0.772687,-0.398208,-0.494344
1629810626731,-0.773297,-0.397964,-0.494039
1629810626740,-0.771833,-0.397659,-0.4941
1629810626750,-0.771528,-0.397293,-0.4941
1629810626760,-0.772077,-0.396256,-0.495015
1629810626769,-0.770979,-0.395158,-0.493734
1629810626779,-0.771345,-0.394548,-0.494161
1629810626788,-0.772687,-0.393206,-0.496296
1629810626798,-0.771589,-0.394182,-0.49611299999999997
1629810626808,-0.771162,-0.393877,-0.494527
1629810626817,-0.770918,-0.394548,-0.493612
1629810626827,-0.770186,-0.39375499999999997,-0.493307
1629810626836,-0.770552,-0.394426,-0.493429
1629810626846,-0.771162,-0.393084,-0.494405
1629810626856,-0.77348,-0.39405999999999997,-0.496235
1629810626865,-0.774944,-0.395951,-0.498187
1629810626875,-0.774273,-0.399001,-0.50142
1629810626884,-0.774822,-0.400526,-0.501054
1629810626894,-0.774822,-0.399123,-0.49794299999999997
1629810626904,-0.772504,-0.396134,-0.493795
1629810626913,-0.77165,-0.39527999999999996,-0.490318
1629810626923,-0.77043,-0.394914,-0.490562
1629810626932,-0.770186,-0.394487,-0.491904
1629810626942,-0.769576,-0.394792,-0.493978
1629810626952,-0.768905,-0.395829,-0.495564
1629810626961,-0.770247,-0.395829,-0.495686
1629810626971,-0.770186,-0.396195,-0.49611299999999997
1629810626980,-0.770979,-0.397476,-0.494283
1629810626990,-0.770674,-0.397964,-0.494832
1629810627000,-0.770125,-0.397476,-0.494039
1629810627009,-0.771345,-0.397293,-0.49263599999999996
1629810627019,-0.772077,-0.396988,-0.492575
1629810627028,-0.771467,-0.396561,-0.4941
1629810627038,-0.773053,-0.396988,-0.494954
1629810627048,-0.772748,-0.396744,-0.49641799999999997
1629810627057,-0.773236,-0.396622,-0.496784
1629810627067,-0.772504,-0.395341,-0.49654
1629810627076,-0.772992,-0.396439,-0.496601
1629810627086,-0.771955,-0.396073,-0.49550299999999997
1629810627096,-0.772138,-0.395524,-0.495442
1629810627105,-0.771772,-0.395158,-0.49458799999999997
1629810627115,-0.77165,-0.395707,-0.494832
1629810627124,-0.771589,-0.396805,-0.494222
1629810627134,-0.770064,-0.3965,-0.493734
1629810627144,-0.76921,-0.393694,-0.493185
1629810627153,-0.769759,-0.391559,-0.492392
1629810627163,-0.770857,-0.39100999999999997,-0.492453
1629810627172,-0.771345,-0.393511,-0.494222
1629810627182,-0.772321,-0.395158,-0.496906
1629810627192,-0.773663,-0.396134,-0.499102
1629810627201,-0.77409,-0.39497499999999997,-0.49885799999999997
1629810627211,-0.773724,-0.394426,-0.497821
1629810627220,-0.773602,-0.394487,-0.495686
1629810627230,-0.773114,-0.394304,-0.493673
1629810627240,-0.77348,-0.395036,-0.493063
1629810627249,-0.773175,-0.39466999999999997,-0.494161
1629810627259,-0.772626,-0.39558499999999996,-0.4941
1629810627268,-0.773053,-0.395951,-0.494649
1629810627278,-0.772748,-0.395707,-0.49672299999999997
1629810627288,-0.772565,-0.396256,-0.49763799999999997
1629810627297,-0.772992,-0.395524,-0.49715
1629810627307,-0.772748,-0.39497499999999997,-0.49702799999999997
1629810627316,-0.772199,-0.393938,-0.497821
1629810627326,-0.772382,-0.393267,-0.496784
1629810627336,-0.771772,-0.39314499999999997,-0.496784
1629810627345,-0.771894,-0.392718,-0.49672299999999997
1629810627355,-0.771894,-0.392352,-0.497089
1629810627364,-0.772199,-0.392718,-0.498004
1629810627374,-0.771711,-0.392962,-0.499346
1629810627384,-0.770979,-0.39344999999999997,-0.498675
1629810627393,-0.771406,-0.393999,-0.498919
1629810627403,-0.771406,-0.393694,-0.498614
1629810627412,-0.770735,-0.392962,-0.497394
1629810627422,-0.771589,-0.393328,-0.496967
1629810627432,-0.769881,-0.394304,-0.49611299999999997
1629810627441,-0.769942,-0.395768,-0.495564
1629810627451,-0.769332,-0.397293,-0.495442
1629810627460,-0.76921,-0.397232,-0.494466
1629810627470,-0.768722,-0.397964,-0.4941
1629810627480,-0.769576,-0.398208,-0.494283
1629810627489,-0.769759,-0.397598,-0.493978
1629810627499,-0.769454,-0.397171,-0.4941
1629810627508,-0.769515,-0.397354,-0.493856
1629810627518,-0.770125,-0.396561,-0.494283
1629810627528,-0.770735,-0.39558499999999996,-0.49532
1629810627537,-0.771589,-0.396195,-0.495015
1629810627547,-0.772016,-0.395341,-0.496601
1629810627556,-0.77165,-0.39497499999999997,-0.496906
1629810627566,-0.772626,-0.394548,-0.496967
1629810627576,-0.772626,-0.394121,-0.496845
1629810627585,-0.772565,-0.395036,-0.496662
1629810627595,-0.772321,-0.393877,-0.497272
1629810627604,-0.772748,-0.395341,-0.497272
1629810627614,-0.773114,-0.39497499999999997,-0.49641799999999997
1629810627624,-0.773053,-0.395097,-0.496784
1629810627633,-0.772809,-0.394853,-0.495686
1629810627643,-0.771833,-0.395768,-0.495015
1629810627652,-0.772077,-0.395646,-0.49489299999999997
1629810627662,-0.77287,-0.3965,-0.495015
1629810627672,-0.772748,-0.396378,-0.494344
1629810627681,-0.772382,-0.396683,-0.494344
1629810627691,-0.773175,-0.397049,-0.495015
1629810627700,-0.772382,-0.3965,-0.49471
1629810627710,-0.772199,-0.396256,-0.494283
1629810627720,-0.772504,-0.395219,-0.493856
1629810627729,-0.771406,-0.394914,-0.493612
1629810627739,-0.772199,-0.395219,-0.493734
1629810627748,-0.77104,-0.39375499999999997,-0.4941
1629810627758,-0.77226,-0.393816,-0.49471
1629810627768,-0.772382,-0.393572,-0.49519799999999997
1629810627777,-0.772443,-0.394121,-0.493612
1629810627787,-0.772443,-0.393511,-0.494283
1629810627796,-0.771284,-0.394304,-0.49471
1629810627806,-0.770979,-0.392657,-0.495137
1629810627816,-0.77165,-0.390766,-0.494954
1629810627825,-0.774212,-0.391254,-0.49593
1629810627835,-0.773968,-0.393938,-0.498736
1629810627844,-0.77348,-0.396927,-0.502579
1629810627854,-0.773846,-0.397415,-0.503494
1629810627864,-0.773785,-0.395097,-0.500566
1629810627873,-0.772138,-0.393633,-0.495076
1629810627883,-0.77043,-0.391864,-0.492453
1629810627892,-0.770552,-0.390888,-0.492148
1629810627902,-0.770857,-0.392108,-0.494283
1629810627912,-0.769881,-0.393084,-0.49580799999999997
1629810627921,-0.769759,-0.393877,-0.49824799999999997
1629810627931,-0.770369,-0.39375499999999997,-0.497821
1629810627940,-0.770308,-0.39466999999999997,-0.497089
1629810627950,-0.770613,-0.395524,-0.498004
1629810627960,-0.770003,-0.395707,-0.49733299999999997
1629810627969,-0.77043,-0.396256,-0.495625
1629810627979,-0.77104,-0.395463,-0.49489299999999997
1629810627988,-0.770186,-0.395524,-0.494954
1629810627998,-0.770857,-0.39588999999999996,-0.494527
1629810628008,-0.771223,-0.396805,-0.49580799999999997
1629810628017,-0.772016,-0.396256,-0.49611299999999997
1629810628027,-0.771833,-0.396012,-0.496967
1629810628036,-0.772016,-0.3965,-0.497394
1629810628046,-0.772504,-0.395707,-0.496784
1629810628056,-0.77165,-0.39466999999999997,-0.49593
1629810628065,-0.772138,-0.394426,-0.495564
1629810628075,-0.772016,-0.394609,-0.495991
1629810628084,-0.772016,-0.394426,-0.49654
1629810628094,-0.77226,-0.39405999999999997,-0.49672299999999997
1629810628104,-0.771223,-0.394548,-0.49654
1629810628113,-0.771284,-0.394853,-0.49654
1629810628123,-0.770186,-0.393206,-0.493978
1629810628132,-0.772016,-0.391742,-0.49294099999999996
1629810628142,-0.771528,-0.391681,-0.493612
1629810628152,-0.77165,-0.393023,-0.49532
1629810628161,-0.773724,-0.395341,-0.499346
1629810628171,-0.773724,-0.396195,-0.501603
1629810628180,-0.7750049999999999,-0.394548,-0.499956
1629810628190,-0.773358,-0.393938,-0.49702799999999997
1629810628200,-0.772931,-0.393633,-0.495137
1629810628209,-0.771955,-0.395158,-0.494527
1629810628219,-0.771711,-0.394853,-0.494466
1629810628228,-0.772016,-0.394914,-0.49458799999999997
1629810628238,-0.771955,-0.394426,-0.495381
1629810628248,-0.771528,-0.394914,-0.495564
1629810628257,-0.771101,-0.39527999999999996,-0.497394
1629810628267,-0.770857,-0.394487,-0.497089
1629810628276,-0.770735,-0.394914,-0.498126
1629810628286,-0.77104,-0.393633,-0.497821
1629810628296,-0.771223,-0.393816,-0.49837
1629810628305,-0.771406,-0.393877,-0.497455
1629810628315,-0.771467,-0.39375499999999997,-0.496662
1629810628324,-0.771162,-0.394121,-0.497272
1629810628334,-0.770613,-0.393816,-0.49593
1629810628344,-0.769942,-0.39466999999999997,-0.496479
1629810628353,-0.77043,-0.395341,-0.497394
1629810628363,-0.770979,-0.396134,-0.49824799999999997
1629810628372,-0.770857,-0.395707,-0.499224
1629810628382,-0.770308,-0.39588999999999996,-0.49837
1629810628392,-0.769698,-0.394914,-0.497211
1629810628401,-0.769454,-0.394731,-0.49580799999999997
1629810628411,-0.769576,-0.395951,-0.495869
1629810628420,-0.769088,-0.39497499999999997,-0.495686
1629810628430,-0.769271,-0.396744,-0.495137
1629810628440,-0.769088,-0.397232,-0.495991
1629810628449,-0.769332,-0.398147,-0.495259
1629810628459,-0.768539,-0.398147,-0.494527
1629810628468,-0.769515,-0.397598,-0.494344
1629810628478,-0.769515,-0.397415,-0.494832
1629810628488,-0.770003,-0.39772,-0.495076
1629810628497,-0.769698,-0.396927,-0.495076
1629810628507,-0.770491,-0.39588999999999996,-0.494954
1629810628516,-0.770857,-0.395341,-0.496662
1629810628526,-0.771223,-0.394853,-0.496479
1629810628536,-0.771772,-0.395097,-0.49641799999999997
1629810628545,-0.771284,-0.394731,-0.496784
1629810628555,-0.772687,-0.394243,-0.496784
1629810628564,-0.772748,-0.394243,-0.496845
1629810628574,-0.773358,-0.394792,-0.496296
1629810628584,-0.772199,-0.395219,-0.497089
1629810628593,-0.772321,-0.393816,-0.49654
1629810628603,-0.772931,-0.394731,-0.496479
1629810628612,-0.773602,-0.395097,-0.49580799999999997
1629810628622,-0.773053,-0.394792,-0.49532
1629810628632,-0.772016,-0.39466999999999997,-0.495381
1629810628641,-0.772809,-0.394548,-0.496174
1629810628651,-0.77226,-0.394548,-0.494832
1629810628660,-0.772077,-0.395524,-0.495259
1629810628670,-0.772443,-0.395951,-0.494283
1629810628680,-0.772565,-0.395646,-0.495076
1629810628689,-0.772077,-0.395341,-0.49532
1629810628699,-0.771955,-0.395036,-0.494466
1629810628708,-0.772748,-0.395402,-0.494344
1629810628718,-0.771772,-0.39558499999999996,-0.494405
1629810628728,-0.771711,-0.395646,-0.494771
1629810628737,-0.771711,-0.396744,-0.4941
1629810628747,-0.772138,-0.397171,-0.494344
1629810628756,-0.771528,-0.396744,-0.494527
1629810628766,-0.771528,-0.396988,-0.494466
1629810628776,-0.769881,-0.39588999999999996,-0.493368
1629810628785,-0.771833,-0.396378,-0.493612
1629810628795,-0.771955,-0.395768,-0.493673
1629810628804,-0.772016,-0.395036,-0.494222
1629810628814,-0.771894,-0.395341,-0.494344
1629810628824,-0.771772,-0.395036,-0.494466
1629810628833,-0.770308,-0.394792,-0.493124
1629810628843,-0.771528,-0.395646,-0.49227
1629810628852,-0.771528,-0.395951,-0.494405
1629810628862,-0.77165,-0.394243,-0.492819
1629810628872,-0.772443,-0.393023,-0.492148
1629810628881,-0.774517,-0.394182,-0.492819
1629810628891,-0.7750049999999999,-0.396683,-0.496235
1629810628900,-0.774578,-0.398696,-0.49916299999999997
1629810628910,-0.775371,-0.397476,-0.501664
1629810628920,-0.7759199999999999,-0.396317,-0.499712
1629810628929,-0.774822,-0.39436499999999997,-0.495686
1629810628939,-0.772077,-0.392596,-0.49233099999999996
1629810628948,-0.771894,-0.392047,-0.491172
1629810628958,-0.770552,-0.392596,-0.490745
1629810628968,-0.770064,-0.39375499999999997,-0.492087
1629810628977,-0.770857,-0.39497499999999997,-0.494405
1629810628987,-0.771406,-0.39527999999999996,-0.49580799999999997
1629810628996,-0.771284,-0.396378,-0.49550299999999997
1629810629006,-0.770979,-0.397171,-0.49458799999999997
1629810629016,-0.771894,-0.397232,-0.493734
1629810629025,-0.771345,-0.397842,-0.492514
1629810629035,-0.771772,-0.39711,-0.491477
1629810629044,-0.771955,-0.397354,-0.49166
1629810629054,-0.772199,-0.397171,-0.49044
1629810629064,-0.771467,-0.397476,-0.491599
1629810629073,-0.772626,-0.399001,-0.492209
1629810629083,-0.773968,-0.397293,-0.493612
1629810629092,-0.77287,-0.396622,-0.494527
1629810629102,-0.773541,-0.395524,-0.494832
1629810629112,-0.773175,-0.395463,-0.494344
1629810629121,-0.773114,-0.395524,-0.49519799999999997
1629810629131,-0.77348,-0.395097,-0.493917
1629810629140,-0.772626,-0.39527999999999996,-0.493673
1629810629150,-0.772565,-0.39497499999999997,-0.494222
1629810629160,-0.773785,-0.395524,-0.49355099999999996
1629810629169,-0.774334,-0.397171,-0.49294099999999996
1629810629179,-0.772321,-0.397415,-0.492575
1629810629188,-0.772382,-0.394243,-0.49105
1629810629198,-0.774029,-0.393328,-0.490562
1629810629208,-0.773785,-0.394792,-0.491843
1629810629217,-0.773907,-0.395463,-0.494649
1629810629227,-0.775188,-0.396012,-0.49641799999999997
1629810629236,-0.775798,-0.395829,-0.496906
1629810629246,-0.7746999999999999,-0.395463,-0.49471
1629810629256,-0.774517,-0.395036,-0.49324599999999996
1629810629265,-0.774334,-0.395768,-0.49141599999999996
1629810629275,-0.773785,-0.395463,-0.491477
1629810629284,-0.773846,-0.394914,-0.49233099999999996
1629810629294,-0.773541,-0.395341,-0.49227
1629810629304,-0.773785,-0.39466999999999997,-0.492148
1629810629313,-0.773358,-0.394609,-0.493185
1629810629323,-0.772809,-0.394548,-0.493673
1629810629332,-0.773358,-0.39497499999999997,-0.493429
1629810629342,-0.773053,-0.394914,-0.493368
1629810629352,-0.772748,-0.394487,-0.4941
1629810629361,-0.773175,-0.393633,-0.49471
1629810629371,-0.773175,-0.393877,-0.495747
1629810629380,-0.772992,-0.394182,-0.49458799999999997
1629810629390,-0.772992,-0.394182,-0.494283
1629810629400,-0.772687,-0.394548,-0.494527
1629810629409,-0.772321,-0.394243,-0.494527
1629810629419,-0.772809,-0.39344999999999997,-0.49532
1629810629428,-0.771589,-0.394121,-0.49672299999999997
1629810629438,-0.772321,-0.395524,-0.496479
1629810629448,-0.771772,-0.394731,-0.49641799999999997
1629810629457,-0.772199,-0.395097,-0.496052
1629810629467,-0.771406,-0.395097,-0.4941
1629810629476,-0.770918,-0.396012,-0.493124
1629810629486,-0.770796,-0.397232,-0.49202599999999996
1629810629496,-0.771162,-0.397354,-0.491843
1629810629505,-0.771406,-0.398635,-0.491355
1629810629515,-0.772016,-0.399428,-0.491538
1629810629524,-0.771711,-0.400404,-0.491538
1629810629534,-0.772321,-0.400404,-0.491294
1629810629544,-0.772138,-0.399184,-0.491294
1629810629553,-0.772199,-0.398696,-0.49105
1629810629563,-0.772443,-0.397537,-0.491965
1629810629572,-0.77287,-0.396256,-0.493368
1629810629582,-0.773114,-0.395219,-0.494222
1629810629592,-0.77348,-0.395524,-0.49349
1629810629601,-0.773846,-0.394792,-0.494405
1629810629611,-0.77348,-0.394426,-0.49489299999999997
1629810629620,-0.773602,-0.394426,-0.495137
1629810629630,-0.774517,-0.395097,-0.494222
1629810629640,-0.773907,-0.395158,-0.49489299999999997
1629810629649,-0.774456,-0.396073,-0.494222
1629810629659,-0.774334,-0.396683,-0.494161
1629810629668,-0.774212,-0.396622,-0.493612
1629810629678,-0.77287,-0.396866,-0.49227
1629810629688,-0.773846,-0.396744,-0.492148
1629810629697,-0.773236,-0.396134,-0.491843
1629810629707,-0.772443,-0.398147,-0.492819
1629810629716,-0.771894,-0.397232,-0.49227
1629810629726,-0.771833,-0.397293,-0.49172099999999996
1629810629736,-0.772687,-0.396683,-0.492392
1629810629745,-0.77287,-0.396622,-0.492087
1629810629755,-0.771711,-0.396927,-0.49233099999999996
1629810629764,-0.771894,-0.396073,-0.492087
1629810629774,-0.772199,-0.396134,-0.49166
1629810629784,-0.772077,-0.396439,-0.492148
1629810629793,-0.771894,-0.397232,-0.49233099999999996
1629810629803,-0.772077,-0.397049,-0.492697
1629810629812,-0.772199,-0.398208,-0.49227
1629810629822,-0.772199,-0.397842,-0.492453
1629810629832,-0.772992,-0.39772,-0.491965
1629810629841,-0.77226,-0.397049,-0.49166
1629810629851,-0.772931,-0.396256,-0.49202599999999996
1629810629860,-0.772504,-0.395646,-0.49294099999999996
1629810629870,-0.772992,-0.394182,-0.493978
1629810629880,-0.773602,-0.394243,-0.49288
1629810629889,-0.772443,-0.395097,-0.49324599999999996
1629810629899,-0.773541,-0.394792,-0.492697
1629810629908,-0.773663,-0.395219,-0.491782
1629810629918,-0.774639,-0.395402,-0.49141599999999996
1629810629928,-0.774517,-0.394182,-0.491599
1629810629937,-0.773419,-0.392291,-0.491355
1629810629947,-0.7746999999999999,-0.392413,-0.490379
1629810629956,-0.7768349999999999,-0.395158,-0.493063
1629810629966,-0.776164,-0.397537,-0.495259
1629810629976,-0.776652,-0.398757,-0.49898
1629810629985,-0.775798,-0.397659,-0.49946799999999997
1629810629995,-0.775798,-0.396012,-0.49519799999999997
1629810630004,-0.774395,-0.393877,-0.49166
1629810630014,-0.774151,-0.39253499999999997,-0.48928099999999997
1629810630024,-0.772016,-0.391559,-0.490379
1629810630033,-0.772382,-0.392962,-0.49050099999999996
1629810630043,-0.772016,-0.393877,-0.492514
1629810630052,-0.772016,-0.394609,-0.493795
1629810630062,-0.771955,-0.395524,-0.493368
1629810630072,-0.771589,-0.397232,-0.493368
1629810630081,-0.771711,-0.39711,-0.49227
1629810630091,-0.77226,-0.397537,-0.490684
1629810630100,-0.772077,-0.398208,-0.490379
1629810630110,-0.771894,-0.399062,-0.489769
1629810630120,-0.772565,-0.398452,-0.489952
1629810630129,-0.771711,-0.397964,-0.490257
1629810630139,-0.772077,-0.398025,-0.490623
1629810630148,-0.772687,-0.397903,-0.491355
1629810630158,-0.773724,-0.397537,-0.49349
1629810630168,-0.774212,-0.396683,-0.49324599999999996
1629810630177,-0.774456,-0.396134,-0.493185
1629810630187,-0.77348,-0.39466999999999997,-0.493612
1629810630196,-0.773785,-0.395341,-0.493429
1629810630206,-0.773846,-0.394548,-0.492453
1629810630216,-0.7746999999999999,-0.39527999999999996,-0.492087
1629810630225,-0.77409,-0.396012,-0.491965
1629810630235,-0.774578,-0.397171,-0.490928
1629810630244,-0.774273,-0.398757,-0.490562
1629810630254,-0.772992,-0.395646,-0.489403
1629810630264,-0.77409,-0.393877,-0.489708
1629810630273,-0.774944,-0.394548,-0.488915
1629810630283,-0.774395,-0.395707,-0.491294
1629810630292,-0.775554,-0.397781,-0.495564
1629810630302,-0.775676,-0.397537,-0.495381
1629810630312,-0.775432,-0.396561,-0.493856
1629810630321,-0.775676,-0.395646,-0.49202599999999996
1629810630331,-0.774639,-0.395951,-0.490989
1629810630340,-0.774395,-0.39558499999999996,-0.490379
1629810630350,-0.774334,-0.39558499999999996,-0.490257
1629810630360,-0.773968,-0.394853,-0.490623
1629810630369,-0.773846,-0.395402,-0.491538
1629810630379,-0.774395,-0.396012,-0.49233099999999996
1629810630388,-0.77348,-0.395524,-0.493429
1629810630398,-0.773541,-0.395158,-0.49349
1629810630408,-0.773968,-0.395829,-0.493124
1629810630417,-0.773602,-0.396012,-0.492819
1629810630427,-0.77348,-0.395402,-0.49355099999999996
1629810630436,-0.773724,-0.394853,-0.493917
1629810630446,-0.772626,-0.39558499999999996,-0.494222
1629810630456,-0.772626,-0.394792,-0.493124
1629810630465,-0.772504,-0.394548,-0.493856
1629810630475,-0.772382,-0.393938,-0.493185
1629810630484,-0.771833,-0.393999,-0.493856
1629810630494,-0.771711,-0.393877,-0.494466
1629810630504,-0.771589,-0.394548,-0.495442
1629810630513,-0.772016,-0.39497499999999997,-0.495686
1629810630523,-0.772687,-0.39466999999999997,-0.49471
1629810630532,-0.772748,-0.394914,-0.493917
1629810630542,-0.772199,-0.396012,-0.493368
1629810630552,-0.771223,-0.396195,-0.492148
1629810630561,-0.771223,-0.396866,-0.49080599999999996
1629810630571,-0.771162,-0.398513,-0.490623
1629810630580,-0.771162,-0.398208,-0.490684
1629810630590,-0.771284,-0.399062,-0.491477
1629810630600,-0.771955,-0.39936699999999997,-0.490928
1629810630609,-0.772016,-0.399733,-0.49044
1629810630619,-0.772931,-0.39967199999999997,-0.490074
1629810630628,-0.77348,-0.399184,-0.49105
1629810630638,-0.772443,-0.397781,-0.490745
1629810630648,-0.773602,-0.396805,-0.492514
1629810630657,-0.773541,-0.396683,-0.49288
1629810630667,-0.774212,-0.39588999999999996,-0.492514
1629810630676,-0.774456,-0.396195,-0.493307
1629810630686,-0.775127,-0.396378,-0.49355099999999996
1629810630696,-0.773968,-0.396805,-0.493124
1629810630705,-0.774578,-0.39711,-0.49202599999999996
1629810630715,-0.774334,-0.39833,-0.490684
1629810630724,-0.774883,-0.399733,-0.491538
1629810630734,-0.773785,-0.398208,-0.490989
1629810630744,-0.77287,-0.396561,-0.49080599999999996
1629810630753,-0.773663,-0.396988,-0.49202599999999996
1629810630763,-0.773663,-0.395951,-0.492148
1629810630772,-0.773663,-0.39558499999999996,-0.492392
1629810630782,-0.773236,-0.39466999999999997,-0.49227
1629810630792,-0.773236,-0.393511,-0.493307
1629810630801,-0.774151,-0.392718,-0.493734
1629810630811,-0.773236,-0.392718,-0.493795
1629810630820,-0.773602,-0.391498,-0.493185
1629810630830,-0.773724,-0.391986,-0.49349
1629810630840,-0.773907,-0.390949,-0.493795
1629810630849,-0.772992,-0.390339,-0.49324599999999996
1629810630859,-0.773907,-0.391254,-0.492514
1629810630868,-0.773358,-0.391803,-0.492148
1629810630878,-0.774639,-0.393572,-0.492758
1629810630888,-0.7746999999999999,-0.396256,-0.49233099999999996
1629810630897,-0.7759199999999999,-0.398147,-0.49227
1629810630907,-0.776652,-0.398269,-0.49166
1629810630916,-0.775127,-0.398208,-0.490135
1629810630926,-0.774883,-0.399306,-0.489403
1629810630936,-0.7762249999999999,-0.399123,-0.48922
1629810630945,-0.775554,-0.39772,-0.488854
1629810630955,-0.775188,-0.396805,-0.490562
1629810630964,-0.774151,-0.397171,-0.490257
1629810630974,-0.773602,-0.396744,-0.490318
1629810630984,-0.774151,-0.396744,-0.489342
1629810630993,-0.773297,-0.395402,-0.489708
1629810631003,-0.772748,-0.39405999999999997,-0.49019599999999997
1629810631012,-0.773358,-0.39222999999999997,-0.490684
1629810631022,-0.775066,-0.391376,-0.49105
1629810631032,-0.776164,-0.393938,-0.493856
1629810631041,-0.776591,-0.396866,-0.498126
1629810631051,-0.775432,-0.397293,-0.49715
1629810631060,-0.7753099999999999,-0.396805,-0.49489299999999997
1629810631070,-0.775188,-0.393572,-0.490745
1629810631080,-0.77348,-0.393328,-0.488305
1629810631089,-0.77226,-0.392047,-0.488549
1629810631099,-0.773297,-0.392352,-0.489464
1629810631108,-0.773297,-0.392962,-0.49166
1629810631118,-0.771955,-0.394243,-0.493612
1629810631128,-0.77226,-0.39466999999999997,-0.493856
1629810631137,-0.77287,-0.39466999999999997,-0.494222
1629810631147,-0.772626,-0.395219,-0.492575
1629810631156,-0.77226,-0.395158,-0.493002
1629810631166,-0.773419,-0.395219,-0.491965
1629810631176,-0.772687,-0.39497499999999997,-0.490989
1629810631185,-0.773358,-0.394914,-0.490928
1629810631195,-0.773724,-0.39466999999999997,-0.49141599999999996
1629810631204,-0.774456,-0.39527999999999996,-0.492392
1629810631214,-0.775066,-0.395219,-0.495076
1629810631224,-0.774517,-0.39527999999999996,-0.494222
1629810631233,-0.7753099999999999,-0.395707,-0.493856
1629810631243,-0.775554,-0.395341,-0.493185
1629810631252,-0.774883,-0.395524,-0.492819
1629810631262,-0.774639,-0.394792,-0.49166
1629810631272,-0.773297,-0.395036,-0.491477
1629810631281,-0.773053,-0.395768,-0.491599
1629810631291,-0.772992,-0.397049,-0.491599
1629810631300,-0.773846,-0.39772,-0.49019599999999997
1629810631310,-0.772138,-0.397293,-0.49019599999999997
1629810631320,-0.772382,-0.393633,-0.487878
1629810631329,-0.773358,-0.392779,-0.489098
1629810631339,-0.773602,-0.39466999999999997,-0.48983
1629810631348,-0.774212,-0.395524,-0.49227
1629810631358,-0.774944,-0.395768,-0.494771
1629810631368,-0.776713,-0.395158,-0.49532
1629810631377,-0.776774,-0.394609,-0.494222
1629810631387,-0.776042,-0.394914,-0.49233099999999996
1629810631396,-0.776103,-0.393999,-0.49111099999999996
1629810631406,-0.775737,-0.393328,-0.490318
1629810631416,-0.775737,-0.393023,-0.490989
1629810631425,-0.775432,-0.393084,-0.492087
1629810631435,-0.775188,-0.392108,-0.493124
1629810631444,-0.775249,-0.391681,-0.49349
1629810631454,-0.775493,-0.393084,-0.4941
1629810631464,-0.775066,-0.391864,-0.494649
1629810631473,-0.774944,-0.391559,-0.49519799999999997
1629810631483,-0.775676,-0.391376,-0.49458799999999997
1629810631492,-0.775493,-0.391254,-0.494039
1629810631502,-0.773663,-0.390522,-0.4941
1629810631512,-0.773358,-0.390583,-0.49349
1629810631521,-0.774212,-0.39039999999999997,-0.493185
1629810631531,-0.774212,-0.391132,-0.495442
1629810631540,-0.774212,-0.391254,-0.495625
1629810631550,-0.774334,-0.391132,-0.496357
1629810631560,-0.773846,-0.391376,-0.496906
1629810631569,-0.773236,-0.39070499999999997,-0.496906
1629810631579,-0.772992,-0.38948499999999997,-0.496784
1629810631588,-0.772626,-0.390522,-0.494771
1629810631598,-0.772931,-0.390888,-0.494222
1629810631608,-0.77226,-0.39253499999999997,-0.493185
1629810631617,-0.772504,-0.392657,-0.493307
1629810631627,-0.771833,-0.39405999999999997,-0.493368
1629810631636,-0.772565,-0.394304,-0.493368
1629810631646,-0.772077,-0.396256,-0.49294099999999996
1629810631656,-0.771772,-0.395036,-0.493002
1629810631665,-0.772077,-0.394914,-0.492392
1629810631675,-0.77287,-0.394731,-0.49263599999999996
1629810631684,-0.772626,-0.394182,-0.49263599999999996
1629810631694,-0.772321,-0.39344999999999997,-0.49288
1629810631704,-0.774151,-0.392596,-0.493368
1629810631713,-0.773968,-0.392779,-0.49349
1629810631723,-0.775493,-0.392352,-0.494832
1629810631732,-0.7756149999999999,-0.392291,-0.494832
1629810631742,-0.774761,-0.39161999999999997,-0.495442
1629810631752,-0.775066,-0.391986,-0.494832
1629810631761,-0.7756149999999999,-0.392291,-0.49519799999999997
1629810631771,-0.7756149999999999,-0.392352,-0.49458799999999997
1629810631780,-0.7753099999999999,-0.391864,-0.494771
1629810631790,-0.775798,-0.392169,-0.495076
1629810631800,-0.775676,-0.39192499999999997,-0.49263599999999996
1629810631809,-0.776347,-0.391803,-0.492453
1629810631819,-0.774822,-0.392352,-0.49202599999999996
1629810631828,-0.775066,-0.392352,-0.49105
1629810631838,-0.775432,-0.393023,-0.491294
1629810631848,-0.774639,-0.394182,-0.49172099999999996
1629810631857,-0.776042,-0.393328,-0.49111099999999996
1629810631867,-0.775676,-0.394426,-0.491965
1629810631876,-0.775859,-0.394426,-0.49111099999999996
1629810631886,-0.776103,-0.394121,-0.492514
1629810631896,-0.776286,-0.393023,-0.492087
1629810631905,-0.775554,-0.392291,-0.491843
1629810631915,-0.774944,-0.39161999999999997,-0.490989
1629810631924,-0.776164,-0.389973,-0.491599
1629810631934,-0.775066,-0.391071,-0.492453
1629810631944,-0.775127,-0.391742,-0.491843
1629810631953,-0.774883,-0.392413,-0.491294
1629810631963,-0.774456,-0.391559,-0.490867
1629810631972,-0.774334,-0.392169,-0.49166
1629810631982,-0.772626,-0.391193,-0.492392
1629810631992,-0.7746999999999999,-0.389302,-0.490928
1629810632001,-0.7753099999999999,-0.389912,-0.492758
1629810632011,-0.776713,-0.393633,-0.495747
1629810632020,-0.776896,-0.396195,-0.49824799999999997
1629810632030,-0.775676,-0.39772,-0.497089
1629810632040,-0.774822,-0.39527999999999996,-0.493368
1629810632049,-0.775066,-0.393328,-0.488427
1629810632059,-0.77287,-0.392169,-0.487512
1629810632068,-0.773419,-0.391254,-0.488183
1629810632078,-0.773785,-0.392108,-0.48958599999999997
1629810632088,-0.773236,-0.39222999999999997,-0.49166
1629810632097,-0.772992,-0.393328,-0.493002
1629810632107,-0.774029,-0.394121,-0.493368
1629810632116,-0.775432,-0.394609,-0.493002
1629810632126,-0.775066,-0.396317,-0.49141599999999996
1629810632136,-0.774822,-0.39558499999999996,-0.490867
1629810632145,-0.774639,-0.395463,-0.49111099999999996
1629810632155,-0.775066,-0.39527999999999996,-0.489708
1629810632164,-0.775737,-0.394243,-0.49080599999999996
1629810632174,-0.775493,-0.393633,-0.490928
1629810632184,-0.775432,-0.393511,-0.49202599999999996
1629810632193,-0.7765299999999999,-0.393816,-0.493612
1629810632203,-0.776591,-0.392474,-0.493368
1629810632212,-0.776347,-0.392718,-0.49263599999999996
1629810632222,-0.775371,-0.391986,-0.493795
1629810632232,-0.7756149999999999,-0.39131499999999997,-0.492758
1629810632241,-0.775737,-0.391986,-0.492575
1629810632251,-0.776347,-0.391864,-0.493368
1629810632260,-0.776347,-0.391132,-0.492087
1629810632270,-0.775676,-0.392047,-0.49166
1629810632280,-0.775066,-0.392718,-0.49166
1629810632289,-0.773297,-0.390461,-0.490379
1629810632299,-0.7750049999999999,-0.387533,-0.489952
1629810632308,-0.775737,-0.388448,-0.489952
1629810632318,-0.775798,-0.390461,-0.491477
1629810632328,-0.776774,-0.391742,-0.49519799999999997
1629810632337,-0.777384,-0.392352,-0.49654
1629810632347,-0.777994,-0.390766,-0.49641799999999997
1629810632356,-0.776957,-0.390949,-0.494466
1629810632366,-0.776896,-0.390339,-0.492575
1629810632376,-0.776774,-0.390522,-0.49080599999999996
1629810632385,-0.7765299999999999,-0.39131499999999997,-0.49044
1629810632395,-0.7765299999999999,-0.391559,-0.490867
1629810632404,-0.777018,-0.391437,-0.490684
1629810632414,-0.7765299999999999,-0.391376,-0.492148
1629810632424,-0.776164,-0.391193,-0.493307
1629810632433,-0.7759199999999999,-0.391437,-0.49458799999999997
1629810632443,-0.7753099999999999,-0.390644,-0.493612
1629810632452,-0.7762249999999999,-0.389607,-0.494222
1629810632462,-0.776347,-0.38948499999999997,-0.493978
1629810632472,-0.7756149999999999,-0.389912,-0.493612
1629810632481,-0.776164,-0.389546,-0.493429
1629810632491,-0.776042,-0.38978999999999997,-0.493673
1629810632500,-0.776652,-0.389546,-0.49288
1629810632510,-0.775493,-0.390339,-0.493673
1629810632520,-0.775981,-0.390583,-0.494222
1629810632529,-0.774578,-0.390644,-0.495869
1629810632539,-0.775798,-0.390339,-0.494954
1629810632548,-0.775432,-0.389607,-0.494832
1629810632558,-0.7746999999999999,-0.390156,-0.493917
1629810632568,-0.774883,-0.390278,-0.493429
1629810632577,-0.774822,-0.391132,-0.491782
1629810632587,-0.773724,-0.39222999999999997,-0.49141599999999996
1629810632596,-0.774334,-0.393328,-0.491477
1629810632606,-0.773846,-0.393694,-0.492209
1629810632616,-0.773663,-0.394182,-0.491904
1629810632625,-0.773968,-0.395463,-0.491538
1629810632635,-0.773663,-0.394548,-0.490989
1629810632644,-0.773602,-0.394121,-0.490745
1629810632654,-0.774456,-0.394731,-0.490562
1629810632664,-0.773663,-0.393938,-0.491233
1629810632673,-0.774151,-0.39405999999999997,-0.491233
1629810632683,-0.775066,-0.39436499999999997,-0.492392
1629810632692,-0.775493,-0.393206,-0.491782
1629810632702,-0.775188,-0.39344999999999997,-0.492819
1629810632712,-0.774822,-0.393023,-0.492453
1629810632721,-0.7762249999999999,-0.393572,-0.49263599999999996
1629810632731,-0.775981,-0.392596,-0.49202599999999996
1629810632740,-0.775066,-0.393389,-0.493002
1629810632750,-0.7756149999999999,-0.393633,-0.492148
1629810632760,-0.775798,-0.393084,-0.492392
1629810632769,-0.775676,-0.39344999999999997,-0.492209
1629810632779,-0.7753099999999999,-0.394914,-0.49141599999999996
1629810632788,-0.7756149999999999,-0.393877,-0.491294
1629810632798,-0.776286,-0.394182,-0.49166
1629810632808,-0.775798,-0.394914,-0.491172
1629810632817,-0.775066,-0.393877,-0.490867
1629810632827,-0.775066,-0.393877,-0.491965
1629810632836,-0.7756149999999999,-0.393511,-0.491294
1629810632846,-0.774822,-0.392718,-0.490928
1629810632856,-0.775188,-0.393511,-0.490989
1629810632865,-0.775432,-0.392779,-0.491904
1629810632875,-0.775859,-0.392901,-0.491599
1629810632884,-0.775188,-0.393877,-0.491599
1629810632894,-0.775493,-0.393511,-0.49166
1629810632904,-0.775798,-0.392901,-0.491294
1629810632913,-0.774761,-0.392352,-0.491355
1629810632923,-0.774578,-0.393328,-0.490684
1629810632932,-0.773297,-0.392901,-0.491965
1629810632942,-0.773968,-0.392474,-0.492453
1629810632952,-0.775432,-0.39192499999999997,-0.493002
1629810632961,-0.774029,-0.393023,-0.492392
1629810632971,-0.774761,-0.392718,-0.491233
1629810632980,-0.7750049999999999,-0.392718,-0.491538
1629810632990,-0.772748,-0.39192499999999997,-0.491477
1629810633000,-0.773907,-0.390827,-0.49141599999999996
1629810633009,-0.774822,-0.390766,-0.490379
1629810633019,-0.776652,-0.39253499999999997,-0.49227
1629810633028,-0.776469,-0.39466999999999997,-0.49532
1629810633038,-0.777018,-0.396866,-0.499102
1629810633048,-0.776469,-0.396378,-0.499224
1629810633057,-0.776042,-0.393999,-0.495869
1629810633067,-0.776042,-0.391437,-0.491599
1629810633076,-0.774822,-0.390888,-0.48928099999999997
1629810633086,-0.773724,-0.390461,-0.487817
1629810633096,-0.77287,-0.391193,-0.489159
1629810633105,-0.773602,-0.391803,-0.491355
1629810633115,-0.77287,-0.392474,-0.493856
1629810633124,-0.773724,-0.392718,-0.493978
1629810633134,-0.773846,-0.393572,-0.493978
1629810633144,-0.774578,-0.394609,-0.492514
1629810633153,-0.774761,-0.393694,-0.49202599999999996
1629810633163,-0.773236,-0.394792,-0.49019599999999997
1629810633172,-0.773724,-0.39558499999999996,-0.489647
1629810633182,-0.774639,-0.395341,-0.48958599999999997
1629810633192,-0.775493,-0.396012,-0.48958599999999997
1629810633201,-0.776042,-0.397598,-0.48897599999999997
1629810633211,-0.775676,-0.397232,-0.490013
1629810633220,-0.7750049999999999,-0.396195,-0.491172
1629810633230,-0.776164,-0.395646,-0.490684
1629810633240,-0.775737,-0.394182,-0.491355
1629810633249,-0.775798,-0.39466999999999997,-0.491538
1629810633259,-0.776164,-0.393511,-0.491172
1629810633268,-0.776103,-0.39375499999999997,-0.49111099999999996
1629810633278,-0.776164,-0.392718,-0.490623
1629810633288,-0.776713,-0.393084,-0.490745
1629810633297,-0.776286,-0.392657,-0.489525
1629810633307,-0.7762249999999999,-0.39466999999999997,-0.489525
1629810633316,-0.774334,-0.394243,-0.489342
1629810633326,-0.775859,-0.391742,-0.48836599999999997
1629810633336,-0.776042,-0.390949,-0.487695
1629810633345,-0.776103,-0.392474,-0.488915
1629810633355,-0.776957,-0.394243,-0.49141599999999996
1629810633364,-0.777994,-0.394853,-0.494344
1629810633374,-0.777811,-0.39405999999999997,-0.49233099999999996
1629810633384,-0.777628,-0.392718,-0.489952
1629810633393,-0.776774,-0.394182,-0.48928099999999997
1629810633403,-0.777506,-0.394182,-0.488793
1629810633412,-0.776957,-0.393816,-0.48836599999999997
1629810633422,-0.776408,-0.393633,-0.487817
1629810633432,-0.7768349999999999,-0.393633,-0.488549
1629810633441,-0.776591,-0.393511,-0.488549
1629810633451,-0.776103,-0.393328,-0.49019599999999997
1629810633460,-0.775798,-0.393389,-0.489952
1629810633470,-0.7768349999999999,-0.39283999999999997,-0.49141599999999996
1629810633480,-0.777506,-0.392718,-0.49080599999999996
1629810633489,-0.776286,-0.391986,-0.490623
1629810633499,-0.776164,-0.392108,-0.492392
1629810633508,-0.777262,-0.39161999999999997,-0.491538
1629810633518,-0.776652,-0.391681,-0.490623
1629810633528,-0.776652,-0.391803,-0.490928
1629810633537,-0.776469,-0.391559,-0.49080599999999996
1629810633547,-0.776469,-0.391803,-0.490379
1629810633556,-0.7753099999999999,-0.391803,-0.491355
1629810633566,-0.775798,-0.391437,-0.492209
1629810633576,-0.777079,-0.392657,-0.492148
1629810633585,-0.775249,-0.392718,-0.492087
1629810633595,-0.775188,-0.391803,-0.491965
1629810633604,-0.7759199999999999,-0.39192499999999997,-0.48983
1629810633614,-0.774944,-0.39314499999999997,-0.48922
1629810633624,-0.775432,-0.393572,-0.489159
1629810633633,-0.775493,-0.394731,-0.48897599999999997
1629810633643,-0.774639,-0.39588999999999996,-0.488854
1629810633652,-0.7753099999999999,-0.396988,-0.48861
1629810633662,-0.775676,-0.397232,-0.488732
1629810633672,-0.775737,-0.396256,-0.486902
1629810633681,-0.775188,-0.395219,-0.48775599999999997
1629810633691,-0.776164,-0.395829,-0.488122
1629810633700,-0.776713,-0.394182,-0.489342
1629810633710,-0.776469,-0.392901,-0.489098
1629810633720,-0.777079,-0.392718,-0.48922
1629810633729,-0.776408,-0.392596,-0.490013
1629810633739,-0.777567,-0.392962,-0.491172
1629810633748,-0.777811,-0.392108,-0.490928
1629810633758,-0.777994,-0.391864,-0.490867
1629810633768,-0.777994,-0.39161999999999997,-0.490074
1629810633777,-0.778543,-0.392047,-0.490013
1629810633787,-0.778299,-0.393084,-0.48983
1629810633796,-0.778177,-0.393633,-0.489159
1629810633806,-0.777506,-0.394121,-0.489159
1629810633816,-0.777201,-0.39375499999999997,-0.488732
1629810633825,-0.776896,-0.393877,-0.488183
1629810633835,-0.777079,-0.393694,-0.48745099999999997
1629810633844,-0.777384,-0.394426,-0.487817
1629810633854,-0.776896,-0.395463,-0.487512
1629810633864,-0.776164,-0.394426,-0.487939
1629810633873,-0.777079,-0.393694,-0.48775599999999997
1629810633883,-0.776957,-0.392962,-0.48775599999999997
1629810633892,-0.776896,-0.393633,-0.487268
1629810633902,-0.776774,-0.393572,-0.487695
1629810633912,-0.776469,-0.394426,-0.487939
1629810633921,-0.775737,-0.395097,-0.487573
1629810633931,-0.776042,-0.39466999999999997,-0.487573
1629810633940,-0.776103,-0.394914,-0.487817
1629810633950,-0.776408,-0.394548,-0.487268
1629810633960,-0.776652,-0.394243,-0.487024
1629810633969,-0.776713,-0.394243,-0.488427
1629810633979,-0.776591,-0.393511,-0.488244
1629810633988,-0.776408,-0.392413,-0.488427
1629810633998,-0.777506,-0.39222999999999997,-0.48861
1629810634008,-0.776652,-0.392962,-0.488244
1629810634017,-0.7771399999999999,-0.394487,-0.487878
1629810634027,-0.777933,-0.393023,-0.488488
1629810634036,-0.778238,-0.393084,-0.48867099999999997
1629810634046,-0.776286,-0.39222999999999997,-0.488244
1629810634056,-0.7771399999999999,-0.390644,-0.487573
1629810634065,-0.779031,-0.391437,-0.48775599999999997
1629810634075,-0.780129,-0.393572,-0.489037
1629810634084,-0.7795799999999999,-0.39588999999999996,-0.49294099999999996
1629810634094,-0.7801899999999999,-0.396073,-0.495259
1629810634104,-0.780068,-0.394182,-0.49458799999999997
1629810634113,-0.779336,-0.392962,-0.491294
1629810634123,-0.778604,-0.391132,-0.488427
1629810634132,-0.777384,-0.390034,-0.486109
1629810634142,-0.776042,-0.389546,-0.48678
1629810634152,-0.7750049999999999,-0.390339,-0.488244
1629810634161,-0.775066,-0.390644,-0.490379
1629810634171,-0.775249,-0.390583,-0.49105
1629810634180,-0.774578,-0.39222999999999997,-0.490684
1629810634190,-0.774395,-0.393511,-0.490867
1629810634200,-0.774517,-0.394426,-0.489098
1629810634209,-0.774456,-0.394487,-0.48714599999999997
1629810634219,-0.774273,-0.395463,-0.48623099999999997
1629810634228,-0.77409,-0.396195,-0.486658
1629810634238,-0.775188,-0.395707,-0.48562099999999997
1629810634248,-0.775798,-0.396683,-0.487207
1629810634257,-0.776042,-0.396378,-0.48836599999999997
1629810634267,-0.776408,-0.395158,-0.48922
1629810634276,-0.776408,-0.394914,-0.490928
1629810634286,-0.776896,-0.393084,-0.491172
1629810634296,-0.777384,-0.392413,-0.49166
1629810634305,-0.778177,-0.390827,-0.490928
1629810634315,-0.777567,-0.391071,-0.490928
1629810634324,-0.776469,-0.390766,-0.49111099999999996
1629810634334,-0.777689,-0.390827,-0.491782
1629810634344,-0.777506,-0.391986,-0.48922
1629810634353,-0.777689,-0.393328,-0.48897599999999997
1629810634363,-0.776713,-0.394182,-0.488915
1629810634372,-0.776042,-0.392779,-0.487695
1629810634382,-0.776591,-0.39100999999999997,-0.487085
1629810634392,-0.777262,-0.390827,-0.487695
1629810634401,-0.777628,-0.393023,-0.488244
1629810634411,-0.7783599999999999,-0.393938,-0.491782
1629810634420,-0.7789699999999999,-0.393938,-0.49172099999999996
1629810634430,-0.779458,-0.393938,-0.490928
1629810634440,-0.778604,-0.39344999999999997,-0.488549
1629810634449,-0.778604,-0.392657,-0.486902
1629810634459,-0.777872,-0.392291,-0.48617
1629810634468,-0.778299,-0.39222999999999997,-0.487268
1629810634478,-0.778787,-0.39253499999999997,-0.48836599999999997
1629810634488,-0.778604,-0.391681,-0.48897599999999997
1629810634497,-0.778421,-0.39192499999999997,-0.489403
1629810634507,-0.777201,-0.391681,-0.489525
1629810634516,-0.7774449999999999,-0.39131499999999997,-0.490013
1629810634526,-0.778238,-0.391071,-0.489952
1629810634536,-0.777201,-0.391498,-0.48983
1629810634545,-0.777018,-0.391193,-0.49044
1629810634555,-0.776652,-0.390644,-0.49080599999999996
1629810634564,-0.777201,-0.390156,-0.491477
1629810634574,-0.777262,-0.390644,-0.489769
1629810634584,-0.777384,-0.390583,-0.489525
1629810634593,-0.777018,-0.390217,-0.490684
1629810634603,-0.777506,-0.391254,-0.49080599999999996
1629810634612,-0.776286,-0.390278,-0.491782
1629810634622,-0.776469,-0.391498,-0.492148
1629810634632,-0.7759199999999999,-0.391254,-0.49263599999999996
1629810634641,-0.7753099999999999,-0.391559,-0.491477
1629810634651,-0.776164,-0.39131499999999997,-0.490928
1629810634660,-0.775127,-0.391132,-0.488854
1629810634670,-0.774639,-0.391864,-0.48745099999999997
1629810634680,-0.7753099999999999,-0.393999,-0.48714599999999997
1629810634689,-0.774883,-0.394731,-0.487024
1629810634699,-0.7756149999999999,-0.395768,-0.487207
1629810634708,-0.774578,-0.396622,-0.488122
1629810634718,-0.775554,-0.396744,-0.48739
1629810634728,-0.776774,-0.396622,-0.486597
1629810634737,-0.7762249999999999,-0.395646,-0.485987
1629810634747,-0.777018,-0.39527999999999996,-0.48678
1629810634756,-0.7771399999999999,-0.394548,-0.48739
1629810634766,-0.7771399999999999,-0.393999,-0.487817
1629810634776,-0.777567,-0.392718,-0.48922
1629810634785,-0.7789699999999999,-0.391803,-0.48861
1629810634795,-0.778726,-0.392108,-0.490745
1629810634804,-0.7783599999999999,-0.391742,-0.490867
1629810634814,-0.7789699999999999,-0.391681,-0.490013
1629810634824,-0.7789699999999999,-0.391376,-0.490928
1629810634833,-0.779031,-0.391803,-0.490074
1629810634843,-0.779092,-0.392047,-0.48983
1629810634852,-0.7786649999999999,-0.39222999999999997,-0.489342
1629810634862,-0.777872,-0.391742,-0.488488
1629810634872,-0.777933,-0.392474,-0.488244
1629810634881,-0.779092,-0.393084,-0.488549
1629810634891,-0.778177,-0.392962,-0.488854
1629810634900,-0.778604,-0.392596,-0.487634
1629810634910,-0.777872,-0.392413,-0.48714599999999997
1629810634920,-0.7771399999999999,-0.391986,-0.485987
1629810634929,-0.777384,-0.392352,-0.48592599999999997
1629810634939,-0.777872,-0.392352,-0.48678
1629810634948,-0.777689,-0.393206,-0.48684099999999997
1629810634958,-0.778482,-0.393023,-0.487268
1629810634968,-0.778604,-0.394243,-0.487512
1629810634977,-0.778299,-0.393877,-0.487878
1629810634987,-0.777872,-0.39283999999999997,-0.487939
1629810634996,-0.777933,-0.392352,-0.48806099999999997
1629810635006,-0.778177,-0.391132,-0.488122
1629810635016,-0.777933,-0.390217,-0.487329
1629810635025,-0.779214,-0.389241,-0.488793
1629810635035,-0.7768349999999999,-0.38856999999999997,-0.48922
1629810635044,-0.776408,-0.389302,-0.48806099999999997
1629810635054,-0.7780549999999999,-0.389729,-0.488488
1629810635064,-0.777567,-0.390339,-0.48806099999999997
1629810635073,-0.777201,-0.388814,-0.488854
1629810635083,-0.778299,-0.387594,-0.48867099999999997
1629810635092,-0.779336,-0.387472,-0.488488
1629810635102,-0.780007,-0.38856999999999997,-0.490562
1629810635112,-0.782081,-0.392779,-0.492392
1629810635121,-0.781349,-0.394304,-0.494832
1629810635131,-0.781227,-0.394243,-0.49294099999999996
1629810635140,-0.7804949999999999,-0.392047,-0.490257
1629810635150,-0.778726,-0.389912,-0.486719
1629810635160,-0.777933,-0.388509,-0.485194
1629810635169,-0.777811,-0.388387,-0.48556
1629810635179,-0.777506,-0.38856999999999997,-0.486902
1629810635188,-0.777323,-0.389546,-0.489159
1629810635198,-0.7765299999999999,-0.38917999999999997,-0.48958599999999997
1629810635208,-0.777262,-0.391254,-0.48983
1629810635217,-0.777323,-0.391193,-0.489525
1629810635227,-0.7780549999999999,-0.391742,-0.488488
1629810635236,-0.777933,-0.392413,-0.488305
1629810635246,-0.777872,-0.391498,-0.487512
1629810635256,-0.778299,-0.390949,-0.487817
1629810635265,-0.777994,-0.390949,-0.488183
1629810635275,-0.778421,-0.390888,-0.489037
1629810635284,-0.779214,-0.391254,-0.49044
1629810635294,-0.779153,-0.390461,-0.49166
1629810635304,-0.779519,-0.390644,-0.491294
1629810635313,-0.779031,-0.389302,-0.491599
1629810635323,-0.778726,-0.389668,-0.490013
1629810635332,-0.779031,-0.389729,-0.489647
1629810635342,-0.777994,-0.38978999999999997,-0.490562
1629810635352,-0.777933,-0.389119,-0.48958599999999997
1629810635361,-0.778726,-0.390339,-0.489525
1629810635371,-0.779153,-0.39070499999999997,-0.48836599999999997
1629810635380,-0.778482,-0.391071,-0.488732
1629810635390,-0.7765299999999999,-0.390583,-0.488122
1629810635400,-0.776896,-0.386679,-0.484584
1629810635409,-0.777933,-0.386923,-0.486597
1629810635419,-0.777994,-0.38948499999999997,-0.48739
1629810635428,-0.778604,-0.39039999999999997,-0.491538
1629810635438,-0.779824,-0.390278,-0.493795
1629810635448,-0.780556,-0.389302,-0.493002
1629810635457,-0.780434,-0.389424,-0.490745
1629810635467,-0.779702,-0.389363,-0.48861
1629810635476,-0.7804949999999999,-0.389424,-0.487695
1629810635486,-0.779458,-0.388936,-0.48806099999999997
1629810635496,-0.779153,-0.388448,-0.489464
1629810635505,-0.779702,-0.388387,-0.48983
1629810635515,-0.779153,-0.38795999999999997,-0.490013
1629810635524,-0.780007,-0.387533,-0.491355
1629810635534,-0.780434,-0.38826499999999997,-0.490867
1629810635544,-0.779519,-0.38765499999999997,-0.492087
1629810635553,-0.778787,-0.386923,-0.49105
1629810635563,-0.778543,-0.387228,-0.491294
1629810635572,-0.7786649999999999,-0.386862,-0.491904
1629810635582,-0.778543,-0.386984,-0.491477
1629810635592,-0.777689,-0.387289,-0.491538
1629810635601,-0.777994,-0.386313,-0.49172099999999996
1629810635611,-0.777994,-0.385886,-0.493063
1629810635620,-0.777079,-0.386984,-0.493368
1629810635630,-0.778482,-0.38613,-0.494832
1629810635640,-0.777201,-0.385764,-0.495381
1629810635649,-0.7768349999999999,-0.384849,-0.495076
1629810635659,-0.7777499999999999,-0.385154,-0.494161
1629810635668,-0.7762249999999999,-0.386008,-0.491965
1629810635678,-0.776408,-0.386862,-0.49044
1629810635688,-0.776164,-0.388021,-0.490318
1629810635697,-0.776469,-0.389607,-0.489769
1629810635707,-0.775676,-0.391498,-0.489342
1629810635716,-0.775676,-0.391986,-0.489098
1629810635726,-0.7759199999999999,-0.39253499999999997,-0.48867099999999997
1629810635736,-0.775188,-0.391986,-0.488549
1629810635745,-0.775798,-0.392108,-0.488122
1629810635755,-0.776164,-0.391803,-0.488549
1629810635764,-0.776896,-0.391193,-0.48922
1629810635774,-0.777323,-0.390644,-0.48989099999999997
1629810635784,-0.778604,-0.389058,-0.491233
1629810635793,-0.778116,-0.389851,-0.490623
1629810635803,-0.780312,-0.389424,-0.49141599999999996
1629810635812,-0.778848,-0.388753,-0.491599
1629810635822,-0.778909,-0.38887499999999997,-0.49227
1629810635832,-0.779519,-0.388692,-0.49166
1629810635841,-0.779397,-0.388326,-0.49111099999999996
1629810635851,-0.7795799999999999,-0.388753,-0.490379
1629810635860,-0.779641,-0.389424,-0.489647
1629810635870,-0.779458,-0.389973,-0.489708
1629810635880,-0.778482,-0.39131499999999997,-0.489342
1629810635889,-0.779092,-0.391498,-0.489342
1629810635899,-0.7801899999999999,-0.392108,-0.48897599999999997
1629810635908,-0.780556,-0.39283999999999997,-0.48806099999999997
1629810635918,-0.7789699999999999,-0.392108,-0.487634
1629810635928,-0.779336,-0.39161999999999997,-0.487817
1629810635937,-0.779397,-0.391437,-0.486719
1629810635947,-0.779092,-0.389973,-0.48653599999999997
1629810635956,-0.779092,-0.389851,-0.487573
1629810635966,-0.779153,-0.388631,-0.487512
1629810635976,-0.779092,-0.38734999999999997,-0.48958599999999997
1629810635985,-0.778421,-0.387899,-0.489159
1629810635995,-0.778543,-0.38917999999999997,-0.488122
1629810636004,-0.778299,-0.388997,-0.48775599999999997
1629810636014,-0.778543,-0.388326,-0.488427
1629810636024,-0.778604,-0.387533,-0.489037
1629810636033,-0.7789699999999999,-0.385642,-0.489159
1629810636043,-0.780312,-0.385032,-0.48928099999999997
1629810636052,-0.7801899999999999,-0.38826499999999997,-0.49202599999999996
1629810636062,-0.7807999999999999,-0.391498,-0.493368
1629810636072,-0.780556,-0.393877,-0.496052
1629810636081,-0.780617,-0.391681,-0.492514
1629810636091,-0.779397,-0.389668,-0.48806099999999997
1629810636100,-0.777506,-0.388692,-0.484889
1629810636110,-0.777201,-0.387533,-0.485743
1629810636120,-0.7762249999999999,-0.387838,-0.486719
1629810636129,-0.7759199999999999,-0.38734999999999997,-0.488244
1629810636139,-0.776652,-0.38917999999999997,-0.490074
1629810636148,-0.777262,-0.389851,-0.490745
1629810636158,-0.777201,-0.390339,-0.491538
1629810636168,-0.7777499999999999,-0.391559,-0.490684
1629810636177,-0.778116,-0.391986,-0.48861
1629810636187,-0.779214,-0.39161999999999997,-0.487695
1629810636196,-0.778299,-0.391498,-0.486963
1629810636206,-0.778726,-0.39161999999999997,-0.488488
1629810636216,-0.778848,-0.390827,-0.488549
1629810636225,-0.779336,-0.391681,-0.489342
1629810636235,-0.779702,-0.390644,-0.49019599999999997
1629810636244,-0.780007,-0.39039999999999997,-0.490745
1629810636254,-0.780007,-0.389363,-0.490745
1629810636264,-0.779641,-0.389058,-0.490013
1629810636273,-0.779336,-0.388387,-0.48983
1629810636283,-0.7792749999999999,-0.387899,-0.490318
1629810636292,-0.780007,-0.387594,-0.490074
1629810636302,-0.779946,-0.387838,-0.490135
1629810636312,-0.779458,-0.38734999999999997,-0.49044
1629810636321,-0.780251,-0.388021,-0.489952
1629810636331,-0.778116,-0.38826499999999997,-0.489098
1629810636340,-0.777628,-0.386679,-0.488
1629810636350,-0.778482,-0.383385,-0.48739
1629810636360,-0.778482,-0.385276,-0.488
1629810636369,-0.779946,-0.387228,-0.49044
1629810636379,-0.780678,-0.387106,-0.493368
1629810636388,-0.780556,-0.387533,-0.495259
1629810636398,-0.781471,-0.386496,-0.493185
1629810636408,-0.7807999999999999,-0.386252,-0.491233
1629810636417,-0.780983,-0.386008,-0.48861
1629810636427,-0.779824,-0.386557,-0.48861
1629810636436,-0.7801899999999999,-0.387777,-0.488488
1629810636446,-0.779641,-0.386862,-0.488183
1629810636456,-0.779214,-0.388021,-0.489769
1629810636465,-0.7789699999999999,-0.387289,-0.48989099999999997
1629810636475,-0.778421,-0.38795999999999997,-0.490684
1629810636484,-0.779092,-0.387106,-0.49105
1629810636494,-0.778604,-0.387777,-0.491172
1629810636504,-0.778787,-0.387716,-0.49080599999999996
1629810636513,-0.779458,-0.386008,-0.49141599999999996
1629810636523,-0.779214,-0.386862,-0.491477
1629810636532,-0.778787,-0.386984,-0.491294
1629810636542,-0.7789699999999999,-0.387594,-0.490928
1629810636552,-0.778848,-0.388143,-0.491355
1629810636561,-0.779214,-0.38734999999999997,-0.491294
1629810636571,-0.779092,-0.387289,-0.491599
1629810636580,-0.778482,-0.387533,-0.491782
1629810636590,-0.779031,-0.388143,-0.49263599999999996
1629810636600,-0.7783599999999999,-0.387106,-0.49233099999999996
1629810636609,-0.7786649999999999,-0.38765499999999997,-0.491233
1629810636619,-0.776957,-0.387777,-0.48958599999999997
1629810636628,-0.7777499999999999,-0.388814,-0.488244
1629810636638,-0.778116,-0.389241,-0.488488
1629810636648,-0.778299,-0.390827,-0.488488
1629810636657,-0.777506,-0.391864,-0.488915
1629810636667,-0.778116,-0.392108,-0.488488
1629810636676,-0.778299,-0.391864,-0.487329
1629810636686,-0.778482,-0.391437,-0.487024
1629810636696,-0.777933,-0.391376,-0.48739
1629810636705,-0.7789699999999999,-0.389912,-0.487817
1629810636715,-0.778299,-0.389058,-0.488183
1629810636724,-0.7783599999999999,-0.388082,-0.489342
1629810636734,-0.778604,-0.387411,-0.489098
1629810636744,-0.779641,-0.388082,-0.49044
1629810636753,-0.779336,-0.387899,-0.48989099999999997
1629810636763,-0.779153,-0.38734999999999997,-0.490135
1629810636772,-0.779763,-0.387533,-0.48989099999999997
1629810636782,-0.780434,-0.388204,-0.48958599999999997
1629810636792,-0.780373,-0.387838,-0.489342
1629810636801,-0.780922,-0.388387,-0.489098
1629810636811,-0.781227,-0.389668,-0.488732
1629810636820,-0.7814099999999999,-0.390156,-0.489037
1629810636830,-0.780434,-0.39009499999999997,-0.489098
1629810636840,-0.7804949999999999,-0.390217,-0.488854
1629810636849,-0.780312,-0.389302,-0.487512
1629810636859,-0.781227,-0.388997,-0.487085
1629810636868,-0.7792749999999999,-0.388326,-0.488122
1629810636878,-0.779031,-0.389241,-0.487939
1629810636888,-0.779397,-0.389546,-0.488854
1629810636897,-0.780007,-0.39039999999999997,-0.48739
1629810636907,-0.778787,-0.389912,-0.488488
1629810636916,-0.779214,-0.38948499999999997,-0.488122
1629810636926,-0.780068,-0.388814,-0.488
1629810636936,-0.7789699999999999,-0.388143,-0.487512
1629810636945,-0.778116,-0.388814,-0.488
1629810636955,-0.778909,-0.388326,-0.487878
1629810636964,-0.778726,-0.38826499999999997,-0.488427
1629810636974,-0.780068,-0.388326,-0.488854
1629810636984,-0.778177,-0.388936,-0.488305
1629810636993,-0.779092,-0.388387,-0.486597
1629810637003,-0.7795799999999999,-0.389668,-0.486292
1629810637012,-0.780068,-0.389546,-0.488488
1629810637022,-0.7792749999999999,-0.38734999999999997,-0.487268
1629810637032,-0.779519,-0.386008,-0.48678
1629810637041,-0.781471,-0.386313,-0.488488
1629810637051,-0.782447,-0.388936,-0.490684
1629810637060,-0.7826299999999999,-0.390522,-0.493917
1629810637070,-0.782874,-0.390461,-0.49702799999999997
1629810637080,-0.782386,-0.388692,-0.495442
1629810637089,-0.781532,-0.38674,-0.491599
1629810637099,-0.779519,-0.385154,-0.48739
1629810637108,-0.778848,-0.384788,-0.484218
1629810637118,-0.778604,-0.385764,-0.48470599999999997
1629810637128,-0.778177,-0.386374,-0.48684099999999997
1629810637137,-0.7777499999999999,-0.387167,-0.48958599999999997
1629810637147,-0.777811,-0.388692,-0.490562
1629810637156,-0.778482,-0.388143,-0.490989
1629810637166,-0.778726,-0.389668,-0.490257
1629810637176,-0.777933,-0.390766,-0.487817
1629810637185,-0.777933,-0.390156,-0.487268
1629810637195,-0.778238,-0.390644,-0.486109
1629810637204,-0.777567,-0.39039999999999997,-0.486353
1629810637214,-0.778726,-0.39100999999999997,-0.485743
1629810637224,-0.7783599999999999,-0.391193,-0.48623099999999997
1629810637233,-0.780251,-0.39100999999999997,-0.48739
1629810637243,-0.780007,-0.39161999999999997,-0.48775599999999997
1629810637252,-0.7798849999999999,-0.390522,-0.488793
1629810637262,-0.779397,-0.39039999999999997,-0.488549
1629810637272,-0.779946,-0.389607,-0.489098
1629810637281,-0.780434,-0.389424,-0.48861
1629810637291,-0.779763,-0.388326,-0.489403
1629810637300,-0.779397,-0.38734999999999997,-0.488488
1629810637310,-0.779824,-0.387472,-0.48861
1629810637320,-0.7798849999999999,-0.387716,-0.488732
1629810637329,-0.780556,-0.38887499999999997,-0.487878
1629810637339,-0.7798849999999999,-0.389424,-0.488122
1629810637348,-0.779824,-0.388448,-0.48653599999999997
1629810637358,-0.779702,-0.385947,-0.486048
1629810637368,-0.780556,-0.386679,-0.486414
1629810637377,-0.781044,-0.387838,-0.48739
1629810637387,-0.781288,-0.389241,-0.49019599999999997
1629810637396,-0.782142,-0.389119,-0.491172
1629810637406,-0.781959,-0.388631,-0.48983
1629810637416,-0.7826299999999999,-0.388448,-0.488549
1629810637425,-0.7811049999999999,-0.387838,-0.487024
1629810637435,-0.781837,-0.387167,-0.487207
1629810637444,-0.780983,-0.387411,-0.487695
1629810637454,-0.780678,-0.387228,-0.487695
1629810637464,-0.780617,-0.387228,-0.486658
1629810637473,-0.780922,-0.387594,-0.487878
1629810637483,-0.780068,-0.386374,-0.489098
1629810637492,-0.780312,-0.387167,-0.488305
1629810637502,-0.780312,-0.38734999999999997,-0.48861
1629810637512,-0.780251,-0.386557,-0.488793
1629810637521,-0.780739,-0.386496,-0.488915
1629810637531,-0.7804949999999999,-0.386252,-0.489647
1629810637540,-0.7807999999999999,-0.386435,-0.48983
1629810637550,-0.780922,-0.38674,-0.489159
1629810637560,-0.7795799999999999,-0.386191,-0.488549
1629810637569,-0.780617,-0.386862,-0.488305
1629810637579,-0.779763,-0.386679,-0.489525
1629810637588,-0.7804949999999999,-0.386557,-0.489037
1629810637598,-0.780678,-0.387167,-0.490074
1629810637608,-0.780617,-0.386008,-0.48958599999999997
1629810637617,-0.7804949999999999,-0.386801,-0.490074
1629810637627,-0.779946,-0.387533,-0.489037
1629810637636,-0.779519,-0.387899,-0.487878
1629810637646,-0.7789699999999999,-0.387838,-0.486963
1629810637656,-0.7798849999999999,-0.388997,-0.48653599999999997
1629810637665,-0.7789699999999999,-0.389302,-0.486353
1629810637675,-0.779092,-0.389912,-0.48653599999999997
1629810637684,-0.779214,-0.390949,-0.486475
1629810637694,-0.779702,-0.39009499999999997,-0.48556
1629810637704,-0.779946,-0.39039999999999997,-0.485987
1629810637713,-0.779763,-0.389302,-0.485438
1629810637723,-0.779641,-0.38856999999999997,-0.48556
1629810637732,-0.780556,-0.388204,-0.486109
1629810637742,-0.780617,-0.387594,-0.488122
1629810637752,-0.7804949999999999,-0.386313,-0.488183
1629810637761,-0.7811049999999999,-0.38674,-0.488305
1629810637771,-0.781532,-0.386557,-0.488305
1629810637780,-0.781227,-0.387533,-0.488122
1629810637790,-0.782081,-0.386862,-0.488305
1629810637800,-0.7823249999999999,-0.387472,-0.487207
1629810637809,-0.782264,-0.387838,-0.487573
1629810637819,-0.7817149999999999,-0.388692,-0.48739
1629810637828,-0.782569,-0.389302,-0.486658
1629810637838,-0.7823249999999999,-0.389058,-0.486597
1629810637848,-0.781959,-0.389241,-0.48617
1629810637857,-0.781776,-0.390339,-0.48470599999999997
1629810637867,-0.781776,-0.390522,-0.484584
1629810637876,-0.781898,-0.390217,-0.486109
1629810637886,-0.782203,-0.389424,-0.485499
1629810637896,-0.781532,-0.388631,-0.485682
1629810637905,-0.781044,-0.388082,-0.485377
1629810637915,-0.781227,-0.388997,-0.48501099999999997
1629810637924,-0.780739,-0.389119,-0.485194
1629810637934,-0.780922,-0.389546,-0.484889
1629810637944,-0.781044,-0.390034,-0.485255
1629810637953,-0.781776,-0.39009499999999997,-0.48501099999999997
1629810637963,-0.781837,-0.389546,-0.484523
1629810637972,-0.781898,-0.389302,-0.484523
1629810637982,-0.780617,-0.388814,-0.485255
1629810637992,-0.781166,-0.388021,-0.484889
1629810638001,-0.780983,-0.387777,-0.485438
1629810638011,-0.781349,-0.386923,-0.486475
1629810638020,-0.781532,-0.387228,-0.485194
1629810638030,-0.780678,-0.387594,-0.48501099999999997
1629810638040,-0.780861,-0.388326,-0.483974
1629810638049,-0.781471,-0.387411,-0.48440099999999997
1629810638059,-0.7801899999999999,-0.386862,-0.484462
1629810638068,-0.780739,-0.385093,-0.484462
1629810638078,-0.781532,-0.384727,-0.483852
1629810638088,-0.783057,-0.386679,-0.48501099999999997
1629810638097,-0.784704,-0.38887499999999997,-0.488122
1629810638107,-0.784521,-0.391498,-0.492209
1629810638116,-0.784887,-0.39100999999999997,-0.492514
1629810638126,-0.784826,-0.389058,-0.491965
1629810638136,-0.784277,-0.386862,-0.487817
1629810638145,-0.782874,-0.385154,-0.48409599999999997
1629810638155,-0.781227,-0.38491,-0.482388
1629810638164,-0.781044,-0.384605,-0.483608
1629810638174,-0.780251,-0.385581,-0.48562099999999997
1629810638184,-0.781288,-0.387777,-0.486719
1629810638193,-0.780129,-0.387716,-0.487695
1629810638203,-0.779946,-0.38887499999999997,-0.486719
1629810638212,-0.7801899999999999,-0.39039999999999997,-0.485804
1629810638222,-0.779824,-0.39070499999999997,-0.484218
1629810638232,-0.779702,-0.391864,-0.48409599999999997
1629810638241,-0.779824,-0.390888,-0.482388
1629810638251,-0.779458,-0.390766,-0.481839
1629810638260,-0.780373,-0.391498,-0.482205
1629810638270,-0.780983,-0.39070499999999997,-0.48495
1629810638280,-0.781166,-0.39100999999999997,-0.48592599999999997
1629810638289,-0.7817149999999999,-0.389729,-0.48745099999999997
1629810638299,-0.781837,-0.38856999999999997,-0.487939
1629810638308,-0.7814099999999999,-0.386801,-0.487024
1629810638318,-0.781776,-0.38613,-0.487329
1629810638328,-0.781532,-0.385154,-0.48739
1629810638337,-0.781593,-0.385886,-0.487878
1629810638347,-0.7823249999999999,-0.38613,-0.48739
1629810638356,-0.781898,-0.38674,-0.48739
1629810638366,-0.781959,-0.386862,-0.486719
1629810638376,-0.781471,-0.388326,-0.486109
1629810638385,-0.780922,-0.38765499999999997,-0.484889
1629810638395,-0.780373,-0.385093,-0.483425
1629810638404,-0.781288,-0.385154,-0.48470599999999997
1629810638414,-0.7814099999999999,-0.386984,-0.48562099999999997
1629810638424,-0.782203,-0.387045,-0.488244
1629810638433,-0.782813,-0.388814,-0.489464
1629810638443,-0.782996,-0.38887499999999997,-0.488488
1629810638452,-0.783667,-0.388204,-0.487024
1629810638462,-0.783362,-0.388021,-0.48501099999999997
1629810638472,-0.782813,-0.388326,-0.484584
1629810638481,-0.783423,-0.387716,-0.484584
1629810638491,-0.7829349999999999,-0.387899,-0.48531599999999997
1629810638500,-0.782996,-0.387533,-0.484584
1629810638510,-0.783118,-0.38765499999999997,-0.485377
1629810638520,-0.7820199999999999,-0.387411,-0.486292
1629810638529,-0.781593,-0.387716,-0.486963
1629810638539,-0.781288,-0.388936,-0.48592599999999997
1629810638548,-0.781776,-0.387289,-0.487024
1629810638558,-0.781288,-0.387838,-0.486658
1629810638568,-0.781349,-0.387045,-0.48745099999999997
1629810638577,-0.781227,-0.38674,-0.48775599999999997
1629810638587,-0.782386,-0.386801,-0.487634
1629810638596,-0.781288,-0.386496,-0.48714599999999997
1629810638606,-0.780556,-0.385825,-0.487085
1629810638616,-0.780373,-0.386618,-0.48745099999999997
1629810638625,-0.781349,-0.386435,-0.488488
1629810638635,-0.780922,-0.386557,-0.48928099999999997
1629810638644,-0.7804949999999999,-0.386862,-0.48989099999999997
1629810638654,-0.780617,-0.386862,-0.489525
1629810638664,-0.779946,-0.38674,-0.48922
1629810638673,-0.780312,-0.387167,-0.486719
1629810638683,-0.779031,-0.388143,-0.48501099999999997
1629810638692,-0.779092,-0.388448,-0.48440099999999997
1629810638702,-0.779824,-0.39009499999999997,-0.485377
1629810638712,-0.779031,-0.390949,-0.484767
1629810638721,-0.779092,-0.391864,-0.48531599999999997
1629810638731,-0.779153,-0.391498,-0.484523
1629810638740,-0.780312,-0.391193,-0.48470599999999997
1629810638750,-0.780617,-0.390888,-0.48373
1629810638760,-0.780617,-0.389973,-0.483974
1629810638769,-0.781166,-0.389424,-0.484828
1629810638779,-0.7823249999999999,-0.388814,-0.485804
1629810638788,-0.781166,-0.388326,-0.486963
1629810638798,-0.782508,-0.387045,-0.486353
1629810638808,-0.782386,-0.386618,-0.487207
1629810638817,-0.782081,-0.387106,-0.487329
1629810638827,-0.783118,-0.386618,-0.487512
1629810638836,-0.782508,-0.387411,-0.487024
1629810638846,-0.782813,-0.387106,-0.48623099999999997
1629810638856,-0.782508,-0.386862,-0.486719
1629810638865,-0.783301,-0.386618,-0.48678
1629810638875,-0.782264,-0.387472,-0.48684099999999997
1629810638884,-0.783057,-0.388387,-0.486109
1629810638894,-0.782264,-0.388448,-0.486292
1629810638904,-0.783362,-0.388387,-0.485499
1629810638913,-0.782691,-0.388143,-0.485438
1629810638923,-0.781166,-0.38856999999999997,-0.48434
1629810638932,-0.781776,-0.388021,-0.48379099999999997
1629810638942,-0.780861,-0.388204,-0.483913
1629810638952,-0.781471,-0.389058,-0.484035
1629810638961,-0.7811049999999999,-0.389241,-0.482754
1629810638971,-0.782142,-0.389668,-0.484218
1629810638980,-0.782142,-0.389607,-0.48409599999999997
1629810638990,-0.781654,-0.389668,-0.484462
1629810639000,-0.781288,-0.38795999999999997,-0.48440099999999997
1629810639009,-0.781776,-0.38826499999999997,-0.484767
1629810639019,-0.781898,-0.38795999999999997,-0.484584
1629810639028,-0.781227,-0.387289,-0.484828
1629810639038,-0.781959,-0.386679,-0.48531599999999997
1629810639048,-0.7807999999999999,-0.38734999999999997,-0.486353
1629810639057,-0.781227,-0.387167,-0.484828
1629810639067,-0.780861,-0.386557,-0.484462
1629810639076,-0.780922,-0.386435,-0.48470599999999997
1629810639086,-0.7811049999999999,-0.385581,-0.485194
1629810639096,-0.7814099999999999,-0.384178,-0.48556
1629810639105,-0.782264,-0.383385,-0.48653599999999997
1629810639115,-0.784094,-0.38552,-0.487695
1629810639124,-0.784399,-0.389973,-0.49105
1629810639134,-0.784399,-0.392169,-0.491843
1629810639144,-0.7847649999999999,-0.39222999999999997,-0.490379
1629810639153,-0.7841549999999999,-0.389912,-0.486658
1629810639163,-0.782691,-0.387411,-0.483242
1629810639172,-0.781776,-0.385947,-0.481717
1629810639182,-0.780434,-0.386435,-0.482632
1629810639192,-0.779946,-0.386252,-0.484218
1629810639201,-0.779336,-0.386496,-0.486048
1629810639211,-0.779519,-0.387777,-0.487634
1629810639220,-0.779763,-0.38887499999999997,-0.48714599999999997
1629810639230,-0.780556,-0.389668,-0.48739
1629810639240,-0.779763,-0.39039999999999997,-0.48592599999999997
1629810639249,-0.779458,-0.390339,-0.48556
1629810639259,-0.780007,-0.390339,-0.485194
1629810639268,-0.781044,-0.388936,-0.485194
1629810639278,-0.781898,-0.388692,-0.485804
1629810639288,-0.781166,-0.38826499999999997,-0.487268
1629810639297,-0.7820199999999999,-0.38856999999999997,-0.48861
1629810639307,-0.781898,-0.388387,-0.489159
1629810639316,-0.781593,-0.38795999999999997,-0.489098
1629810639326,-0.781532,-0.387899,-0.489647
1629810639336,-0.780251,-0.387106,-0.488793
1629810639345,-0.7811049999999999,-0.387472,-0.48861
1629810639355,-0.7792749999999999,-0.387594,-0.487573
1629810639364,-0.779214,-0.387716,-0.487512
1629810639374,-0.779519,-0.389119,-0.48745099999999997
1629810639384,-0.779946,-0.38978999999999997,-0.48617
1629810639393,-0.7783599999999999,-0.389668,-0.486658
1629810639403,-0.777201,-0.387472,-0.484462
1629810639412,-0.7786649999999999,-0.385032,-0.484035
1629810639422,-0.779397,-0.386008,-0.48562099999999997
1629810639432,-0.780678,-0.38826499999999997,-0.488244
1629810639441,-0.781776,-0.388936,-0.491172
1629810639451,-0.782508,-0.388936,-0.491355
1629810639460,-0.782996,-0.388082,-0.490684
1629810639470,-0.782447,-0.387594,-0.48897599999999997
1629810639480,-0.7826299999999999,-0.387716,-0.487634
1629810639489,-0.7811049999999999,-0.386496,-0.48623099999999997
1629810639499,-0.781837,-0.385764,-0.487512
1629810639508,-0.781898,-0.386313,-0.487512
1629810639518,-0.781288,-0.386557,-0.488488
1629810639528,-0.780434,-0.386252,-0.489037
1629810639537,-0.781288,-0.385642,-0.48922
1629810639547,-0.7801899999999999,-0.38613,-0.49019599999999997
1629810639556,-0.781349,-0.384788,-0.489708
1629810639566,-0.780678,-0.385276,-0.489464
1629810639576,-0.7804949999999999,-0.38491,-0.489464
1629810639585,-0.7807999999999999,-0.384483,-0.489342
1629810639595,-0.780434,-0.383812,-0.48928099999999997
