timestamp,ax,ay,az
1629810615894,-0.41796875,0.00677490234375,0.89154052734375
1629810615894,-0.42034912109375,0.00567626953125,0.89678955078125
1629810615894,-0.42340087890625,0.0068359375,0.8956298828125
1629810615941,-0.4202880859375,0.01068115234375,0.893798828125
1629810615941,-0.42047119140625,0.01202392578125,0.89306640625
1629810615941,-0.4200439453125,0.0107421875,0.8961181640625
1629810615988,-0.41497802734375,0.011962890625,0.89898681640625
1629810615988,-0.414306640625,0.01300048828125,0.898681640625
1629810615988,-0.415771484375,0.00823974609375,0.90240478515625
1629810615988,-0.41876220703125,0.01519775390625,0.896240234375
1629810615988,-0.4158935546875,0.00848388671875,0.900146484375
1629810615988,-0.41473388671875,0.01214599609375,0.89776611328125
1629810616050,-0.41265869140625,0.0040283203125,0.90447998046875
1629810616066,-0.4134521484375,0.0020751953125,0.90277099609375
1629810616066,-0.41278076171875,0.0054931640625,0.903564453125
1629810616128,-0.4140625,0.008056640625,0.90570068359375
1629810616128,-0.41204833984375,0.00762939453125,0.90655517578125
1629810616128,-0.41534423828125,0.00469970703125,0.90673828125
1629810616208,-0.41925048828125,0.008544921875,0.89813232421875
1629810616208,-0.4166259765625,0.00775146484375,0.89898681640625
1629810616208,-0.41571044921875,0.00836181640625,0.90155029296875
1629810616287,-0.4195556640625,0.0048828125,0.898681640625
1629810616287,-0.4178466796875,0.00048828125,0.89129638671875
1629810616287,-0.41748046875,0.0076904296875,0.88995361328125
1629810616381,-0.417236328125,0.00927734375,0.901611328125
1629810616396,-0.41851806640625,0.0081787109375,0.89044189453125
1629810616396,-0.4124755859375,0.00799560546875,0.89447021484375
1629810616411,-0.41571044921875,0.010498046875,0.9063720703125
1629810616411,-0.41766357421875,0.00872802734375,0.90240478515625
1629810616411,-0.41522216796875,0.0106201171875,0.903564453125
1629810616411,-0.41510009765625,0.00750732421875,0.90478515625
1629810616411,-0.418212890625,0.00958251953125,0.9033203125
1629810616411,-0.41485595703125,0.0111083984375,0.90435791015625
1629810616521,-0.4176025390625,0.00518798828125,0.89404296875
1629810616521,-0.41827392578125,0.007080078125,0.89794921875
1629810616521,-0.41888427734375,0.00830078125,0.898681640625
1629810616552,-0.419921875,0.00384521484375,0.8994140625
1629810616552,-0.419921875,0.00726318359375,0.89715576171875
1629810616552,-0.421142578125,0.00579833984375,0.89984130859375
1629810616615,-0.42169189453125,0.00860595703125,0.89727783203125
1629810616615,-0.4228515625,0.00677490234375,0.89617919921875
1629810616615,-0.42144775390625,0.00604248046875,0.8922119140625
1629810616677,-0.4189453125,0.00372314453125,0.89471435546875
1629810616677,-0.4180908203125,0.00079345703125,0.89056396484375
1629810616677,-0.42205810546875,0.004150390625,0.8974609375
1629810616755,-0.42181396484375,0.00555419921875,0.89434814453125
1629810616755,-0.4193115234375,0.006591796875,0.8958740234375
1629810616771,-0.41485595703125,0.0030517578125,0.89703369140625
1629810616849,-0.41937255859375,0.008544921875,0.89739990234375
1629810616849,-0.4150390625,0.01019287109375,0.899169921875
1629810616849,-0.41705322265625,0.0078125,0.898681640625
1629810616911,-0.41778564453125,0.01361083984375,0.901123046875
1629810616911,-0.41455078125,0.0140380859375,0.902587890625
1629810616911,-0.416748046875,0.01458740234375,0.90130615234375
1629810616958,-0.414794921875,0.01043701171875,0.90093994140625
1629810616958,-0.41497802734375,0.0115966796875,0.9005126953125
1629810616974,-0.4134521484375,0.006103515625,0.90081787109375
1629810617052,-0.41162109375,0.0050048828125,0.9012451171875
1629810617068,-0.4134521484375,0.00408935546875,0.90118408203125
1629810617068,-0.41510009765625,0.0054931640625,0.90313720703125
1629810617068,-0.41693115234375,0.00732421875,0.9022216796875
1629810617068,-0.41217041015625,0.00323486328125,0.902099609375
1629810617068,-0.41436767578125,0.00555419921875,0.90069580078125
1629810617099,-0.41278076171875,0.0064697265625,0.897216796875
1629810617099,-0.414306640625,0.00701904296875,0.898681640625
1629810617099,-0.411376953125,0.00921630859375,0.900146484375
1629810617161,-0.413330078125,0.0089111328125,0.8968505859375
1629810617161,-0.41766357421875,0.0113525390625,0.9002685546875
1629810617161,-0.41424560546875,0.00689697265625,0.90069580078125
1629810617242,-0.41558837890625,0.00323486328125,0.9002685546875
1629810617242,-0.41436767578125,0.0079345703125,0.89971923828125
1629810617242,-0.41510009765625,0.009033203125,0.8966064453125
1629810617242,-0.41632080078125,0.0009765625,0.90045166015625
1629810617242,-0.41802978515625,0.00579833984375,0.90234375
1629810617242,-0.41668701171875,0.0111083984375,0.904296875
1629810617336,-0.41375732421875,0.0067138671875,0.90277099609375
1629810617336,-0.41290283203125,0.00823974609375,0.89971923828125
1629810617336,-0.41143798828125,0.0111083984375,0.90850830078125
1629810617383,-0.4168701171875,0.00994873046875,0.907470703125
1629810617383,-0.4122314453125,0.00836181640625,0.90234375
1629810617383,-0.4127197265625,0.01165771484375,0.90875244140625
1629810617477,-0.4136962890625,0.0047607421875,0.9012451171875
1629810617477,-0.41412353515625,0.0078125,0.90313720703125
1629810617477,-0.41998291015625,0.00311279296875,0.89459228515625
1629810617477,-0.414794921875,0.00872802734375,0.90460205078125
1629810617477,-0.4185791015625,0.00482177734375,0.89105224609375
1629810617477,-0.4228515625,0.00506591796875,0.8907470703125
1629810617539,-0.42694091796875,0.0029296875,0.89422607421875
1629810617539,-0.4261474609375,0.00311279296875,0.8968505859375
1629810617539,-0.4267578125,0.005126953125,0.89398193359375
1629810617602,-0.43072509765625,0.0078125,0.889892578125
1629810617602,-0.42974853515625,0.00604248046875,0.89404296875
1629810617602,-0.427978515625,0.00653076171875,0.8902587890625
1629810617648,-0.43084716796875,0.00494384765625,0.8914794921875
1629810617648,-0.429443359375,0.003662109375,0.89111328125
1629810617648,-0.43133544921875,0.00018310546875,0.886962890625
1629810617727,-0.4345703125,0.00018310546875,0.89166259765625
1629810617727,-0.43475341796875,-0.005126953125,0.89056396484375
1629810617742,-0.4375,-0.002197265625,0.89105224609375
1629810617805,-0.4371337890625,-0.00469970703125,0.89019775390625
1629810617805,-0.44049072265625,-0.001953125,0.8922119140625
1629810617805,-0.43682861328125,-0.00244140625,0.88714599609375
1629810617820,-0.43310546875,0.00079345703125,0.88616943359375
1629810617820,-0.436767578125,0.0030517578125,0.8828125
1629810617820,-0.4344482421875,-0.00054931640625,0.88031005859375
1629810617945,-0.4342041015625,-0.0081787109375,0.88739013671875
1629810617945,-0.43560791015625,-0.00042724609375,0.88275146484375
1629810617945,-0.43658447265625,-0.00543212890625,0.88458251953125
1629810617961,-0.43658447265625,-0.00994873046875,0.89129638671875
1629810617961,-0.4375,-0.0108642578125,0.8892822265625
1629810617961,-0.43524169921875,-0.00787353515625,0.887939453125
1629810618023,-0.43328857421875,-0.0015869140625,0.892822265625
1629810618023,-0.433837890625,-0.00689697265625,0.89227294921875
1629810618023,-0.43328857421875,-0.00531005859375,0.888671875
1629810618117,-0.43243408203125,-0.00372314453125,0.88861083984375
1629810618117,-0.43341064453125,-0.0076904296875,0.892578125
1629810618117,-0.43426513671875,-0.00347900390625,0.8890380859375
1629810618180,-0.42999267578125,-0.01226806640625,0.8955078125
1629810618180,-0.42919921875,-0.00921630859375,0.89605712890625
1629810618180,-0.4312744140625,-0.01263427734375,0.8917236328125
1629810618258,-0.4337158203125,-0.03741455078125,0.89141845703125
1629810618258,-0.4329833984375,-0.02972412109375,0.89727783203125
1629810618259,-0.43524169921875,-0.0155029296875,0.890625
1629810618323,-0.43304443359375,-0.01922607421875,0.8902587890625
1629810618323,-0.43109130859375,-0.0283203125,0.887451171875
1629810618323,-0.43157958984375,-0.03289794921875,0.88946533203125
1629810618355,-0.43157958984375,0.0181884765625,0.89385986328125
1629810618355,-0.430419921875,0.004150390625,0.8924560546875
1629810618355,-0.429931640625,-0.00830078125,0.887939453125
1629810618448,-0.42803955078125,0.03448486328125,0.89947509765625
1629810618448,-0.4287109375,0.02996826171875,0.89422607421875
1629810618448,-0.4339599609375,0.03533935546875,0.898681640625
1629810618463,-0.4320068359375,0.026611328125,0.88800048828125
1629810618463,-0.431884765625,0.02978515625,0.891845703125
1629810618479,-0.43341064453125,0.027099609375,0.896484375
1629810618588,-0.431396484375,0.02008056640625,0.8909912109375
1629810618588,-0.43511962890625,0.02301025390625,0.88653564453125
1629810618588,-0.4344482421875,0.03924560546875,0.88824462890625
1629810618588,-0.43988037109375,0.03094482421875,0.888427734375
1629810618588,-0.4359130859375,0.01959228515625,0.887939453125
1629810618588,-0.4334716796875,0.02288818359375,0.89703369140625
1629810618667,-0.43377685546875,0.0477294921875,0.89178466796875
1629810618667,-0.4410400390625,0.0540771484375,0.8858642578125
1629810618667,-0.44049072265625,0.051513671875,0.8916015625
1629810618807,-0.4395751953125,0.06170654296875,0.8836669921875
1629810618807,-0.43603515625,0.0662841796875,0.8836669921875
1629810618807,-0.439208984375,0.0582275390625,0.88250732421875
1629810618963,-0.44219970703125,0.0687255859375,0.88140869140625
1629810618963,-0.44732666015625,0.07513427734375,0.8818359375
1629810618963,-0.4425048828125,0.0745849609375,0.8800048828125
1629810618979,-0.4498291015625,0.1116943359375,0.87957763671875
1629810618995,-0.4442138671875,0.10400390625,0.87933349609375
1629810618995,-0.44384765625,0.0936279296875,0.87432861328125
1629810618995,-0.445068359375,0.08465576171875,0.87213134765625
1629810618995,-0.44256591796875,0.10955810546875,0.87554931640625
1629810618995,-0.44683837890625,0.10791015625,0.87420654296875
1629810619073,-0.44976806640625,0.115234375,0.87896728515625
1629810619073,-0.44921875,0.11358642578125,0.8787841796875
1629810619073,-0.45074462890625,0.114501953125,0.877197265625
1629810619151,-0.45635986328125,0.111083984375,0.88214111328125
1629810619167,-0.45294189453125,0.11065673828125,0.8807373046875
1629810619167,-0.451171875,0.11279296875,0.88409423828125
1629810619311,-0.4512939453125,0.10784912109375,0.8785400390625
1629810619311,-0.452880859375,0.10675048828125,0.87664794921875
1629810619329,-0.45208740234375,0.10546875,0.876220703125
1629810619407,-0.45855712890625,0.09698486328125,0.87420654296875
1629810619407,-0.45318603515625,0.10479736328125,0.878173828125
1629810619407,-0.45672607421875,0.09967041015625,0.87677001953125
1629810619532,-0.45367431640625,0.091796875,0.87322998046875
1629810619532,-0.4539794921875,0.09637451171875,0.8720703125
1629810619532,-0.45050048828125,0.08734130859375,0.88031005859375
1629810619610,-0.44207763671875,0.0670166015625,0.8748779296875
1629810619610,-0.4405517578125,0.0577392578125,0.87646484375
1629810619610,-0.44366455078125,0.07379150390625,0.8729248046875
1629810619625,-0.4473876953125,0.072509765625,0.875
1629810619625,-0.4466552734375,0.05413818359375,0.87939453125
1629810619625,-0.45062255859375,0.07080078125,0.87384033203125
1629810619625,-0.4425048828125,0.0430908203125,0.883056640625
1629810619625,-0.44012451171875,0.0296630859375,0.88714599609375
1629810619625,-0.44805908203125,0.0740966796875,0.87548828125
1629810619703,-0.44122314453125,0.02154541015625,0.884033203125
1629810619703,-0.43402099609375,0.00421142578125,0.886962890625
1629810619703,-0.42901611328125,-0.01678466796875,0.893798828125
1629810619703,-0.43499755859375,-0.00189208984375,0.88690185546875
1629810619703,-0.4364013671875,0.0126953125,0.88531494140625
1629810619703,-0.43560791015625,-0.0050048828125,0.88983154296875
1629810619782,-0.42791748046875,-0.02386474609375,0.898193359375
1629810619782,-0.42156982421875,-0.0269775390625,0.90740966796875
1629810619782,-0.4227294921875,-0.03082275390625,0.9088134765625
1629810619782,-0.421875,-0.030029296875,0.9075927734375
1629810619797,-0.42205810546875,-0.02874755859375,0.9013671875
1629810619797,-0.42724609375,-0.026611328125,0.90850830078125
1629810619860,-0.42034912109375,-0.03704833984375,0.89349365234375
1629810619860,-0.41998291015625,-0.0340576171875,0.8975830078125
1629810619860,-0.421875,-0.03289794921875,0.9000244140625
1629810619922,-0.42132568359375,-0.0384521484375,0.88970947265625
1629810619922,-0.4212646484375,-0.03912353515625,0.89520263671875
1629810619922,-0.4234619140625,-0.0467529296875,0.8912353515625
1629810619922,-0.4202880859375,-0.04351806640625,0.89178466796875
1629810619922,-0.419677734375,-0.0430908203125,0.89154052734375
1629810619922,-0.42108154296875,-0.043701171875,0.88800048828125
1629810619953,-0.41986083984375,-0.03643798828125,0.899169921875
1629810619953,-0.41796875,-0.0335693359375,0.9022216796875
1629810619953,-0.41766357421875,-0.03662109375,0.9010009765625
1629810619953,-0.4222412109375,-0.0357666015625,0.89794921875
1629810619953,-0.41815185546875,-0.036376953125,0.89886474609375
1629810619953,-0.42010498046875,-0.0384521484375,0.89886474609375
1629810619969,-0.42138671875,-0.0399169921875,0.89959716796875
1629810619985,-0.421142578125,-0.04766845703125,0.899658203125
1629810619985,-0.42340087890625,-0.04718017578125,0.89697265625
1629810620078,-0.420654296875,-0.04998779296875,0.89788818359375
1629810620078,-0.42608642578125,-0.048583984375,0.896240234375
1629810620078,-0.4224853515625,-0.04998779296875,0.8934326171875
1629810620094,-0.426513671875,-0.04638671875,0.891845703125
1629810620094,-0.42523193359375,-0.04571533203125,0.8953857421875
1629810620094,-0.425048828125,-0.04736328125,0.89404296875
1629810620141,-0.4298095703125,-0.03936767578125,0.89105224609375
1629810620141,-0.42620849609375,-0.04327392578125,0.89263916015625
1629810620141,-0.42901611328125,-0.03924560546875,0.890625
1629810620156,-0.42822265625,-0.037353515625,0.8907470703125
1629810620172,-0.42938232421875,-0.029296875,0.8905029296875
1629810620172,-0.42999267578125,-0.0316162109375,0.8907470703125
1629810620235,-0.4302978515625,-0.03448486328125,0.8880615234375
1629810620235,-0.43048095703125,-0.0313720703125,0.89288330078125
1629810620235,-0.431396484375,-0.03314208984375,0.891357421875
1629810620313,-0.42510986328125,-0.02728271484375,0.8828125
1629810620313,-0.42803955078125,-0.02734375,0.8900146484375
1629810620313,-0.42578125,-0.0262451171875,0.88800048828125
1629810620410,-0.42156982421875,-0.0277099609375,0.8939208984375
1629810620410,-0.42010498046875,-0.02618408203125,0.8941650390625
1629810620410,-0.42340087890625,-0.02618408203125,0.89898681640625
1629810620410,-0.42388916015625,-0.02166748046875,0.8997802734375
1629810620410,-0.4239501953125,-0.024658203125,0.89715576171875
1629810620410,-0.42578125,-0.02264404296875,0.90087890625
1629810620582,-0.423095703125,-0.02471923828125,0.89404296875
1629810620582,-0.422119140625,-0.02630615234375,0.8929443359375
1629810620582,-0.4266357421875,-0.02581787109375,0.89996337890625
1629810620582,-0.422607421875,-0.02777099609375,0.88812255859375
1629810620582,-0.424560546875,-0.02520751953125,0.89739990234375
1629810620582,-0.422119140625,-0.0267333984375,0.89654541015625
1629810620660,-0.42816162109375,-0.02569580078125,0.889892578125
1629810620660,-0.42657470703125,-0.02490234375,0.892822265625
1629810620660,-0.42730712890625,-0.031005859375,0.89971923828125
1629810620723,-0.4326171875,-0.0250244140625,0.89208984375
1629810620723,-0.43096923828125,-0.03045654296875,0.8851318359375
1629810620723,-0.42864990234375,-0.0296630859375,0.88824462890625
1629810620769,-0.43505859375,-0.0283203125,0.8857421875
1629810620769,-0.42913818359375,-0.0284423828125,0.88201904296875
1629810620769,-0.4290771484375,-0.0302734375,0.88287353515625
1629810620801,-0.42913818359375,-0.02520751953125,0.89373779296875
1629810620801,-0.43145751953125,-0.02978515625,0.88232421875
1629810620801,-0.43408203125,-0.03253173828125,0.89080810546875
1629810620957,-0.42626953125,-0.0189208984375,0.89654541015625
1629810620957,-0.4290771484375,-0.01953125,0.89178466796875
1629810620957,-0.43017578125,-0.0172119140625,0.89324951171875
1629810620957,-0.42864990234375,-0.0189208984375,0.89178466796875
1629810620957,-0.42669677734375,-0.0162353515625,0.8900146484375
1629810620957,-0.42791748046875,-0.0218505859375,0.89306640625
1629810620988,-0.428466796875,-0.0242919921875,0.8946533203125
1629810621004,-0.43035888671875,-0.02960205078125,0.8970947265625
1629810621004,-0.4320068359375,-0.02532958984375,0.8944091796875
1629810621019,-0.43072509765625,-0.03192138671875,0.892578125
1629810621019,-0.4290771484375,-0.02838134765625,0.89324951171875
1629810621019,-0.42706298828125,-0.029296875,0.89178466796875
1629810621178,-0.43072509765625,-0.02752685546875,0.89398193359375
1629810621178,-0.43060302734375,-0.02655029296875,0.89263916015625
1629810621178,-0.4293212890625,-0.0279541015625,0.89776611328125
1629810621178,-0.4263916015625,-0.03277587890625,0.88983154296875
1629810621178,-0.42694091796875,-0.02423095703125,0.8931884765625
1629810621178,-0.4283447265625,-0.02825927734375,0.89031982421875
1629810621209,-0.43115234375,-0.0228271484375,0.88714599609375
1629810621209,-0.43206787109375,-0.02520751953125,0.88818359375
1629810621225,-0.4306640625,-0.02099609375,0.8912353515625
1629810621288,-0.4298095703125,-0.02099609375,0.8876953125
1629810621288,-0.42730712890625,-0.01531982421875,0.89642333984375
1629810621288,-0.42840576171875,-0.01287841796875,0.8916015625
1629810621288,-0.4248046875,-0.0113525390625,0.8939208984375
1629810621288,-0.42742919921875,-0.012939453125,0.887939453125
1629810621288,-0.42889404296875,-0.0145263671875,0.8961181640625
1629810621397,-0.42291259765625,-0.0142822265625,0.89691162109375
1629810621397,-0.423095703125,-0.01318359375,0.8984375
1629810621413,-0.42584228515625,-0.01739501953125,0.89862060546875
1629810621444,-0.42779541015625,-0.0189208984375,0.88836669921875
1629810621444,-0.42474365234375,-0.01739501953125,0.896240234375
1629810621444,-0.427978515625,-0.02099609375,0.89154052734375
1629810621522,-0.4266357421875,-0.016845703125,0.88580322265625
1629810621522,-0.4244384765625,-0.01861572265625,0.886474609375
1629810621522,-0.42999267578125,-0.01617431640625,0.89239501953125
1629810621678,-0.4307861328125,-0.02154541015625,0.892578125
1629810621678,-0.4271240234375,-0.01763916015625,0.8948974609375
1629810621678,-0.4266357421875,-0.02191162109375,0.89239501953125
1629810621709,-0.4271240234375,-0.02032470703125,0.89874267578125
1629810621725,-0.42559814453125,-0.02197265625,0.896484375
1629810621725,-0.4249267578125,-0.01922607421875,0.89630126953125
1629810621756,-0.42169189453125,-0.01800537109375,0.89312744140625
1629810621772,-0.42303466796875,-0.01953125,0.89349365234375
1629810621772,-0.42578125,-0.0205078125,0.90081787109375
1629810621834,-0.42742919921875,-0.01544189453125,0.8919677734375
1629810621834,-0.42242431640625,-0.01922607421875,0.8914794921875
1629810621834,-0.423583984375,-0.01513671875,0.89288330078125
1629810621928,-0.42254638671875,-0.00738525390625,0.893310546875
1629810621928,-0.4259033203125,-0.00775146484375,0.89215087890625
1629810621928,-0.424072265625,-0.00885009765625,0.891845703125
1629810621990,-0.42376708984375,-0.01141357421875,0.8941650390625
1629810621990,-0.42352294921875,-0.00823974609375,0.895263671875
1629810621990,-0.422119140625,-0.00927734375,0.89276123046875
1629810622147,-0.42205810546875,-0.013427734375,0.8963623046875
1629810622147,-0.42254638671875,-0.01416015625,0.898681640625
1629810622147,-0.4212646484375,-0.01116943359375,0.8968505859375
1629810622178,-0.42315673828125,-0.00836181640625,0.9039306640625
1629810622178,-0.41943359375,-0.01373291015625,0.9010009765625
1629810622178,-0.420166015625,-0.0133056640625,0.9010009765625
1629810622256,-0.42449951171875,-0.00921630859375,0.90087890625
1629810622256,-0.42315673828125,-0.013916015625,0.90277099609375
1629810622256,-0.42059326171875,-0.01226806640625,0.90228271484375
1629810622272,-0.42364501953125,-0.0133056640625,0.88946533203125
1629810622272,-0.427490234375,-0.01416015625,0.89111328125
1629810622272,-0.42657470703125,-0.015625,0.88519287109375
1629810622287,-0.41961669921875,-0.00762939453125,0.8895263671875
1629810622287,-0.42779541015625,-0.01446533203125,0.8836669921875
1629810622287,-0.42071533203125,-0.0101318359375,0.8856201171875
1629810622334,-0.42144775390625,-0.01055908203125,0.8948974609375
1629810622334,-0.41888427734375,-0.00970458984375,0.89581298828125
1629810622334,-0.41729736328125,-0.00872802734375,0.89794921875
1629810622440,-0.41827392578125,-0.01043701171875,0.901123046875
1629810622440,-0.42242431640625,-0.0103759765625,0.8994140625
1629810622440,-0.41607666015625,-0.0108642578125,0.904296875
1629810622551,-0.42236328125,-0.01666259765625,0.8974609375
1629810622551,-0.4180908203125,-0.013427734375,0.9022216796875
1629810622551,-0.4178466796875,-0.00994873046875,0.89825439453125
1629810622566,-0.42022705078125,-0.0091552734375,0.9002685546875
1629810622566,-0.41925048828125,-0.0076904296875,0.903076171875
1629810622566,-0.4246826171875,-0.01507568359375,0.89984130859375
1629810622566,-0.4180908203125,-0.00921630859375,0.89691162109375
1629810622566,-0.42376708984375,-0.014892578125,0.9024658203125
1629810622566,-0.42041015625,-0.00946044921875,0.90521240234375
1629810622660,-0.4237060546875,-0.01226806640625,0.89434814453125
1629810622660,-0.42156982421875,-0.01568603515625,0.89111328125
1629810622676,-0.423828125,-0.01519775390625,0.89300537109375
1629810622723,-0.42657470703125,-0.01397705078125,0.89007568359375
1629810622723,-0.42596435546875,-0.01788330078125,0.89263916015625
1629810622723,-0.427490234375,-0.01446533203125,0.89056396484375
1629810622770,-0.4241943359375,-0.00958251953125,0.889892578125
1629810622770,-0.4239501953125,-0.0150146484375,0.89007568359375
1629810622770,-0.42730712890625,-0.0113525390625,0.88946533203125
1629810622832,-0.42645263671875,-0.00994873046875,0.89288330078125
1629810622832,-0.42413330078125,-0.00604248046875,0.89422607421875
1629810622832,-0.42449951171875,-0.006591796875,0.89202880859375
1629810622863,-0.42584228515625,-0.0142822265625,0.897216796875
1629810622879,-0.42376708984375,-0.009765625,0.8980712890625
1629810622879,-0.42657470703125,-0.01153564453125,0.89910888671875
1629810622879,-0.42596435546875,-0.00616455078125,0.89520263671875
1629810622879,-0.42425537109375,-0.01507568359375,0.8968505859375
1629810622879,-0.42291259765625,-0.01776123046875,0.89923095703125
1629810622973,-0.4281005859375,-0.0184326171875,0.893798828125
1629810622973,-0.42431640625,-0.0135498046875,0.8909912109375
1629810622973,-0.42657470703125,-0.01824951171875,0.8961181640625
1629810622973,-0.4307861328125,-0.01654052734375,0.8912353515625
1629810622973,-0.42633056640625,-0.0142822265625,0.8892822265625
1629810622973,-0.42449951171875,-0.0166015625,0.89208984375
1629810622973,-0.42645263671875,-0.016357421875,0.892578125
1629810622973,-0.427001953125,-0.01605224609375,0.89324951171875
1629810622973,-0.42755126953125,-0.01513671875,0.89324951171875
1629810623051,-0.42529296875,-0.0108642578125,0.89093017578125
1629810623051,-0.4281005859375,-0.00811767578125,0.89263916015625
1629810623051,-0.42950439453125,-0.01605224609375,0.89263916015625
1629810623144,-0.42236328125,-0.0111083984375,0.89202880859375
1629810623144,-0.42041015625,-0.01141357421875,0.8958740234375
1629810623255,-0.4224853515625,-0.01434326171875,0.9033203125
1629810623255,-0.421142578125,-0.0123291015625,0.90325927734375
1629810623255,-0.42205810546875,-0.00921630859375,0.900390625
1629810623334,-0.423095703125,-0.01080322265625,0.8939208984375
1629810623334,-0.4212646484375,-0.0107421875,0.8994140625
1629810623334,-0.42340087890625,-0.01251220703125,0.89495849609375
1629810623365,-0.421142578125,-0.0120849609375,0.89666748046875
1629810623365,-0.42425537109375,-0.01214599609375,0.8919677734375
1629810623365,-0.42108154296875,-0.01336669921875,0.8890380859375
1629810623381,-0.425537109375,-0.01171875,0.89703369140625
1629810623396,-0.42730712890625,-0.0108642578125,0.8974609375
1629810623396,-0.4259033203125,-0.01123046875,0.89447021484375
1629810623443,-0.42852783203125,-0.0084228515625,0.88934326171875
1629810623443,-0.4244384765625,-0.010986328125,0.8883056640625
1629810623443,-0.42474365234375,-0.01214599609375,0.89044189453125
1629810623488,-0.42779541015625,-0.0118408203125,0.8905029296875
1629810623488,-0.4290771484375,-0.00238037109375,0.89599609375
1629810623489,-0.42816162109375,-0.00738525390625,0.89544677734375
1629810623489,-0.42706298828125,-0.01080322265625,0.89337158203125
1629810623489,-0.42840576171875,-0.00958251953125,0.89093017578125
1629810623489,-0.4290771484375,-0.009765625,0.89239501953125
1629810623567,-0.42864990234375,-0.00152587890625,0.8953857421875
1629810623582,-0.42913818359375,-0.00433349609375,0.88946533203125
1629810623582,-0.42510986328125,-0.00506591796875,0.89093017578125
1629810623628,-0.42584228515625,-0.0062255859375,0.89593505859375
1629810623629,-0.43206787109375,-0.01007080078125,0.89666748046875
1629810623629,-0.42535400390625,-0.0020751953125,0.8924560546875
1629810623738,-0.427978515625,-0.0146484375,0.88946533203125
1629810623738,-0.42681884765625,-0.014404296875,0.89044189453125
1629810623738,-0.4302978515625,-0.01348876953125,0.89422607421875
1629810623754,-0.4266357421875,-0.01611328125,0.8900146484375
1629810623754,-0.43035888671875,-0.01348876953125,0.88861083984375
1629810623754,-0.4302978515625,-0.01458740234375,0.890380859375
1629810623769,-0.42755126953125,-0.00970458984375,0.8934326171875
1629810623769,-0.426513671875,-0.011962890625,0.89251708984375
1629810623770,-0.42645263671875,-0.01324462890625,0.89324951171875
1629810623907,-0.42828369140625,-0.00836181640625,0.89654541015625
1629810623907,-0.4244384765625,-0.005126953125,0.896240234375
1629810623907,-0.4271240234375,-0.01043701171875,0.89276123046875
1629810623954,-0.42596435546875,-0.00775146484375,0.8966064453125
1629810623954,-0.4293212890625,-0.0107421875,0.895751953125
1629810623954,-0.42633056640625,-0.00909423828125,0.8983154296875
1629810624000,-0.42694091796875,-0.01251220703125,0.892578125
1629810624001,-0.43011474609375,-0.0146484375,0.89227294921875
1629810624002,-0.43072509765625,-0.01348876953125,0.89678955078125
1629810624005,-0.4259033203125,-0.010986328125,0.88916015625
1629810624016,-0.42669677734375,-0.01019287109375,0.88916015625
1629810624016,-0.42657470703125,-0.0113525390625,0.89227294921875
1629810624062,-0.4195556640625,-0.00616455078125,0.8975830078125
1629810624062,-0.42138671875,-0.00787353515625,0.89569091796875
1629810624063,-0.42315673828125,-0.0069580078125,0.89532470703125
1629810624124,-0.42236328125,-0.0037841796875,0.8944091796875
1629810624124,-0.4246826171875,-0.005615234375,0.89874267578125
1629810624124,-0.4228515625,-0.00714111328125,0.898681640625
1629810624223,-0.4256591796875,-0.0150146484375,0.89251708984375
1629810624223,-0.42645263671875,-0.00982666015625,0.89501953125
1629810624223,-0.42498779296875,-0.00982666015625,0.89239501953125
1629810624301,-0.42974853515625,-0.01068115234375,0.89520263671875
1629810624301,-0.42657470703125,-0.010498046875,0.88885498046875
1629810624301,-0.42742919921875,-0.00653076171875,0.8955078125
1629810624364,-0.42462158203125,-0.00360107421875,0.89141845703125
1629810624379,-0.42724609375,-0.00933837890625,0.89862060546875
1629810624379,-0.42852783203125,-0.00567626953125,0.8948974609375
1629810624379,-0.4254150390625,-0.0064697265625,0.8946533203125
1629810624379,-0.4267578125,-0.0081787109375,0.89385986328125
1629810624379,-0.427734375,-0.00872802734375,0.89349365234375
1629810624457,-0.4259033203125,-0.01165771484375,0.889892578125
1629810624457,-0.42401123046875,-0.01007080078125,0.8924560546875
1629810624457,-0.42645263671875,-0.01007080078125,0.89581298828125
1629810624520,-0.42633056640625,-0.00994873046875,0.888671875
1629810624520,-0.427734375,-0.005859375,0.892578125
1629810624521,-0.426513671875,-0.00830078125,0.88922119140625
1629810624583,-0.42376708984375,-0.00567626953125,0.89593505859375
1629810624583,-0.4197998046875,-0.0028076171875,0.89385986328125
1629810624584,-0.421630859375,-0.00701904296875,0.89501953125
1629810624615,-0.4176025390625,-0.00762939453125,0.89862060546875
1629810624615,-0.422607421875,-0.00115966796875,0.89739990234375
1629810624616,-0.42156982421875,-0.009765625,0.90045166015625
1629810624660,-0.4263916015625,-0.01104736328125,0.89849853515625
1629810624660,-0.42095947265625,-0.00909423828125,0.89697265625
1629810624660,-0.4212646484375,-0.0146484375,0.89898681640625
1629810624835,-0.4210205078125,-0.01220703125,0.89508056640625
1629810624837,-0.4210205078125,-0.0130615234375,0.8958740234375
1629810624840,-0.4205322265625,-0.01605224609375,0.89794921875
1629810624865,-0.42327880859375,-0.0108642578125,0.89544677734375
1629810624865,-0.4208984375,-0.00982666015625,0.89691162109375
1629810624865,-0.42584228515625,-0.0089111328125,0.89678955078125
1629810624881,-0.423095703125,-0.0078125,0.89276123046875
1629810624881,-0.42449951171875,-0.007568359375,0.89373779296875
1629810624881,-0.4251708984375,-0.01007080078125,0.89569091796875
1629810624882,-0.42608642578125,-0.01177978515625,0.89013671875
1629810624882,-0.42279052734375,-0.01080322265625,0.8974609375
1629810624884,-0.42596435546875,-0.01171875,0.90032958984375
1629810625006,-0.42291259765625,-0.0101318359375,0.89532470703125
1629810625022,-0.423828125,-0.00982666015625,0.89459228515625
1629810625023,-0.42730712890625,-0.0107421875,0.89825439453125
1629810625039,-0.42901611328125,-0.01580810546875,0.896728515625
1629810625041,-0.4268798828125,-0.01702880859375,0.8927001953125
1629810625056,-0.42578125,-0.00946044921875,0.8919677734375
1629810625070,-0.42669677734375,-0.00958251953125,0.89080810546875
1629810625070,-0.4212646484375,-0.0115966796875,0.89422607421875
1629810625071,-0.4268798828125,-0.01214599609375,0.88787841796875
1629810625132,-0.42266845703125,-0.0052490234375,0.89825439453125
1629810625132,-0.4237060546875,-0.00921630859375,0.89996337890625
1629810625133,-0.425048828125,-0.0059814453125,0.89813232421875
1629810625163,-0.4205322265625,-0.00823974609375,0.8970947265625
1629810625164,-0.419677734375,-0.0076904296875,0.89971923828125
1629810625178,-0.4205322265625,-0.01068115234375,0.8955078125
1629810625241,-0.4183349609375,-0.012939453125,0.8939208984375
1629810625241,-0.42156982421875,-0.0150146484375,0.8922119140625
1629810625242,-0.42034912109375,-0.01617431640625,0.8973388671875
1629810625321,-0.4197998046875,-0.01324462890625,0.90020751953125
1629810625321,-0.42529296875,-0.01470947265625,0.896240234375
1629810625321,-0.4224853515625,-0.0125732421875,0.8907470703125
1629810625414,-0.4219970703125,-0.0111083984375,0.8968505859375
1629810625414,-0.42462158203125,-0.00860595703125,0.892578125
1629810625414,-0.425048828125,-0.0126953125,0.8994140625
1629810625494,-0.424072265625,-0.00927734375,0.89093017578125
1629810625494,-0.421142578125,-0.0107421875,0.8936767578125
1629810625494,-0.42431640625,-0.01043701171875,0.8934326171875
1629810625495,-0.42327880859375,-0.0125732421875,0.89404296875
1629810625495,-0.42572021484375,-0.01434326171875,0.89410400390625
1629810625496,-0.42559814453125,-0.00921630859375,0.8944091796875
1629810625558,-0.42425537109375,-0.01007080078125,0.89520263671875
1629810625558,-0.42510986328125,-0.01312255859375,0.8939208984375
1629810625558,-0.42425537109375,-0.0093994140625,0.8924560546875
1629810625636,-0.423828125,-0.00341796875,0.8914794921875
1629810625636,-0.42388916015625,-0.00445556640625,0.89215087890625
1629810625636,-0.42376708984375,-0.0054931640625,0.892333984375
1629810625715,-0.42535400390625,-0.00421142578125,0.8961181640625
1629810625715,-0.4251708984375,-0.010498046875,0.8944091796875
1629810625715,-0.4273681640625,-0.013671875,0.895263671875
1629810625715,-0.4228515625,-0.0128173828125,0.89532470703125
1629810625715,-0.4267578125,-0.0078125,0.8953857421875
1629810625715,-0.422119140625,-0.01348876953125,0.89508056640625
1629810625793,-0.42352294921875,-0.01318359375,0.897216796875
1629810625793,-0.4249267578125,-0.01239013671875,0.8961181640625
1629810625793,-0.42169189453125,-0.01025390625,0.89520263671875
1629810625980,-0.4241943359375,-0.00762939453125,0.8941650390625
1629810625980,-0.4227294921875,-0.00732421875,0.894287109375
1629810625980,-0.4210205078125,-0.00714111328125,0.8970947265625
1629810626043,-0.41973876953125,-0.00897216796875,0.8946533203125
1629810626044,-0.42047119140625,-0.00872802734375,0.8974609375
1629810626044,-0.42437744140625,-0.0091552734375,0.89569091796875
1629810626138,-0.4215087890625,-0.0107421875,0.8973388671875
1629810626138,-0.42034912109375,-0.0106201171875,0.8948974609375
1629810626138,-0.4215087890625,-0.00616455078125,0.89556884765625
1629810626170,-0.4234619140625,-0.010498046875,0.89617919921875
1629810626185,-0.42138671875,-0.0096435546875,0.8956298828125
1629810626185,-0.42547607421875,-0.00860595703125,0.89801025390625
1629810626216,-0.419189453125,-0.01043701171875,0.89300537109375
1629810626216,-0.42474365234375,-0.01263427734375,0.89727783203125
1629810626216,-0.4229736328125,-0.0181884765625,0.8975830078125
1629810626276,-0.416259765625,-0.01251220703125,0.89605712890625
1629810626276,-0.41754150390625,-0.00469970703125,0.90264892578125
1629810626276,-0.41485595703125,-0.01007080078125,0.89208984375
1629810626276,-0.4176025390625,-0.0052490234375,0.9014892578125
1629810626276,-0.4171142578125,-0.01226806640625,0.89874267578125
1629810626276,-0.41802978515625,-0.0079345703125,0.90081787109375
1629810626339,-0.41949462890625,-0.01202392578125,0.90216064453125
1629810626339,-0.4195556640625,-0.0079345703125,0.8997802734375
1629810626339,-0.4190673828125,-0.01123046875,0.8984375
1629810626401,-0.421630859375,-0.0115966796875,0.89459228515625
1629810626401,-0.41448974609375,-0.01080322265625,0.8929443359375
1629810626401,-0.42083740234375,-0.00982666015625,0.8955078125
1629810626433,-0.42547607421875,-0.01287841796875,0.90020751953125
1629810626433,-0.42523193359375,-0.008544921875,0.89361572265625
1629810626433,-0.41656494140625,-0.01043701171875,0.89886474609375
1629810626511,-0.419921875,-0.011474609375,0.89788818359375
1629810626511,-0.42236328125,-0.0096435546875,0.8956298828125
1629810626511,-0.41986083984375,-0.01324462890625,0.89434814453125
1629810626589,-0.4217529296875,-0.00927734375,0.89642333984375
1629810626589,-0.41912841796875,-0.0162353515625,0.89642333984375
1629810626589,-0.42218017578125,-0.0115966796875,0.8944091796875
1629810626604,-0.4212646484375,-0.00860595703125,0.89190673828125
1629810626604,-0.42242431640625,-0.00958251953125,0.89312744140625
1629810626604,-0.4227294921875,-0.01220703125,0.89447021484375
1629810626729,-0.422607421875,-0.0089111328125,0.89410400390625
1629810626729,-0.42230224609375,-0.00897216796875,0.89617919921875
1629810626729,-0.42333984375,-0.0078125,0.896240234375
1629810626777,-0.42059326171875,-0.0050048828125,0.89410400390625
1629810626777,-0.42059326171875,0.00177001953125,0.8955078125
1629810626777,-0.42095947265625,0.00189208984375,0.89520263671875
1629810626793,-0.4200439453125,-0.00335693359375,0.89990234375
1629810626794,-0.4229736328125,0.00213623046875,0.8963623046875
1629810626796,-0.4210205078125,-0.00811767578125,0.89752197265625
1629810626806,-0.420654296875,-0.0130615234375,0.8978271484375
1629810626822,-0.421630859375,-0.0147705078125,0.8975830078125
1629810626822,-0.4202880859375,-0.01751708984375,0.8968505859375
1629810626853,-0.42083740234375,-0.00775146484375,0.898681640625
1629810626854,-0.42340087890625,-0.01214599609375,0.89862060546875
1629810626854,-0.42169189453125,-0.01568603515625,0.89453125
1629810626892,-0.4227294921875,-0.00750732421875,0.89532470703125
1629810626892,-0.425537109375,-0.0076904296875,0.89605712890625
1629810626892,-0.424560546875,-0.01202392578125,0.8939208984375
1629810626986,-0.42156982421875,-0.00909423828125,0.89434814453125
1629810626986,-0.42218017578125,-0.00714111328125,0.8948974609375
1629810626986,-0.424560546875,-0.00787353515625,0.8963623046875
1629810627095,-0.42462158203125,-0.009521484375,0.89617919921875
1629810627095,-0.42529296875,-0.0059814453125,0.894775390625
1629810627095,-0.426025390625,-0.00982666015625,0.8895263671875
1629810627158,-0.42413330078125,-0.01007080078125,0.89093017578125
1629810627173,-0.42669677734375,-0.010498046875,0.8944091796875
1629810627173,-0.4263916015625,-0.01104736328125,0.89471435546875
1629810627205,-0.42242431640625,-0.0072021484375,0.8958740234375
1629810627205,-0.42254638671875,-0.0106201171875,0.89990234375
1629810627220,-0.42236328125,-0.0068359375,0.89208984375
1629810627267,-0.421630859375,-0.0118408203125,0.89813232421875
1629810627267,-0.4208984375,-0.00506591796875,0.89959716796875
1629810627267,-0.41961669921875,-0.00860595703125,0.8994140625
1629810627299,-0.42352294921875,-0.0098876953125,0.89837646484375
1629810627299,-0.425048828125,-0.01153564453125,0.90234375
1629810627299,-0.42083740234375,-0.00775146484375,0.89825439453125
1629810627325,-0.42193603515625,-0.01129150390625,0.89404296875
1629810627340,-0.42462158203125,-0.00811767578125,0.895263671875
1629810627340,-0.4249267578125,-0.0113525390625,0.89227294921875
1629810627372,-0.42181396484375,-0.0087890625,0.8948974609375
1629810627372,-0.42291259765625,-0.008056640625,0.89288330078125
1629810627372,-0.42462158203125,-0.01318359375,0.8973388671875
1629810627434,-0.4259033203125,-0.00970458984375,0.89642333984375
1629810627434,-0.42718505859375,-0.010009765625,0.8907470703125
1629810627434,-0.42681884765625,-0.0101318359375,0.89398193359375
1629810627668,-0.42266845703125,-0.010498046875,0.89532470703125
1629810627668,-0.42266845703125,-0.01300048828125,0.89556884765625
1629810627668,-0.42926025390625,-0.0123291015625,0.89678955078125
1629810627668,-0.4229736328125,-0.01080322265625,0.895751953125
1629810627668,-0.42510986328125,-0.01239013671875,0.89373779296875
1629810627668,-0.42681884765625,-0.01214599609375,0.89398193359375
1629810627700,-0.42144775390625,-0.00408935546875,0.89422607421875
1629810627700,-0.426025390625,-0.00872802734375,0.8917236328125
1629810627700,-0.42742919921875,-0.006103515625,0.89581298828125
1629810627700,-0.4246826171875,-0.002685546875,0.8924560546875
1629810627700,-0.42498779296875,-0.00384521484375,0.89105224609375
1629810627700,-0.42486572265625,-0.0126953125,0.8936767578125
1629810627809,-0.422607421875,-0.00677490234375,0.8948974609375
1629810627810,-0.422119140625,-0.00390625,0.89544677734375
1629810627810,-0.42425537109375,-0.00811767578125,0.8978271484375
1629810627811,-0.42132568359375,-0.01409912109375,0.89825439453125
1629810627812,-0.42547607421875,-0.01153564453125,0.89666748046875
1629810627822,-0.4249267578125,-0.01251220703125,0.89990234375
1629810627876,-0.422607421875,-0.0113525390625,0.89715576171875
1629810627876,-0.422119140625,-0.01123046875,0.89404296875
1629810627876,-0.4273681640625,-0.01153564453125,0.89385986328125
1629810627922,-0.42034912109375,-0.00970458984375,0.89794921875
1629810627922,-0.42547607421875,-0.0120849609375,0.8963623046875
1629810627922,-0.42327880859375,-0.011474609375,0.89569091796875
1629810627969,-0.42462158203125,-0.008056640625,0.89373779296875
1629810627969,-0.425537109375,-0.00537109375,0.8951416015625
1629810627985,-0.4251708984375,-0.00830078125,0.892822265625
1629810628016,-0.4267578125,-0.00921630859375,0.8953857421875
1629810628016,-0.4295654296875,-0.0111083984375,0.89447021484375
1629810628016,-0.427978515625,-0.01220703125,0.88641357421875
1629810628079,-0.4290771484375,-0.015380859375,0.88922119140625
1629810628094,-0.4290771484375,-0.00836181640625,0.887451171875
1629810628094,-0.42633056640625,-0.0052490234375,0.8868408203125
1629810628172,-0.42291259765625,-0.00885009765625,0.89111328125
1629810628172,-0.4248046875,-0.004150390625,0.89910888671875
1629810628172,-0.42742919921875,-0.01007080078125,0.89739990234375
1629810628282,-0.42401123046875,-0.0062255859375,0.89923095703125
1629810628282,-0.42291259765625,-0.0037841796875,0.89947509765625
1629810628282,-0.42413330078125,-0.00469970703125,0.90057373046875
1629810628313,-0.424560546875,-0.0120849609375,0.89453125
1629810628313,-0.42572021484375,-0.00885009765625,0.89581298828125
1629810628313,-0.4241943359375,-0.0113525390625,0.8909912109375
1629810628313,-0.42626953125,-0.00994873046875,0.8946533203125
1629810628313,-0.4217529296875,-0.01153564453125,0.89849853515625
1629810628313,-0.41986083984375,-0.0120849609375,0.8890380859375
1629810628375,-0.426513671875,-0.01318359375,0.8970947265625
1629810628375,-0.42816162109375,-0.0064697265625,0.89398193359375
1629810628375,-0.42578125,-0.0128173828125,0.89599609375
1629810628454,-0.42120361328125,-0.01019287109375,0.892333984375
1629810628454,-0.4271240234375,-0.009033203125,0.894287109375
1629810628454,-0.423583984375,-0.0115966796875,0.89190673828125
1629810628500,-0.42718505859375,-0.01104736328125,0.89508056640625
1629810628500,-0.4227294921875,-0.00848388671875,0.89306640625
1629810628500,-0.42864990234375,-0.0068359375,0.8939208984375
1629810628563,-0.42340087890625,-0.0078125,0.8931884765625
1629810628563,-0.4212646484375,-0.00921630859375,0.89422607421875
1629810628563,-0.423095703125,-0.00787353515625,0.89349365234375
1629810628625,-0.42633056640625,-0.00689697265625,0.8968505859375
1629810628625,-0.42156982421875,-0.00311279296875,0.8968505859375
1629810628625,-0.42388916015625,-0.0037841796875,0.8944091796875
1629810628704,-0.42425537109375,-0.0047607421875,0.8955078125
1629810628704,-0.4278564453125,-0.00048828125,0.8935546875
1629810628704,-0.42413330078125,-0.00042724609375,0.89642333984375
1629810628735,-0.42315673828125,-0.01055908203125,0.89764404296875
1629810628735,-0.423095703125,-0.00653076171875,0.89984130859375
1629810628735,-0.421875,-0.01324462890625,0.894287109375
1629810628844,-0.4234619140625,-0.0118408203125,0.8953857421875
1629810628844,-0.42218017578125,-0.01318359375,0.89227294921875
1629810628844,-0.4271240234375,-0.01318359375,0.89501953125
1629810628891,-0.42236328125,-0.0076904296875,0.89447021484375
1629810628891,-0.42474365234375,-0.00958251953125,0.89508056640625
1629810628891,-0.42474365234375,-0.01385498046875,0.892333984375
1629810628954,-0.42413330078125,-0.00750732421875,0.8973388671875
1629810628959,-0.42242431640625,-0.00799560546875,0.895751953125
1629810628959,-0.422119140625,-0.00830078125,0.8963623046875
1629810628990,-0.42108154296875,-0.00494384765625,0.89569091796875
1629810628990,-0.42535400390625,-0.0057373046875,0.89447021484375
1629810628990,-0.42095947265625,-0.0074462890625,0.89544677734375
1629810629021,-0.42303466796875,-0.008544921875,0.89453125
1629810629021,-0.42266845703125,-0.0072021484375,0.89447021484375
1629810629021,-0.4183349609375,-0.00537109375,0.89752197265625
1629810629130,-0.4229736328125,-0.0093994140625,0.89581298828125
1629810629130,-0.42486572265625,-0.01300048828125,0.89202880859375
1629810629130,-0.42352294921875,-0.0098876953125,0.8876953125
1629810629130,-0.42706298828125,-0.0181884765625,0.8936767578125
1629810629130,-0.42138671875,-0.01007080078125,0.89300537109375
1629810629130,-0.42437744140625,-0.00921630859375,0.89483642578125
1629810629209,-0.41900634765625,-0.0086669921875,0.90093994140625
1629810629209,-0.42169189453125,-0.009521484375,0.89520263671875
1629810629209,-0.4208984375,-0.00604248046875,0.90203857421875
1629810629271,-0.419677734375,-0.006591796875,0.89984130859375
1629810629271,-0.41912841796875,-0.0079345703125,0.9013671875
1629810629271,-0.42413330078125,-0.010986328125,0.89703369140625
1629810629349,-0.421630859375,-0.01153564453125,0.8941650390625
1629810629349,-0.42498779296875,-0.01025390625,0.89739990234375
1629810629349,-0.41864013671875,-0.01495361328125,0.89447021484375
1629810629399,-0.4212646484375,-0.0150146484375,0.8963623046875
1629810629399,-0.4229736328125,-0.0137939453125,0.8978271484375
1629810629399,-0.4208984375,-0.01300048828125,0.8955078125
1629810629446,-0.42132568359375,-0.009765625,0.89434814453125
1629810629446,-0.42547607421875,-0.01068115234375,0.89935302734375
1629810629446,-0.42352294921875,-0.0135498046875,0.8994140625
1629810629524,-0.42578125,-0.00848388671875,0.89581298828125
1629810629524,-0.42181396484375,-0.00994873046875,0.8922119140625
1629810629524,-0.4232177734375,-0.01397705078125,0.89093017578125
1629810629603,-0.4244384765625,-0.011474609375,0.8973388671875
1629810629603,-0.42474365234375,-0.0096435546875,0.8922119140625
1629810629603,-0.42352294921875,-0.01165771484375,0.89501953125
1629810629603,-0.4224853515625,-0.0140380859375,0.89508056640625
1629810629603,-0.42254638671875,-0.0108642578125,0.89361572265625
1629810629603,-0.425048828125,-0.01165771484375,0.89306640625
1629810629664,-0.42034912109375,-0.00726318359375,0.8963623046875
1629810629680,-0.42120361328125,-0.005126953125,0.89666748046875
1629810629680,-0.42120361328125,-0.004638671875,0.8958740234375
1629810629742,-0.41864013671875,-0.00543212890625,0.89886474609375
1629810629742,-0.41876220703125,-0.006103515625,0.89404296875
1629810629742,-0.4200439453125,-0.00970458984375,0.896240234375
1629810629946,-0.42181396484375,-0.01708984375,0.8973388671875
1629810629946,-0.42144775390625,-0.01104736328125,0.8973388671875
1629810629946,-0.41650390625,-0.010498046875,0.89776611328125
1629810630102,-0.41973876953125,-0.0152587890625,0.89703369140625
1629810630102,-0.4195556640625,-0.00579833984375,0.89300537109375
1629810630102,-0.42059326171875,-0.01287841796875,0.89794921875
1629810630102,-0.4212646484375,-0.01220703125,0.89697265625
1629810630102,-0.42169189453125,-0.00592041015625,0.896484375
1629810630102,-0.4227294921875,-0.01190185546875,0.8955078125
1629810630102,-0.4210205078125,-0.00958251953125,0.89874267578125
1629810630102,-0.42279052734375,-0.01104736328125,0.89581298828125
1629810630117,-0.421875,-0.00482177734375,0.89691162109375
1629810630260,-0.4217529296875,-0.01220703125,0.896240234375
1629810630260,-0.41778564453125,-0.01080322265625,0.89764404296875
1629810630260,-0.42169189453125,-0.0093994140625,0.894287109375
1629810630260,-0.42376708984375,-0.01190185546875,0.89666748046875
1629810630275,-0.41986083984375,-0.0118408203125,0.89666748046875
1629810630275,-0.422607421875,-0.01348876953125,0.90142822265625
1629810630291,-0.42767333984375,-0.01751708984375,0.89306640625
1629810630291,-0.422119140625,-0.00762939453125,0.89404296875
1629810630291,-0.42547607421875,-0.01556396484375,0.89544677734375
1629810630338,-0.4227294921875,-0.00933837890625,0.89044189453125
1629810630338,-0.42022705078125,-0.013427734375,0.889892578125
1629810630354,-0.42388916015625,-0.0115966796875,0.8912353515625
1629810630431,-0.4208984375,-0.0098876953125,0.896728515625
1629810630431,-0.4210205078125,-0.005859375,0.89898681640625
1629810630431,-0.42108154296875,-0.00567626953125,0.8990478515625
1629810630589,-0.42095947265625,-0.010498046875,0.8985595703125
1629810630589,-0.42181396484375,-0.01177978515625,0.89691162109375
1629810630589,-0.4176025390625,-0.00836181640625,0.89862060546875
1629810630605,-0.419189453125,-0.01629638671875,0.89892578125
1629810630621,-0.41802978515625,-0.01373291015625,0.89617919921875
1629810630621,-0.42132568359375,-0.0150146484375,0.89617919921875
1629810630668,-0.4205322265625,-0.01324462890625,0.89794921875
1629810630668,-0.420166015625,-0.01104736328125,0.8946533203125
1629810630683,-0.41900634765625,-0.01641845703125,0.894775390625
1629810630808,-0.42022705078125,-0.01007080078125,0.89666748046875
1629810630824,-0.4190673828125,-0.015625,0.89874267578125
1629810630824,-0.41937255859375,-0.01348876953125,0.894287109375
1629810630824,-0.42138671875,-0.0096435546875,0.9010009765625
1629810630824,-0.41802978515625,-0.01177978515625,0.8935546875
1629810630824,-0.42156982421875,-0.00750732421875,0.89459228515625
1629810631042,-0.42431640625,-0.01104736328125,0.8955078125
1629810631042,-0.4228515625,-0.00946044921875,0.89404296875
1629810631042,-0.42333984375,-0.0107421875,0.89862060546875
1629810631042,-0.41790771484375,-0.01202392578125,0.89630126953125
1629810631042,-0.4212646484375,-0.01141357421875,0.8941650390625
1629810631042,-0.42303466796875,-0.01080322265625,0.89691162109375
1629810631105,-0.41796875,-0.00299072265625,0.8948974609375
1629810631121,-0.41943359375,-0.01385498046875,0.898681640625
1629810631121,-0.423828125,-0.005615234375,0.89764404296875
1629810631121,-0.421875,-0.004638671875,0.898193359375
1629810631121,-0.4212646484375,-0.00732421875,0.89605712890625
1629810631121,-0.42047119140625,-0.0064697265625,0.89862060546875
1629810631121,-0.42181396484375,-0.0142822265625,0.897705078125
1629810631121,-0.41754150390625,-0.002197265625,0.896484375
1629810631136,-0.4205322265625,-0.01141357421875,0.8988037109375
1629810631199,-0.415771484375,-0.01171875,0.8984375
1629810631199,-0.4207763671875,-0.01568603515625,0.89556884765625
1629810631199,-0.42279052734375,-0.013427734375,0.900146484375
1629810631199,-0.42169189453125,-0.01092529296875,0.89971923828125
1629810631214,-0.4200439453125,-0.01153564453125,0.89691162109375
1629810631214,-0.41961669921875,-0.0126953125,0.89630126953125
1629810631312,-0.41802978515625,-0.0150146484375,0.8966064453125
1629810631312,-0.42083740234375,-0.01580810546875,0.89801025390625
1629810631312,-0.41998291015625,-0.0137939453125,0.89508056640625
1629810631312,-0.42279052734375,-0.00762939453125,0.89617919921875
1629810631312,-0.42010498046875,-0.012939453125,0.89617919921875
1629810631312,-0.4212646484375,-0.01727294921875,0.89532470703125
1629810631343,-0.42047119140625,-0.01470947265625,0.89776611328125
1629810631343,-0.42376708984375,-0.00634765625,0.90057373046875
1629810631343,-0.42401123046875,-0.00830078125,0.891845703125
1629810631343,-0.4254150390625,-0.010009765625,0.89361572265625
1629810631343,-0.42218017578125,-0.00579833984375,0.8929443359375
1629810631343,-0.419677734375,-0.00677490234375,0.8968505859375
1629810631343,-0.425048828125,-0.01513671875,0.89056396484375
1629810631343,-0.422119140625,-0.006591796875,0.89532470703125
1629810631343,-0.42340087890625,-0.00885009765625,0.8875732421875
1629810631359,-0.41925048828125,-0.010498046875,0.89739990234375
1629810631359,-0.41705322265625,-0.01171875,0.90032958984375
1629810631359,-0.4190673828125,-0.01190185546875,0.8970947265625
1629810631453,-0.4185791015625,-0.01275634765625,0.89801025390625
1629810631453,-0.4161376953125,-0.013916015625,0.898681640625
1629810631453,-0.41851806640625,-0.01104736328125,0.89349365234375
1629810631453,-0.42083740234375,-0.00799560546875,0.90087890625
1629810631468,-0.421875,-0.01202392578125,0.9013671875
1629810631468,-0.419677734375,-0.011474609375,0.90216064453125
1629810631593,-0.419921875,-0.012451171875,0.90020751953125
1629810631593,-0.42132568359375,-0.0101318359375,0.8983154296875
1629810631593,-0.41455078125,-0.01214599609375,0.89129638671875
1629810631609,-0.421142578125,-0.0087890625,0.8992919921875
1629810631624,-0.42230224609375,-0.008544921875,0.89837646484375
1629810631624,-0.4234619140625,-0.013427734375,0.90179443359375
1629810631718,-0.4263916015625,-0.0126953125,0.8951416015625
1629810631718,-0.4205322265625,-0.01507568359375,0.89556884765625
1629810631718,-0.42388916015625,-0.015625,0.8946533203125
1629810631734,-0.4249267578125,-0.0142822265625,0.89190673828125
1629810631734,-0.4249267578125,-0.0115966796875,0.89263916015625
1629810631734,-0.42510986328125,-0.01055908203125,0.8909912109375
1629810631765,-0.42340087890625,-0.013671875,0.892578125
1629810631765,-0.4267578125,-0.0062255859375,0.8958740234375
1629810631765,-0.42425537109375,-0.01190185546875,0.8956298828125
1629810631906,-0.42333984375,0.0003662109375,0.89361572265625
1629810631906,-0.423583984375,-0.00531005859375,0.8936767578125
1629810631906,-0.42266845703125,-0.005859375,0.8929443359375
1629810631953,-0.42474365234375,-0.0098876953125,0.8966064453125
1629810631953,-0.4210205078125,-0.00537109375,0.89715576171875
1629810631968,-0.42755126953125,-0.003173828125,0.895263671875
1629810631984,-0.42315673828125,-0.01751708984375,0.89483642578125
1629810631984,-0.4246826171875,-0.01434326171875,0.8990478515625
1629810631984,-0.42303466796875,-0.01287841796875,0.89697265625
1629810632031,-0.42755126953125,-0.01416015625,0.8985595703125
1629810632031,-0.4217529296875,-0.011962890625,0.89434814453125
1629810632046,-0.42266845703125,-0.01177978515625,0.8973388671875
1629810632140,-0.42376708984375,-0.01226806640625,0.8935546875
1629810632156,-0.41937255859375,-0.01171875,0.8955078125
1629810632156,-0.419677734375,-0.0086669921875,0.8948974609375
1629810632265,-0.4237060546875,-0.011962890625,0.89337158203125
1629810632265,-0.42132568359375,-0.01275634765625,0.8963623046875
1629810632266,-0.42181396484375,-0.0113525390625,0.8968505859375
1629810632282,-0.42230224609375,-0.01068115234375,0.89654541015625
1629810632282,-0.4244384765625,-0.0152587890625,0.88916015625
1629810632282,-0.42388916015625,-0.01177978515625,0.8922119140625
1629810632313,-0.42095947265625,-0.0087890625,0.89569091796875
1629810632313,-0.42425537109375,-0.015380859375,0.89111328125
1629810632313,-0.4195556640625,-0.00738525390625,0.892578125
1629810632313,-0.42022705078125,-0.01251220703125,0.90130615234375
1629810632313,-0.419189453125,-0.009765625,0.900390625
1629810632313,-0.4263916015625,-0.0125732421875,0.89373779296875
1629810632376,-0.421142578125,-0.01007080078125,0.9022216796875
1629810632391,-0.42230224609375,-0.01019287109375,0.8988037109375
1629810632391,-0.4222412109375,-0.01055908203125,0.902099609375
1629810632423,-0.42254638671875,-0.01519775390625,0.89154052734375
1629810632423,-0.4222412109375,-0.0137939453125,0.89703369140625
1629810632423,-0.423828125,-0.01153564453125,0.895751953125
1629810632454,-0.42388916015625,-0.011474609375,0.89300537109375
1629810632454,-0.42315673828125,-0.0126953125,0.89501953125
1629810632454,-0.4232177734375,-0.0150146484375,0.8916015625
1629810632501,-0.42578125,-0.0115966796875,0.8988037109375
1629810632516,-0.42437744140625,-0.0120849609375,0.896484375
1629810632516,-0.42413330078125,-0.0130615234375,0.89788818359375
1629810632657,-0.4239501953125,-0.013671875,0.89154052734375
1629810632657,-0.42547607421875,-0.01422119140625,0.89208984375
1629810632657,-0.42608642578125,-0.009765625,0.894287109375
1629810632704,-0.42645263671875,-0.01568603515625,0.8931884765625
1629810632704,-0.42333984375,-0.015380859375,0.894775390625
1629810632719,-0.4259033203125,-0.01531982421875,0.89276123046875
1629810632719,-0.4251708984375,-0.0126953125,0.8931884765625
1629810632719,-0.42315673828125,-0.01495361328125,0.89227294921875
1629810632719,-0.4248046875,-0.0155029296875,0.8912353515625
1629810632735,-0.42462158203125,-0.008544921875,0.896240234375
1629810632735,-0.42803955078125,-0.0072021484375,0.893798828125
1629810632735,-0.4263916015625,-0.01202392578125,0.89404296875
1629810632829,-0.42230224609375,-0.00689697265625,0.8922119140625
1629810632829,-0.42071533203125,-0.010498046875,0.8983154296875
1629810632829,-0.41754150390625,-0.00982666015625,0.894775390625
1629810632829,-0.42236328125,-0.01202392578125,0.89227294921875
1629810632829,-0.419921875,-0.0123291015625,0.8984375
1629810632844,-0.42138671875,-0.0130615234375,0.90032958984375
1629810632924,-0.42022705078125,-0.0147705078125,0.8997802734375
1629810632924,-0.42108154296875,-0.0147705078125,0.89727783203125
1629810632940,-0.41986083984375,-0.01239013671875,0.89599609375
1629810632971,-0.41973876953125,-0.01190185546875,0.89898681640625
1629810632971,-0.42333984375,-0.01513671875,0.8970947265625
1629810632971,-0.42010498046875,-0.01141357421875,0.8958740234375
1629810633057,-0.4195556640625,-0.0111083984375,0.89501953125
1629810633057,-0.42327880859375,-0.01141357421875,0.89483642578125
1629810633057,-0.42059326171875,-0.01416015625,0.8929443359375
1629810633089,-0.42108154296875,-0.0115966796875,0.89483642578125
1629810633090,-0.423828125,-0.01019287109375,0.89947509765625
1629810633090,-0.4210205078125,-0.0107421875,0.8978271484375
1629810633183,-0.42547607421875,-0.009033203125,0.89874267578125
1629810633183,-0.42108154296875,-0.0089111328125,0.8956298828125
1629810633183,-0.42169189453125,-0.009765625,0.896240234375
1629810633245,-0.42608642578125,-0.00640869140625,0.890380859375
1629810633260,-0.42510986328125,-0.01068115234375,0.895263671875
1629810633261,-0.42572021484375,-0.01556396484375,0.8935546875
1629810633307,-0.41986083984375,-0.00634765625,0.8876953125
1629810633308,-0.42327880859375,-0.0111083984375,0.8935546875
1629810633308,-0.42401123046875,-0.0133056640625,0.8985595703125
1629810633354,-0.422119140625,-0.00830078125,0.8990478515625
1629810633355,-0.41864013671875,-0.00958251953125,0.90325927734375
1629810633355,-0.4217529296875,-0.00775146484375,0.89892578125
1629810633401,-0.42047119140625,-0.0074462890625,0.90106201171875
1629810633401,-0.41937255859375,-0.01202392578125,0.90130615234375
1629810633402,-0.41778564453125,-0.01226806640625,0.8992919921875
1629810633526,-0.42095947265625,-0.0189208984375,0.89599609375
1629810633526,-0.421630859375,-0.01605224609375,0.89990234375
1629810633526,-0.42041015625,-0.01611328125,0.897705078125
1629810633526,-0.4212646484375,-0.01641845703125,0.892333984375
1629810633526,-0.41851806640625,-0.017822265625,0.8978271484375
1629810633526,-0.423828125,-0.017578125,0.90020751953125
1629810633589,-0.420166015625,-0.0096435546875,0.8958740234375
1629810633589,-0.42193603515625,-0.0120849609375,0.89691162109375
1629810633589,-0.42034912109375,-0.01177978515625,0.89508056640625
1629810633696,-0.41912841796875,-0.0172119140625,0.89599609375
1629810633696,-0.41876220703125,-0.0157470703125,0.89801025390625
1629810633696,-0.41827392578125,-0.01544189453125,0.89410400390625
1629810633774,-0.4197998046875,-0.01605224609375,0.89593505859375
1629810633774,-0.4185791015625,-0.01904296875,0.89752197265625
1629810633774,-0.421875,-0.01593017578125,0.89642333984375
1629810633837,-0.42291259765625,-0.00653076171875,0.8966064453125
1629810633837,-0.41998291015625,-0.0084228515625,0.8968505859375
1629810633837,-0.41949462890625,-0.00982666015625,0.8963623046875
1629810633838,-0.4212646484375,-0.0130615234375,0.8951416015625
1629810633838,-0.4228515625,-0.01702880859375,0.896240234375
1629810633852,-0.41937255859375,-0.00689697265625,0.89630126953125
1629810633885,-0.41845703125,-0.013671875,0.89654541015625
1629810633885,-0.41790771484375,-0.01458740234375,0.89691162109375
1629810633885,-0.420654296875,-0.0084228515625,0.896728515625
1629810633995,-0.416748046875,-0.01898193359375,0.900390625
1629810633995,-0.41705322265625,-0.01513671875,0.89727783203125
1629810633997,-0.41815185546875,-0.01959228515625,0.89776611328125
1629810633997,-0.42120361328125,-0.0184326171875,0.896484375
1629810634010,-0.41595458984375,-0.01531982421875,0.9005126953125
1629810634013,-0.41888427734375,-0.0169677734375,0.8970947265625
1629810634041,-0.418701171875,-0.01507568359375,0.89813232421875
1629810634041,-0.41729736328125,-0.01104736328125,0.89739990234375
1629810634042,-0.4190673828125,-0.0137939453125,0.89703369140625
1629810634149,-0.420166015625,-0.01422119140625,0.89495849609375
1629810634149,-0.41778564453125,-0.01446533203125,0.8953857421875
1629810634149,-0.41510009765625,-0.012939453125,0.8951416015625
1629810634165,-0.41693115234375,-0.01348876953125,0.89898681640625
1629810634165,-0.41900634765625,-0.015625,0.90350341796875
1629810634166,-0.41949462890625,-0.00970458984375,0.8985595703125
1629810634290,-0.41815185546875,-0.0123291015625,0.89874267578125
1629810634290,-0.42132568359375,-0.0155029296875,0.89959716796875
1629810634290,-0.42169189453125,-0.019775390625,0.89605712890625
1629810634306,-0.422119140625,-0.012939453125,0.8919677734375
1629810634307,-0.4189453125,-0.0084228515625,0.89227294921875
1629810634309,-0.4212646484375,-0.0213623046875,0.89520263671875
1629810634375,-0.419677734375,-0.0111083984375,0.898193359375
1629810634375,-0.42333984375,-0.01300048828125,0.89202880859375
1629810634391,-0.417236328125,-0.01251220703125,0.89599609375
1629810634438,-0.421142578125,-0.01568603515625,0.8970947265625
1629810634438,-0.42047119140625,-0.01409912109375,0.900390625
1629810634438,-0.419921875,-0.0166015625,0.8984375
1629810634438,-0.41778564453125,-0.0074462890625,0.89825439453125
1629810634438,-0.41571044921875,-0.0067138671875,0.90008544921875
1629810634438,-0.41998291015625,-0.0126953125,0.900146484375
1629810634547,-0.421630859375,-0.01611328125,0.8970947265625
1629810634547,-0.4180908203125,-0.02001953125,0.89599609375
1629810634547,-0.41571044921875,-0.01373291015625,0.89739990234375
1629810634562,-0.4222412109375,-0.01580810546875,0.90142822265625
1629810634562,-0.41973876953125,-0.013671875,0.90252685546875
1629810634562,-0.42083740234375,-0.0126953125,0.90325927734375
1629810634672,-0.4183349609375,-0.01873779296875,0.89422607421875
1629810634672,-0.41656494140625,-0.0157470703125,0.89453125
1629810634672,-0.418701171875,-0.0140380859375,0.89581298828125
1629810634750,-0.41796875,-0.0155029296875,0.900146484375
1629810634750,-0.41741943359375,-0.01251220703125,0.89422607421875
1629810634750,-0.42327880859375,-0.0147705078125,0.8956298828125
1629810634750,-0.41949462890625,-0.01678466796875,0.89776611328125
1629810634750,-0.41912841796875,-0.01556396484375,0.89459228515625
1629810634750,-0.417724609375,-0.01727294921875,0.8973388671875
1629810634844,-0.41961669921875,-0.00823974609375,0.8974609375
1629810634844,-0.41595458984375,-0.00653076171875,0.89532470703125
1629810634844,-0.41943359375,-0.00714111328125,0.89654541015625
1629810634850,-0.4176025390625,-0.0052490234375,0.89300537109375
1629810634851,-0.42059326171875,-0.010498046875,0.8980712890625
1629810634851,-0.422119140625,-0.01104736328125,0.89532470703125
1629810634940,-0.4151611328125,-0.01348876953125,0.89874267578125
1629810634940,-0.423095703125,-0.01861572265625,0.90118408203125
1629810634940,-0.4188232421875,-0.01483154296875,0.90118408203125
1629810634987,-0.41864013671875,-0.019287109375,0.89923095703125
1629810634987,-0.4185791015625,-0.02008056640625,0.9017333984375
1629810634987,-0.41845703125,-0.0205078125,0.8978271484375
1629810635065,-0.4158935546875,-0.01483154296875,0.89739990234375
1629810635065,-0.41796875,-0.01531982421875,0.89898681640625
1629810635065,-0.4193115234375,-0.01287841796875,0.89776611328125
1629810635174,-0.42205810546875,-0.01397705078125,0.8970947265625
1629810635174,-0.41766357421875,-0.0126953125,0.8973388671875
1629810635174,-0.41534423828125,-0.01434326171875,0.8983154296875
1629810635174,-0.41827392578125,-0.0135498046875,0.89764404296875
1629810635174,-0.417724609375,-0.010498046875,0.895751953125
1629810635174,-0.42010498046875,-0.0135498046875,0.89642333984375
1629810635242,-0.42034912109375,-0.014892578125,0.89617919921875
1629810635242,-0.4190673828125,-0.01678466796875,0.89434814453125
1629810635242,-0.421142578125,-0.01654052734375,0.89959716796875
1629810635351,-0.4212646484375,-0.01580810546875,0.89569091796875
1629810635351,-0.424072265625,-0.016845703125,0.89544677734375
1629810635351,-0.42303466796875,-0.0166015625,0.89337158203125
1629810635411,-0.41668701171875,-0.01678466796875,0.899169921875
1629810635427,-0.41644287109375,-0.014892578125,0.89776611328125
1629810635427,-0.4178466796875,-0.01318359375,0.8985595703125
1629810635427,-0.41778564453125,-0.01409912109375,0.8970947265625
1629810635428,-0.41845703125,-0.01422119140625,0.8985595703125
1629810635428,-0.41937255859375,-0.0093994140625,0.8955078125
1629810635475,-0.4228515625,-0.0198974609375,0.8951416015625
1629810635475,-0.42022705078125,-0.0166015625,0.8983154296875
1629810635475,-0.42193603515625,-0.01849365234375,0.897216796875
1629810635552,-0.4237060546875,-0.02166748046875,0.9000244140625
1629810635552,-0.4210205078125,-0.01226806640625,0.89825439453125
1629810635554,-0.419921875,-0.01593017578125,0.8955078125
1629810635568,-0.41790771484375,-0.0157470703125,0.891845703125
1629810635568,-0.42071533203125,-0.01507568359375,0.8917236328125
1629810635568,-0.42218017578125,-0.01422119140625,0.8922119140625
1629810635629,-0.420166015625,-0.013427734375,0.89794921875
1629810635629,-0.42529296875,-0.01409912109375,0.8935546875
1629810635630,-0.42279052734375,-0.01568603515625,0.89471435546875
1629810635710,-0.42352294921875,-0.01873779296875,0.89251708984375
1629810635710,-0.42169189453125,-0.01690673828125,0.8951416015625
1629810635710,-0.42291259765625,-0.01806640625,0.894775390625
1629810635802,-0.4237060546875,-0.01446533203125,0.8912353515625
1629810635802,-0.4244384765625,-0.0191650390625,0.8907470703125
1629810635817,-0.42291259765625,-0.01678466796875,0.893798828125
1629810635890,-0.4244384765625,-0.00457763671875,0.8897705078125
1629810635890,-0.42449951171875,-0.006103515625,0.892578125
1629810635890,-0.42755126953125,-0.01123046875,0.89385986328125
1629810635890,-0.421875,-0.00604248046875,0.89581298828125
1629810635890,-0.4227294921875,-0.0067138671875,0.8914794921875
1629810635890,-0.4237060546875,-0.01611328125,0.89483642578125
1629810635969,-0.42132568359375,-0.01104736328125,0.89678955078125
1629810635969,-0.420166015625,-0.01708984375,0.89837646484375
1629810635969,-0.419189453125,-0.0145263671875,0.8983154296875
1629810636016,-0.42120361328125,-0.0203857421875,0.89764404296875
1629810636016,-0.419921875,-0.01666259765625,0.8988037109375
1629810636095,-0.42193603515625,-0.012939453125,0.89788818359375
1629810636096,-0.42205810546875,-0.0167236328125,0.898193359375
1629810636096,-0.4178466796875,-0.01385498046875,0.8963623046875
1629810636109,-0.41986083984375,-0.01715087890625,0.89849853515625
1629810636109,-0.417236328125,-0.0186767578125,0.90020751953125
1629810636110,-0.41827392578125,-0.01568603515625,0.9000244140625
1629810636159,-0.4210205078125,-0.0135498046875,0.8931884765625
1629810636159,-0.42156982421875,-0.01556396484375,0.8944091796875
1629810636159,-0.4200439453125,-0.0142822265625,0.892822265625
1629810636222,-0.42138671875,-0.0213623046875,0.8912353515625
1629810636222,-0.42095947265625,-0.0093994140625,0.89141845703125
1629810636222,-0.42584228515625,-0.01922607421875,0.89166259765625
1629810636315,-0.4189453125,-0.01092529296875,0.89349365234375
1629810636315,-0.42022705078125,-0.013671875,0.89727783203125
1629810636315,-0.41607666015625,-0.01715087890625,0.9013671875
1629810636362,-0.416748046875,-0.0123291015625,0.9034423828125
1629810636362,-0.41827392578125,-0.01336669921875,0.8985595703125
1629810636363,-0.41845703125,-0.012451171875,0.9056396484375
1629810636552,-0.4205322265625,-0.01470947265625,0.90069580078125
1629810636552,-0.42254638671875,-0.01568603515625,0.903076171875
1629810636552,-0.421630859375,-0.0184326171875,0.89459228515625
1629810636756,-0.4197998046875,-0.01861572265625,0.88629150390625
1629810636756,-0.4207763671875,-0.01837158203125,0.89111328125
1629810636756,-0.4219970703125,-0.0220947265625,0.88897705078125
1629810636834,-0.42327880859375,-0.01995849609375,0.8951416015625
1629810636834,-0.42315673828125,-0.01641845703125,0.89349365234375
1629810636834,-0.42431640625,-0.0174560546875,0.89373779296875
1629810636834,-0.42767333984375,-0.01458740234375,0.8948974609375
1629810636834,-0.42327880859375,-0.01751708984375,0.89373779296875
1629810636834,-0.4276123046875,-0.018798828125,0.8970947265625
1629810636849,-0.426025390625,-0.0177001953125,0.896484375
1629810636849,-0.422119140625,-0.01934814453125,0.8944091796875
1629810636849,-0.423828125,-0.01690673828125,0.89495849609375
1629810636881,-0.42535400390625,-0.014892578125,0.89447021484375
1629810636881,-0.42413330078125,-0.01715087890625,0.8941650390625
1629810636881,-0.4237060546875,-0.01361083984375,0.89288330078125
1629810636896,-0.42315673828125,-0.0145263671875,0.897705078125
1629810636896,-0.426513671875,-0.01336669921875,0.89630126953125
1629810636896,-0.4173583984375,-0.01416015625,0.89544677734375
1629810636896,-0.41845703125,-0.0130615234375,0.896240234375
1629810636896,-0.41961669921875,-0.01263427734375,0.89312744140625
1629810636896,-0.42041015625,-0.0107421875,0.8953857421875
1629810636912,-0.422607421875,-0.0184326171875,0.897216796875
1629810636912,-0.42041015625,-0.016357421875,0.8968505859375
1629810636912,-0.420166015625,-0.01483154296875,0.89739990234375
1629810637130,-0.417236328125,-0.018798828125,0.89727783203125
1629810637130,-0.42132568359375,-0.01812744140625,0.8974609375
1629810637130,-0.4183349609375,-0.02020263671875,0.8974609375
1629810637130,-0.42236328125,-0.01885986328125,0.89715576171875
1629810637130,-0.41864013671875,-0.01849365234375,0.8978271484375
1629810637130,-0.4189453125,-0.01995849609375,0.8966064453125
1629810637177,-0.422607421875,-0.0130615234375,0.89642333984375
1629810637182,-0.42059326171875,-0.01708984375,0.89544677734375
1629810637182,-0.41925048828125,-0.01336669921875,0.8961181640625
1629810637192,-0.419189453125,-0.01300048828125,0.89422607421875
1629810637196,-0.4183349609375,-0.0126953125,0.89404296875
1629810637196,-0.41912841796875,-0.01190185546875,0.900146484375
1629810637227,-0.42205810546875,-0.0126953125,0.89752197265625
1629810637227,-0.42218017578125,-0.01324462890625,0.8948974609375
1629810637227,-0.42510986328125,-0.02001953125,0.8975830078125
1629810637321,-0.42279052734375,-0.0201416015625,0.89337158203125
1629810637321,-0.4217529296875,-0.01275634765625,0.8896484375
1629810637336,-0.42608642578125,-0.0286865234375,0.89404296875
1629810637399,-0.414794921875,-0.0162353515625,0.8963623046875
1629810637399,-0.4185791015625,-0.01397705078125,0.89752197265625
1629810637399,-0.422607421875,-0.0194091796875,0.89202880859375
1629810637555,-0.4166259765625,-0.01153564453125,0.89923095703125
1629810637555,-0.42047119140625,-0.01080322265625,0.9022216796875
1629810637555,-0.41796875,-0.012939453125,0.9005126953125
1629810637625,-0.4208984375,-0.01556396484375,0.90032958984375
1629810637625,-0.416259765625,-0.01824951171875,0.89776611328125
1629810637625,-0.41845703125,-0.01849365234375,0.90087890625
1629810637703,-0.42279052734375,-0.01904296875,0.8994140625
1629810637703,-0.4130859375,-0.02178955078125,0.89105224609375
1629810637703,-0.41790771484375,-0.01922607421875,0.89599609375
1629810637703,-0.416259765625,-0.01763916015625,0.89898681640625
1629810637703,-0.421142578125,-0.01629638671875,0.89971923828125
1629810637703,-0.4195556640625,-0.02020263671875,0.89495849609375
1629810637718,-0.42205810546875,-0.01898193359375,0.894775390625
1629810637718,-0.4193115234375,-0.016357421875,0.8944091796875
1629810637718,-0.422607421875,-0.010986328125,0.8956298828125
1629810637765,-0.4183349609375,-0.0211181640625,0.89520263671875
1629810637765,-0.4229736328125,-0.0191650390625,0.8948974609375
1629810637765,-0.41729736328125,-0.01849365234375,0.8951416015625
1629810637765,-0.41937255859375,-0.02099609375,0.8956298828125
1629810637765,-0.42034912109375,-0.0179443359375,0.89459228515625
1629810637765,-0.42279052734375,-0.0179443359375,0.8951416015625
1629810637781,-0.4228515625,-0.01214599609375,0.89276123046875
1629810637781,-0.42535400390625,-0.0185546875,0.89453125
1629810637781,-0.41943359375,-0.02020263671875,0.89617919921875
1629810637985,-0.4212646484375,-0.01513671875,0.896240234375
1629810637985,-0.42218017578125,-0.011962890625,0.8951416015625
1629810637985,-0.42120361328125,-0.011474609375,0.898193359375
1629810638000,-0.42279052734375,-0.02239990234375,0.8975830078125
1629810638000,-0.42181396484375,-0.015380859375,0.89605712890625
1629810638000,-0.41778564453125,-0.0198974609375,0.89794921875
1629810638016,-0.4200439453125,-0.02215576171875,0.89617919921875
1629810638016,-0.4208984375,-0.0233154296875,0.8980712890625
1629810638016,-0.418212890625,-0.02337646484375,0.89825439453125
1629810638047,-0.419189453125,-0.01922607421875,0.899169921875
1629810638047,-0.418701171875,-0.02166748046875,0.8936767578125
1629810638047,-0.41851806640625,-0.02008056640625,0.899658203125
1629810638156,-0.41741943359375,-0.01904296875,0.8974609375
1629810638156,-0.4189453125,-0.017822265625,0.89910888671875
1629810638172,-0.41607666015625,-0.0162353515625,0.89837646484375
1629810638172,-0.4150390625,-0.01776123046875,0.8992919921875
1629810638172,-0.4171142578125,-0.0196533203125,0.898193359375
1629810638172,-0.42132568359375,-0.0216064453125,0.899658203125
1629810638203,-0.416015625,-0.01666259765625,0.89697265625
1629810638203,-0.42193603515625,-0.01800537109375,0.896728515625
1629810638203,-0.41656494140625,-0.0191650390625,0.89837646484375
1629810638331,-0.41961669921875,-0.0264892578125,0.89501953125
1629810638331,-0.420654296875,-0.0206298828125,0.89654541015625
1629810638331,-0.42254638671875,-0.02099609375,0.8948974609375
1629810638378,-0.41632080078125,-0.01971435546875,0.9017333984375
1629810638378,-0.4166259765625,-0.02197265625,0.893798828125
1629810638378,-0.41845703125,-0.0194091796875,0.89166259765625
1629810638378,-0.420654296875,-0.01312255859375,0.9036865234375
1629810638378,-0.4185791015625,-0.0194091796875,0.89642333984375
1629810638393,-0.417236328125,-0.01336669921875,0.9022216796875
1629810638471,-0.41790771484375,-0.01409912109375,0.90045166015625
1629810638471,-0.4127197265625,-0.01202392578125,0.90435791015625
1629810638471,-0.41705322265625,-0.017333984375,0.900146484375
1629810638518,-0.41802978515625,-0.0218505859375,0.89642333984375
1629810638518,-0.41796875,-0.02197265625,0.895751953125
1629810638518,-0.41961669921875,-0.020263671875,0.89111328125
1629810638518,-0.41583251953125,-0.0196533203125,0.8974609375
1629810638518,-0.416748046875,-0.0196533203125,0.8944091796875
1629810638518,-0.42108154296875,-0.02642822265625,0.8980712890625
1629810638581,-0.416259765625,-0.02252197265625,0.90106201171875
1629810638581,-0.415771484375,-0.01483154296875,0.89935302734375
1629810638581,-0.41973876953125,-0.0203857421875,0.898681640625
1629810638612,-0.41839599609375,-0.02001953125,0.8970947265625
1629810638612,-0.42132568359375,-0.0203857421875,0.89837646484375
1629810638628,-0.4215087890625,-0.01959228515625,0.89764404296875
1629810638721,-0.41827392578125,-0.0189208984375,0.8974609375
1629810638721,-0.4176025390625,-0.0206298828125,0.89666748046875
1629810638721,-0.4140625,-0.0194091796875,0.897705078125
1629810638955,-0.41949462890625,-0.0096435546875,0.89508056640625
1629810638955,-0.42120361328125,-0.02081298828125,0.899658203125
1629810638955,-0.4183349609375,-0.01336669921875,0.89453125
1629810638955,-0.4188232421875,-0.0145263671875,0.892822265625
1629810638955,-0.4244384765625,-0.01629638671875,0.899169921875
1629810638971,-0.41912841796875,-0.01971435546875,0.8961181640625
1629810638987,-0.41717529296875,-0.01470947265625,0.8980712890625
1629810638987,-0.41741943359375,-0.01165771484375,0.8944091796875
1629810638987,-0.41790771484375,-0.0135498046875,0.8948974609375
1629810639002,-0.41748046875,-0.0213623046875,0.89935302734375
1629810639002,-0.41705322265625,-0.02325439453125,0.89898681640625
1629810639002,-0.41522216796875,-0.02252197265625,0.89801025390625
1629810639081,-0.41680908203125,-0.0186767578125,0.898681640625
1629810639081,-0.417724609375,-0.01995849609375,0.89715576171875
1629810639081,-0.4154052734375,-0.02191162109375,0.89691162109375
1629810639081,-0.41644287109375,-0.02197265625,0.89990234375
1629810639081,-0.41552734375,-0.023193359375,0.89892578125
1629810639096,-0.4197998046875,-0.01849365234375,0.899169921875
1629810639143,-0.41546630859375,-0.01678466796875,0.8997802734375
1629810639143,-0.419677734375,-0.0177001953125,0.8975830078125
1629810639143,-0.41693115234375,-0.01800537109375,0.89801025390625
1629810639274,-0.419677734375,-0.01837158203125,0.8985595703125
1629810639274,-0.4173583984375,-0.01617431640625,0.89569091796875
1629810639274,-0.419921875,-0.01605224609375,0.8948974609375
1629810639312,-0.42266845703125,-0.01898193359375,0.89532470703125
1629810639312,-0.417724609375,-0.01812744140625,0.89508056640625
1629810639312,-0.420166015625,-0.02398681640625,0.8941650390625
1629810639421,-0.42059326171875,-0.0234375,0.890869140625
1629810639421,-0.4141845703125,-0.01336669921875,0.893310546875
1629810639421,-0.41693115234375,-0.0142822265625,0.9000244140625
1629810639452,-0.4151611328125,-0.017333984375,0.90032958984375
1629810639452,-0.41705322265625,-0.01934814453125,0.9029541015625
1629810639452,-0.4146728515625,-0.01788330078125,0.9014892578125
1629810639468,-0.4176025390625,-0.01849365234375,0.89788818359375
1629810639468,-0.41851806640625,-0.01739501953125,0.90087890625
1629810639468,-0.4136962890625,-0.015625,0.89990234375
1629810639546,-0.4180908203125,-0.01605224609375,0.89544677734375
1629810639546,-0.41741943359375,-0.01861572265625,0.89691162109375
1629810639546,-0.41961669921875,-0.01739501953125,0.89971923828125
1629810639546,-0.41998291015625,-0.0155029296875,0.89373779296875
1629810639546,-0.417236328125,-0.0152587890625,0.89813232421875
1629810639562,-0.41497802734375,-0.01824951171875,0.89349365234375
1629810639577,-0.418701171875,-0.01885986328125,0.9007568359375
1629810639577,-0.42181396484375,-0.0169677734375,0.89837646484375
1629810639577,-0.42120361328125,-0.01654052734375,0.90252685546875
1629810639671,-0.421142578125,-0.01959228515625,0.89764404296875
1629810639686,-0.42340087890625,-0.01898193359375,0.8944091796875
1629810639686,-0.42041015625,-0.0206298828125,0.893798828125
1629810639718,-0.42291259765625,-0.02191162109375,0.89202880859375
1629810639718,-0.42144775390625,-0.0152587890625,0.8912353515625
1629810639780,-0.421630859375,-0.021240234375,0.89288330078125
1629810639780,-0.42205810546875,-0.0142822265625,0.89447021484375
1629810639780,-0.41851806640625,-0.0162353515625,0.892333984375
1629810639827,-0.4222412109375,-0.00775146484375,0.89422607421875
1629810639827,-0.4173583984375,-0.007568359375,0.89813232421875
1629810639827,-0.41998291015625,-0.0059814453125,0.89825439453125
1629810639921,-0.4149169921875,-0.006103515625,0.9005126953125
1629810639921,-0.414794921875,-0.01177978515625,0.901123046875
1629810639921,-0.412841796875,-0.00811767578125,0.8973388671875
1629810640030,-0.41229248046875,-0.01751708984375,0.900146484375
1629810640030,-0.41412353515625,-0.02142333984375,0.9039306640625
1629810640030,-0.41253662109375,-0.02032470703125,0.90289306640625
1629810640030,-0.41741943359375,-0.01751708984375,0.8990478515625
1629810640030,-0.4154052734375,-0.02154541015625,0.89764404296875
1629810640030,-0.41644287109375,-0.01788330078125,0.89959716796875
1629810640077,-0.416015625,-0.01513671875,0.89971923828125
1629810640077,-0.41583251953125,-0.01690673828125,0.89959716796875
1629810640093,-0.41473388671875,-0.01763916015625,0.90106201171875
1629810640093,-0.41741943359375,-0.01702880859375,0.896484375
1629810640093,-0.41339111328125,-0.01861572265625,0.89703369140625
1629810640093,-0.418212890625,-0.0146484375,0.89794921875
1629810640186,-0.419921875,-0.0155029296875,0.8953857421875
1629810640186,-0.41888427734375,-0.0189208984375,0.89398193359375
1629810640186,-0.41748046875,-0.020263671875,0.895751953125
1629810640360,-0.415771484375,-0.0128173828125,0.89666748046875
1629810640360,-0.415283203125,-0.016845703125,0.904541015625
1629810640360,-0.41717529296875,-0.01470947265625,0.9010009765625
1629810640360,-0.41558837890625,-0.01593017578125,0.90472412109375
1629810640360,-0.41558837890625,-0.01373291015625,0.903076171875
1629810640360,-0.41802978515625,-0.0146484375,0.89617919921875
1629810640438,-0.41912841796875,-0.02001953125,0.8990478515625
1629810640438,-0.41943359375,-0.02239990234375,0.90057373046875
1629810640438,-0.41546630859375,-0.01739501953125,0.9010009765625
1629810640454,-0.42071533203125,-0.0198974609375,0.8896484375
1629810640454,-0.4259033203125,-0.02203369140625,0.89263916015625
1629810640454,-0.41839599609375,-0.01995849609375,0.8900146484375
1629810640564,-0.419189453125,-0.0159912109375,0.89727783203125
1629810640564,-0.42193603515625,-0.015380859375,0.896728515625
1629810640564,-0.417236328125,-0.0198974609375,0.897216796875
1629810640564,-0.42108154296875,-0.02117919921875,0.89886474609375
1629810640564,-0.4200439453125,-0.0203857421875,0.8992919921875
1629810640564,-0.418701171875,-0.02117919921875,0.88995361328125
1629810640594,-0.4188232421875,-0.01593017578125,0.89825439453125
1629810640594,-0.4173583984375,-0.01666259765625,0.89837646484375
1629810640594,-0.4207763671875,-0.01812744140625,0.8935546875
1629810640610,-0.41448974609375,-0.01605224609375,0.89764404296875
1629810640610,-0.41571044921875,-0.01336669921875,0.900634765625
1629810640610,-0.41986083984375,-0.01873779296875,0.9012451171875
1629810640688,-0.41705322265625,-0.012451171875,0.8944091796875
1629810640704,-0.42132568359375,-0.0179443359375,0.89923095703125
1629810640704,-0.4208984375,-0.015625,0.89874267578125
1629810640800,-0.4178466796875,-0.00909423828125,0.89434814453125
1629810640800,-0.41961669921875,-0.01068115234375,0.893310546875
1629810640800,-0.41632080078125,-0.013916015625,0.89410400390625
1629810640957,-0.416259765625,-0.01922607421875,0.900390625
1629810640957,-0.41845703125,-0.015625,0.899658203125
1629810640957,-0.4140625,-0.01239013671875,0.89715576171875
1629810640972,-0.41632080078125,-0.02008056640625,0.90338134765625
1629810640972,-0.41778564453125,-0.0181884765625,0.8992919921875
1629810640972,-0.4169921875,-0.02142333984375,0.898681640625
1629810641003,-0.416748046875,-0.01763916015625,0.89947509765625
1629810641003,-0.416015625,-0.02069091796875,0.90093994140625
1629810641003,-0.4169921875,-0.01776123046875,0.8963623046875
1629810641034,-0.4150390625,-0.01556396484375,0.8983154296875
1629810641034,-0.41448974609375,-0.016357421875,0.897705078125
1629810641050,-0.4163818359375,-0.0167236328125,0.9022216796875
1629810641066,-0.41839599609375,-0.0189208984375,0.8963623046875
1629810641066,-0.41961669921875,-0.01568603515625,0.89544677734375
1629810641066,-0.41729736328125,-0.01702880859375,0.89935302734375
1629810641206,-0.41546630859375,-0.01593017578125,0.893310546875
1629810641206,-0.421142578125,-0.02276611328125,0.89288330078125
1629810641206,-0.42364501953125,-0.01995849609375,0.89788818359375
1629810641206,-0.4183349609375,-0.01751708984375,0.8966064453125
1629810641206,-0.41912841796875,-0.0235595703125,0.8924560546875
1629810641206,-0.41943359375,-0.0211181640625,0.89886474609375
1629810641253,-0.4127197265625,-0.01715087890625,0.9002685546875
1629810641253,-0.41357421875,-0.01837158203125,0.90240478515625
1629810641269,-0.41412353515625,-0.01422119140625,0.90252685546875
1629810641300,-0.41302490234375,-0.01507568359375,0.9017333984375
1629810641300,-0.4150390625,-0.0185546875,0.904296875
1629810641300,-0.41546630859375,-0.01275634765625,0.900634765625
1629810641411,-0.41473388671875,-0.0206298828125,0.8990478515625
1629810641411,-0.4183349609375,-0.01849365234375,0.89849853515625
1629810641411,-0.41864013671875,-0.0208740234375,0.8974609375
1629810641426,-0.41790771484375,-0.01824951171875,0.89947509765625
1629810641426,-0.41741943359375,-0.022705078125,0.8963623046875
1629810641426,-0.41485595703125,-0.0206298828125,0.89605712890625
1629810641504,-0.4195556640625,-0.01605224609375,0.89898681640625
1629810641520,-0.4168701171875,-0.01806640625,0.8973388671875
1629810641520,-0.4171142578125,-0.02288818359375,0.901611328125
1629810641520,-0.4141845703125,-0.0164794921875,0.89898681640625
1629810641520,-0.41973876953125,-0.0179443359375,0.89703369140625
1629810641520,-0.4150390625,-0.021484375,0.90093994140625
1629810641567,-0.41827392578125,-0.01824951171875,0.89666748046875
1629810641567,-0.41656494140625,-0.018798828125,0.89849853515625
1629810641567,-0.4189453125,-0.018310546875,0.89898681640625
1629810641645,-0.4154052734375,-0.013427734375,0.899658203125
1629810641645,-0.41754150390625,-0.01806640625,0.89605712890625
1629810641645,-0.413818359375,-0.0172119140625,0.89764404296875
1629810641818,-0.41387939453125,-0.01507568359375,0.8929443359375
1629810641818,-0.415771484375,-0.01556396484375,0.8984375
1629810641818,-0.4154052734375,-0.013671875,0.898681640625
1629810641818,-0.41546630859375,-0.01422119140625,0.897216796875
1629810641818,-0.41912841796875,-0.01446533203125,0.8968505859375
1629810641833,-0.418212890625,-0.01171875,0.89361572265625
1629810641880,-0.41839599609375,-0.01776123046875,0.89990234375
1629810641880,-0.4139404296875,-0.022216796875,0.899169921875
1629810641880,-0.41387939453125,-0.02301025390625,0.900634765625
1629810641880,-0.416015625,-0.019287109375,0.8995361328125
1629810641880,-0.41717529296875,-0.0198974609375,0.9002685546875
1629810641880,-0.41558837890625,-0.021240234375,0.9000244140625
1629810642099,-0.41632080078125,-0.02001953125,0.9005126953125
1629810642099,-0.4156494140625,-0.02069091796875,0.90045166015625
1629810642099,-0.4176025390625,-0.01885986328125,0.89599609375
1629810642099,-0.41265869140625,-0.0216064453125,0.89801025390625
1629810642099,-0.4117431640625,-0.01373291015625,0.9005126953125
1629810642099,-0.4151611328125,-0.0152587890625,0.8974609375
1629810642099,-0.4151611328125,-0.01641845703125,0.900390625
1629810642099,-0.415771484375,-0.02099609375,0.89678955078125
1629810642115,-0.41339111328125,-0.01806640625,0.89874267578125
1629810642146,-0.4173583984375,-0.020263671875,0.9034423828125
1629810642146,-0.4176025390625,-0.01715087890625,0.89984130859375
1629810642146,-0.41534423828125,-0.01708984375,0.9002685546875
1629810642193,-0.41192626953125,-0.01544189453125,0.89630126953125
1629810642193,-0.41839599609375,-0.02313232421875,0.89947509765625
1629810642193,-0.41888427734375,-0.02069091796875,0.8953857421875
1629810642255,-0.4129638671875,-0.02044677734375,0.90228271484375
1629810642255,-0.41485595703125,-0.0145263671875,0.8968505859375
1629810642255,-0.413818359375,-0.017333984375,0.90203857421875
1629810642271,-0.411865234375,-0.01336669921875,0.90179443359375
1629810642271,-0.41497802734375,-0.01123046875,0.90191650390625
1629810642286,-0.41583251953125,-0.011962890625,0.90460205078125
1629810642380,-0.414794921875,-0.02197265625,0.8978271484375
1629810642380,-0.41363525390625,-0.02044677734375,0.9007568359375
1629810642380,-0.412353515625,-0.016357421875,0.89935302734375
1629810642415,-0.41571044921875,-0.02435302734375,0.89678955078125
1629810642415,-0.41888427734375,-0.02178955078125,0.8966064453125
1629810642415,-0.4146728515625,-0.0220947265625,0.8929443359375
1629810642477,-0.41705322265625,-0.018310546875,0.8995361328125
1629810642477,-0.4169921875,-0.0172119140625,0.89892578125
1629810642477,-0.41595458984375,-0.01971435546875,0.89910888671875
1629810642571,-0.41632080078125,-0.014404296875,0.897216796875
1629810642586,-0.4154052734375,-0.0194091796875,0.89910888671875
1629810642586,-0.41558837890625,-0.0172119140625,0.8984375
1629810642602,-0.41375732421875,-0.020263671875,0.8975830078125
1629810642617,-0.41412353515625,-0.02166748046875,0.9007568359375
1629810642617,-0.4136962890625,-0.01666259765625,0.89825439453125
1629810642633,-0.4185791015625,-0.0189208984375,0.90240478515625
1629810642633,-0.4171142578125,-0.0213623046875,0.901123046875
1629810642649,-0.41607666015625,-0.0189208984375,0.89984130859375
1629810642774,-0.41766357421875,-0.0157470703125,0.8958740234375
1629810642774,-0.41497802734375,-0.0120849609375,0.89501953125
1629810642774,-0.4173583984375,-0.021240234375,0.8980712890625
1629810642805,-0.4122314453125,-0.01788330078125,0.898193359375
1629810642805,-0.41302490234375,-0.0167236328125,0.899169921875
1629810642805,-0.4124755859375,-0.0234375,0.90106201171875
1629810642805,-0.41302490234375,-0.013671875,0.8984375
1629810642805,-0.4140625,-0.0125732421875,0.8961181640625
1629810642805,-0.4149169921875,-0.01251220703125,0.89447021484375
1629810642930,-0.4140625,-0.0223388671875,0.89892578125
1629810642930,-0.41448974609375,-0.0240478515625,0.902587890625
1629810642930,-0.414794921875,-0.02142333984375,0.89886474609375
1629810642961,-0.411865234375,-0.016845703125,0.903564453125
1629810642961,-0.41571044921875,-0.017578125,0.90228271484375
1629810642961,-0.41375732421875,-0.01715087890625,0.90289306640625
1629810643024,-0.41265869140625,-0.0157470703125,0.900634765625
1629810643024,-0.4190673828125,-0.01715087890625,0.900390625
1629810643024,-0.4134521484375,-0.01177978515625,0.89984130859375
1629810643149,-0.41265869140625,-0.0150146484375,0.901611328125
1629810643149,-0.41851806640625,-0.015869140625,0.89984130859375
1629810643149,-0.4188232421875,-0.0186767578125,0.89813232421875
1629810643247,-0.41925048828125,-0.01971435546875,0.8929443359375
1629810643247,-0.4150390625,-0.017578125,0.895263671875
1629810643247,-0.41668701171875,-0.0198974609375,0.89752197265625
1629810643278,-0.41912841796875,-0.023193359375,0.89849853515625
1629810643278,-0.4171142578125,-0.02154541015625,0.898193359375
1629810643278,-0.4176025390625,-0.025146484375,0.8963623046875
1629810643278,-0.417236328125,-0.0177001953125,0.89508056640625
1629810643293,-0.416015625,-0.01702880859375,0.89849853515625
1629810643293,-0.4130859375,-0.01666259765625,0.8985595703125
1629810643325,-0.41192626953125,-0.011962890625,0.90252685546875
1629810643325,-0.41229248046875,-0.0101318359375,0.90325927734375
1629810643325,-0.4140625,-0.014892578125,0.903076171875
1629810643372,-0.4144287109375,-0.0203857421875,0.9027099609375
1629810643372,-0.4119873046875,-0.0213623046875,0.90234375
1629810643372,-0.414794921875,-0.01507568359375,0.90380859375
1629810643403,-0.41754150390625,-0.02288818359375,0.89532470703125
1629810643403,-0.4150390625,-0.02215576171875,0.90240478515625
1629810643403,-0.41290283203125,-0.02459716796875,0.896240234375
1629810643528,-0.41387939453125,-0.02142333984375,0.89483642578125
1629810643543,-0.41864013671875,-0.0224609375,0.900146484375
1629810643543,-0.41650390625,-0.02252197265625,0.89959716796875
1629810643543,-0.41888427734375,-0.02001953125,0.9002685546875
1629810643559,-0.416259765625,-0.01934814453125,0.8970947265625
1629810643559,-0.4166259765625,-0.0213623046875,0.898193359375
1629810643653,-0.4119873046875,-0.0216064453125,0.89691162109375
1629810643653,-0.41790771484375,-0.0211181640625,0.89788818359375
1629810643653,-0.41754150390625,-0.01971435546875,0.89801025390625
1629810643668,-0.41436767578125,-0.02008056640625,0.89910888671875
1629810643668,-0.4151611328125,-0.01910400390625,0.8997802734375
1629810643668,-0.4129638671875,-0.021240234375,0.90167236328125
1629810643715,-0.41766357421875,-0.01885986328125,0.89892578125
1629810643715,-0.413330078125,-0.0184326171875,0.89837646484375
1629810643715,-0.41796875,-0.01837158203125,0.8978271484375
1629810643762,-0.412841796875,-0.0150146484375,0.89862060546875
1629810643762,-0.41558837890625,-0.01275634765625,0.8978271484375
1629810643762,-0.4129638671875,-0.0125732421875,0.89837646484375
1629810643903,-0.411376953125,-0.01409912109375,0.89801025390625
1629810643903,-0.4144287109375,-0.015380859375,0.90325927734375
1629810643903,-0.40960693359375,-0.018310546875,0.901123046875
1629810643981,-0.412841796875,-0.02496337890625,0.89910888671875
1629810643981,-0.414794921875,-0.01971435546875,0.9013671875
1629810643981,-0.41259765625,-0.02581787109375,0.90032958984375
1629810643981,-0.41015625,-0.02093505859375,0.90313720703125
1629810643981,-0.4122314453125,-0.02044677734375,0.90106201171875
1629810643981,-0.40753173828125,-0.01885986328125,0.90362548828125
1629810644106,-0.41357421875,-0.01336669921875,0.90142822265625
1629810644106,-0.41339111328125,-0.0184326171875,0.9017333984375
1629810644106,-0.4127197265625,-0.01806640625,0.89947509765625
1629810644153,-0.4119873046875,-0.01947021484375,0.8994140625
1629810644153,-0.41473388671875,-0.01531982421875,0.9044189453125
1629810644153,-0.41558837890625,-0.01580810546875,0.90069580078125
1629810644153,-0.41387939453125,-0.01458740234375,0.8990478515625
1629810644153,-0.41650390625,-0.0150146484375,0.902587890625
1629810644153,-0.4139404296875,-0.016845703125,0.897705078125
1629810644202,-0.41461181640625,-0.02435302734375,0.894287109375
1629810644202,-0.41729736328125,-0.017578125,0.90057373046875
1629810644202,-0.41937255859375,-0.0194091796875,0.8980712890625
1629810644280,-0.41583251953125,-0.01641845703125,0.894287109375
1629810644280,-0.4119873046875,-0.01544189453125,0.901123046875
1629810644296,-0.4136962890625,-0.01104736328125,0.9000244140625
1629810644311,-0.41033935546875,-0.0140380859375,0.90167236328125
1629810644311,-0.4102783203125,-0.01361083984375,0.90118408203125
1629810644311,-0.40875244140625,-0.01702880859375,0.90185546875
1629810644343,-0.41778564453125,-0.01611328125,0.90216064453125
1629810644343,-0.4132080078125,-0.0113525390625,0.90283203125
1629810644358,-0.41436767578125,-0.017578125,0.90185546875
1629810644421,-0.41265869140625,-0.01611328125,0.896484375
1629810644421,-0.41265869140625,-0.0157470703125,0.8961181640625
1629810644421,-0.41400146484375,-0.0184326171875,0.9033203125
1629810644499,-0.413330078125,-0.0146484375,0.904296875
1629810644499,-0.4119873046875,-0.01715087890625,0.90069580078125
1629810644499,-0.4061279296875,-0.0167236328125,0.89361572265625
1629810644514,-0.4132080078125,-0.01556396484375,0.90020751953125
1629810644514,-0.414306640625,-0.01531982421875,0.89898681640625
1629810644514,-0.4151611328125,-0.0166015625,0.9017333984375
1629810644655,-0.40875244140625,-0.02166748046875,0.8985595703125
1629810644655,-0.415771484375,-0.01873779296875,0.89862060546875
1629810644655,-0.4146728515625,-0.0198974609375,0.8988037109375
1629810644671,-0.41204833984375,-0.0174560546875,0.8958740234375
1629810644671,-0.41534423828125,-0.020751953125,0.8983154296875
1629810644671,-0.413818359375,-0.02093505859375,0.90087890625
1629810644780,-0.412353515625,-0.0181884765625,0.89788818359375
1629810644780,-0.4149169921875,-0.0164794921875,0.90167236328125
1629810644780,-0.41241455078125,-0.0133056640625,0.89996337890625
1629810644858,-0.4083251953125,-0.00994873046875,0.90008544921875
1629810644858,-0.41064453125,-0.012451171875,0.90350341796875
1629810644858,-0.40826416015625,-0.01336669921875,0.90216064453125
1629810644858,-0.4114990234375,-0.01141357421875,0.899169921875
1629810644858,-0.4105224609375,-0.015869140625,0.90460205078125
1629810644858,-0.410888671875,-0.0087890625,0.89862060546875
1629810644952,-0.4111328125,-0.01971435546875,0.90283203125
1629810644952,-0.410400390625,-0.0220947265625,0.90106201171875
1629810644952,-0.4085693359375,-0.02294921875,0.90240478515625
1629810644983,-0.41168212890625,-0.02325439453125,0.90386962890625
1629810644983,-0.41180419921875,-0.02081298828125,0.90185546875
1629810644999,-0.409423828125,-0.0189208984375,0.902587890625
1629810645014,-0.411376953125,-0.0181884765625,0.90496826171875
1629810645030,-0.4161376953125,-0.0172119140625,0.9027099609375
1629810645030,-0.41461181640625,-0.018798828125,0.89794921875
1629810645046,-0.4166259765625,-0.01519775390625,0.896728515625
1629810645046,-0.415771484375,-0.01837158203125,0.89642333984375
1629810645061,-0.41510009765625,-0.01666259765625,0.8961181640625
1629810645140,-0.41729736328125,-0.019287109375,0.89215087890625
1629810645140,-0.41644287109375,-0.01861572265625,0.89031982421875
1629810645140,-0.41339111328125,-0.01275634765625,0.89227294921875
1629810645218,-0.40826416015625,-0.015625,0.90252685546875
1629810645218,-0.41058349609375,-0.01739501953125,0.90301513671875
1629810645218,-0.4150390625,-0.01226806640625,0.897705078125
1629810645316,-0.41497802734375,-0.01190185546875,0.904296875
1629810645316,-0.41168212890625,-0.01422119140625,0.9029541015625
1629810645316,-0.4144287109375,-0.01556396484375,0.903564453125
1629810645348,-0.41253662109375,-0.017333984375,0.90313720703125
1629810645348,-0.41204833984375,-0.0189208984375,0.89898681640625
1629810645363,-0.41546630859375,-0.01739501953125,0.89935302734375
1629810645394,-0.4085693359375,-0.02020263671875,0.899658203125
1629810645394,-0.408935546875,-0.01629638671875,0.89678955078125
1629810645394,-0.41461181640625,-0.016357421875,0.9019775390625
1629810645426,-0.412353515625,-0.02105712890625,0.906982421875
1629810645426,-0.41375732421875,-0.020751953125,0.90069580078125
1629810645426,-0.41082763671875,-0.0174560546875,0.90155029296875
1629810645457,-0.41436767578125,-0.01361083984375,0.899169921875
1629810645473,-0.417236328125,-0.014892578125,0.89892578125
1629810645473,-0.41192626953125,-0.01531982421875,0.89404296875
1629810645519,-0.41741943359375,-0.0174560546875,0.89923095703125
1629810645519,-0.41546630859375,-0.01617431640625,0.89862060546875
1629810645519,-0.4168701171875,-0.02008056640625,0.90081787109375
1629810645582,-0.417236328125,-0.01806640625,0.8997802734375
1629810645582,-0.4176025390625,-0.01739501953125,0.8997802734375
1629810645582,-0.41424560546875,-0.01678466796875,0.898681640625
1629810645722,-0.414306640625,-0.012939453125,0.89697265625
1629810645722,-0.41424560546875,-0.01434326171875,0.8990478515625
1629810645722,-0.412109375,-0.01251220703125,0.901123046875
1629810645722,-0.4163818359375,-0.01123046875,0.89630126953125
1629810645722,-0.41094970703125,-0.0093994140625,0.89508056640625
1629810645722,-0.4150390625,-0.0140380859375,0.8990478515625
1629810645785,-0.4130859375,-0.01531982421875,0.90374755859375
1629810645785,-0.4140625,-0.02032470703125,0.9024658203125
1629810645785,-0.41290283203125,-0.02008056640625,0.904296875
1629810645879,-0.411865234375,-0.02276611328125,0.90472412109375
1629810645879,-0.4124755859375,-0.020263671875,0.89959716796875
1629810645879,-0.41436767578125,-0.017822265625,0.9017333984375
1629810645910,-0.41253662109375,-0.01666259765625,0.90142822265625
1629810645910,-0.41192626953125,-0.020263671875,0.897216796875
1629810645910,-0.41265869140625,-0.0185546875,0.9014892578125
1629810645988,-0.41357421875,-0.01788330078125,0.8994140625
1629810645988,-0.40997314453125,-0.01861572265625,0.90362548828125
1629810645988,-0.41546630859375,-0.0174560546875,0.89599609375
1629810646051,-0.41644287109375,-0.02069091796875,0.8994140625
1629810646051,-0.41058349609375,-0.021728515625,0.89971923828125
1629810646051,-0.4151611328125,-0.01824951171875,0.8988037109375
1629810646082,-0.409423828125,-0.01544189453125,0.89801025390625
1629810646082,-0.41534423828125,-0.02508544921875,0.89764404296875
1629810646082,-0.4129638671875,-0.01593017578125,0.89569091796875
1629810646160,-0.41156005859375,-0.0186767578125,0.90325927734375
1629810646160,-0.41015625,-0.01531982421875,0.9039306640625
1629810646160,-0.408935546875,-0.0162353515625,0.904541015625
1629810646191,-0.41436767578125,-0.0146484375,0.90167236328125
1629810646191,-0.4100341796875,-0.01556396484375,0.904541015625
1629810646191,-0.40997314453125,-0.01531982421875,0.9024658203125
1629810646303,-0.41455078125,-0.02142333984375,0.896484375
1629810646303,-0.41290283203125,-0.0213623046875,0.8973388671875
1629810646303,-0.41424560546875,-0.01904296875,0.9031982421875
1629810646350,-0.41131591796875,-0.01873779296875,0.89715576171875
1629810646350,-0.41156005859375,-0.01885986328125,0.8984375
1629810646350,-0.41619873046875,-0.0211181640625,0.89605712890625
1629810646412,-0.41510009765625,-0.01751708984375,0.901123046875
1629810646412,-0.4193115234375,-0.02056884765625,0.9014892578125
1629810646412,-0.41558837890625,-0.01678466796875,0.89862060546875
1629810646459,-0.41473388671875,-0.0169677734375,0.896240234375
1629810646459,-0.41497802734375,-0.0169677734375,0.89581298828125
1629810646459,-0.41790771484375,-0.01824951171875,0.89495849609375
1629810646490,-0.41583251953125,-0.01861572265625,0.89984130859375
1629810646490,-0.41668701171875,-0.02044677734375,0.900634765625
1629810646490,-0.41400146484375,-0.02105712890625,0.89959716796875
1629810646537,-0.41326904296875,-0.02032470703125,0.89990234375
1629810646537,-0.4150390625,-0.0194091796875,0.90252685546875
1629810646537,-0.41522216796875,-0.01861572265625,0.90191650390625
1629810646678,-0.41363525390625,-0.016845703125,0.903076171875
1629810646678,-0.41241455078125,-0.01214599609375,0.90130615234375
1629810646678,-0.41326904296875,-0.0137939453125,0.9000244140625
1629810646725,-0.41058349609375,-0.015869140625,0.9029541015625
1629810646725,-0.4130859375,-0.02423095703125,0.9007568359375
1629810646725,-0.40936279296875,-0.01702880859375,0.89727783203125
1629810646725,-0.4127197265625,-0.01220703125,0.901123046875
1629810646725,-0.414306640625,-0.0203857421875,0.9014892578125
1629810646725,-0.41552734375,-0.021484375,0.90240478515625
1629810646866,-0.41168212890625,-0.01702880859375,0.90155029296875
1629810646866,-0.41094970703125,-0.0196533203125,0.90057373046875
1629810646866,-0.411376953125,-0.01751708984375,0.89923095703125
1629810646866,-0.4090576171875,-0.017822265625,0.9017333984375
1629810646866,-0.41046142578125,-0.0203857421875,0.9012451171875
1629810646866,-0.41033935546875,-0.01861572265625,0.904296875
1629810646912,-0.40948486328125,-0.01812744140625,0.90106201171875
1629810646912,-0.4139404296875,-0.01971435546875,0.9007568359375
1629810646912,-0.41644287109375,-0.013916015625,0.90234375
1629810646975,-0.41162109375,-0.0172119140625,0.9053955078125
1629810646975,-0.41070556640625,-0.01678466796875,0.900390625
1629810646975,-0.41253662109375,-0.0146484375,0.9010009765625
1629810647022,-0.41644287109375,-0.0224609375,0.897216796875
1629810647022,-0.4100341796875,-0.01861572265625,0.899658203125
1629810647022,-0.41845703125,-0.0196533203125,0.9005126953125
1629810647053,-0.4141845703125,-0.02783203125,0.8963623046875
1629810647080,-0.41375732421875,-0.01922607421875,0.89202880859375
1629810647080,-0.4127197265625,-0.0179443359375,0.896240234375
1629810647112,-0.4136962890625,-0.01397705078125,0.90252685546875
1629810647112,-0.41033935546875,-0.0181884765625,0.90399169921875
1629810647127,-0.40936279296875,-0.019287109375,0.9014892578125
1629810647159,-0.41046142578125,-0.01239013671875,0.8988037109375
1629810647159,-0.41400146484375,-0.01739501953125,0.90118408203125
1629810647159,-0.40997314453125,-0.01300048828125,0.9029541015625
1629810647286,-0.41021728515625,-0.0220947265625,0.8985595703125
1629810647286,-0.4132080078125,-0.02252197265625,0.8973388671875
1629810647287,-0.413330078125,-0.017822265625,0.89947509765625
1629810647334,-0.415283203125,-0.024169921875,0.89788818359375
1629810647334,-0.4136962890625,-0.01934814453125,0.90179443359375
1629810647334,-0.41455078125,-0.025146484375,0.89471435546875
1629810647396,-0.41546630859375,-0.01702880859375,0.9005126953125
1629810647397,-0.41119384765625,-0.0218505859375,0.901611328125
1629810647397,-0.41229248046875,-0.0245361328125,0.906005859375
1629810647448,-0.41424560546875,-0.01898193359375,0.89727783203125
1629810647449,-0.41534423828125,-0.02081298828125,0.89984130859375
1629810647449,-0.411865234375,-0.023193359375,0.9007568359375
1629810647536,-0.41326904296875,-0.01885986328125,0.899658203125
1629810647536,-0.41046142578125,-0.0220947265625,0.89910888671875
1629810647537,-0.4154052734375,-0.02001953125,0.89703369140625
1629810647537,-0.412109375,-0.02020263671875,0.89654541015625
1629810647537,-0.41497802734375,-0.02142333984375,0.89776611328125
1629810647541,-0.4140625,-0.02001953125,0.894287109375
1629810647628,-0.41424560546875,-0.013427734375,0.89971923828125
1629810647628,-0.416748046875,-0.01495361328125,0.9005126953125
1629810647629,-0.4139404296875,-0.01824951171875,0.90216064453125
1629810647676,-0.4146728515625,-0.01678466796875,0.899169921875
1629810647676,-0.41619873046875,-0.01385498046875,0.901123046875
1629810647677,-0.41021728515625,-0.01239013671875,0.897216796875
1629810647708,-0.41668701171875,-0.0225830078125,0.90087890625
1629810647708,-0.41302490234375,-0.02398681640625,0.90234375
1629810647724,-0.414306640625,-0.017578125,0.90283203125
1629810647786,-0.41583251953125,-0.0213623046875,0.8985595703125
1629810647786,-0.41015625,-0.02301025390625,0.90179443359375
1629810647786,-0.41607666015625,-0.022216796875,0.902099609375
1629810647833,-0.41522216796875,-0.02099609375,0.8997802734375
1629810647833,-0.41546630859375,-0.01898193359375,0.9005126953125
1629810647833,-0.416748046875,-0.01849365234375,0.899658203125
1629810647896,-0.41387939453125,-0.01715087890625,0.89788818359375
1629810647896,-0.41650390625,-0.01861572265625,0.901611328125
1629810647896,-0.41607666015625,-0.01776123046875,0.89996337890625
1629810647989,-0.41473388671875,-0.0164794921875,0.9029541015625
1629810647989,-0.41510009765625,-0.01751708984375,0.900634765625
1629810647989,-0.41461181640625,-0.016357421875,0.89984130859375
1629810648021,-0.40972900390625,-0.01593017578125,0.89959716796875
1629810648021,-0.41448974609375,-0.020751953125,0.90057373046875
1629810648021,-0.41839599609375,-0.0220947265625,0.901123046875
1629810648083,-0.41387939453125,-0.02276611328125,0.89739990234375
1629810648083,-0.4156494140625,-0.0255126953125,0.8984375
1629810648083,-0.41619873046875,-0.02874755859375,0.89996337890625
1629810648109,-0.41162109375,-0.016845703125,0.900146484375
1629810648109,-0.4127197265625,-0.0157470703125,0.89605712890625
1629810648109,-0.41265869140625,-0.018310546875,0.89947509765625
1629810648172,-0.410888671875,-0.01263427734375,0.90618896484375
1629810648172,-0.408447265625,-0.01251220703125,0.9036865234375
1629810648172,-0.41082763671875,-0.0145263671875,0.90252685546875
1629810648234,-0.4161376953125,-0.01885986328125,0.90240478515625
1629810648234,-0.41094970703125,-0.02313232421875,0.90081787109375
1629810648234,-0.41650390625,-0.02001953125,0.90118408203125
1629810648359,-0.41192626953125,-0.02081298828125,0.89605712890625
1629810648359,-0.4144287109375,-0.02532958984375,0.8963623046875
1629810648359,-0.41278076171875,-0.02447509765625,0.8951416015625
1629810648377,-0.413330078125,-0.02099609375,0.90264892578125
1629810648377,-0.4130859375,-0.0205078125,0.900390625
1629810648377,-0.412353515625,-0.02294921875,0.9041748046875
1629810648424,-0.41363525390625,-0.019775390625,0.89801025390625
1629810648424,-0.41522216796875,-0.019775390625,0.89898681640625
1629810648424,-0.4139404296875,-0.0196533203125,0.90130615234375
1629810648455,-0.40899658203125,-0.02093505859375,0.9036865234375
1629810648455,-0.40924072265625,-0.018310546875,0.899169921875
1629810648455,-0.41790771484375,-0.01910400390625,0.900390625
1629810648533,-0.4134521484375,-0.02325439453125,0.9012451171875
1629810648533,-0.413330078125,-0.02056884765625,0.89910888671875
1629810648533,-0.41278076171875,-0.02056884765625,0.90484619140625
1629810648627,-0.41259765625,-0.01190185546875,0.89794921875
1629810648627,-0.411865234375,-0.01898193359375,0.90142822265625
1629810648627,-0.412841796875,-0.020263671875,0.90203857421875
1629810648658,-0.413330078125,-0.013671875,0.89984130859375
1629810648658,-0.41162109375,-0.017578125,0.9002685546875
1629810648658,-0.41302490234375,-0.01593017578125,0.8978271484375
1629810648689,-0.41143798828125,-0.01959228515625,0.9029541015625
1629810648689,-0.41046142578125,-0.02557373046875,0.90130615234375
1629810648689,-0.411865234375,-0.01812744140625,0.90087890625
1629810648768,-0.4090576171875,-0.027099609375,0.90301513671875
1629810648783,-0.409423828125,-0.02392578125,0.90185546875
1629810648783,-0.40814208984375,-0.02490234375,0.90216064453125
1629810648815,-0.40728759765625,-0.01580810546875,0.9033203125
1629810648815,-0.40948486328125,-0.01898193359375,0.90264892578125
1629810648830,-0.41485595703125,-0.01904296875,0.903564453125
1629810648908,-0.40997314453125,-0.016845703125,0.90069580078125
1629810648908,-0.4107666015625,-0.0177001953125,0.90045166015625
1629810648924,-0.4134521484375,-0.0145263671875,0.900146484375
1629810648971,-0.41046142578125,-0.01739501953125,0.90228271484375
1629810648971,-0.4107666015625,-0.01544189453125,0.90325927734375
1629810648971,-0.41278076171875,-0.0186767578125,0.9027099609375
1629810649018,-0.41107177734375,-0.017333984375,0.89837646484375
1629810649018,-0.41583251953125,-0.02008056640625,0.89910888671875
1629810649018,-0.41375732421875,-0.02056884765625,0.89984130859375
1629810649072,-0.41314697265625,-0.01983642578125,0.89715576171875
1629810649072,-0.41375732421875,-0.02587890625,0.89788818359375
1629810649072,-0.4163818359375,-0.027587890625,0.89715576171875
1629810649134,-0.41162109375,-0.01922607421875,0.89837646484375
1629810649134,-0.4053955078125,-0.01812744140625,0.90472412109375
1629810649134,-0.41265869140625,-0.01898193359375,0.9044189453125
1629810649180,-0.40924072265625,-0.01422119140625,0.9036865234375
1629810649180,-0.40838623046875,-0.01715087890625,0.90533447265625
1629810649180,-0.40850830078125,-0.0184326171875,0.90386962890625
1629810649258,-0.40789794921875,-0.02203369140625,0.90423583984375
1629810649258,-0.41119384765625,-0.0179443359375,0.9041748046875
1629810649258,-0.4068603515625,-0.02001953125,0.9019775390625
1629810649320,-0.410888671875,-0.01629638671875,0.89385986328125
1629810649320,-0.408203125,-0.0159912109375,0.89794921875
1629810649320,-0.40924072265625,-0.01806640625,0.89910888671875
1629810649352,-0.41082763671875,-0.02130126953125,0.90301513671875
1629810649352,-0.40948486328125,-0.02252197265625,0.9046630859375
1629810649352,-0.40875244140625,-0.0159912109375,0.9031982421875
1629810649416,-0.4151611328125,-0.01824951171875,0.90191650390625
1629810649416,-0.410400390625,-0.02105712890625,0.900634765625
1629810649417,-0.41192626953125,-0.0150146484375,0.89874267578125
1629810649491,-0.4080810546875,-0.02130126953125,0.897705078125
1629810649491,-0.4100341796875,-0.02178955078125,0.9010009765625
1629810649491,-0.4111328125,-0.024169921875,0.89886474609375
1629810649666,-0.4130859375,-0.0128173828125,0.900634765625
1629810649666,-0.41424560546875,-0.02197265625,0.89788818359375
1629810649667,-0.415283203125,-0.02239990234375,0.89764404296875
1629810649667,-0.4090576171875,-0.01141357421875,0.90234375
1629810649668,-0.411865234375,-0.00933837890625,0.90130615234375
1629810649674,-0.41534423828125,-0.02166748046875,0.90264892578125
1629810649677,-0.41424560546875,-0.018798828125,0.8974609375
1629810649678,-0.4111328125,-0.01934814453125,0.900146484375
1629810649691,-0.409423828125,-0.0107421875,0.8985595703125
1629810649761,-0.4080810546875,-0.0157470703125,0.90472412109375
1629810649761,-0.410400390625,-0.01495361328125,0.902099609375
1629810649770,-0.41229248046875,-0.02197265625,0.9034423828125
1629810649790,-0.4093017578125,-0.0234375,0.90283203125
1629810649790,-0.41265869140625,-0.0263671875,0.904296875
1629810649790,-0.41015625,-0.02734375,0.90240478515625
1629810649840,-0.41259765625,-0.02301025390625,0.90362548828125
1629810649840,-0.40972900390625,-0.02239990234375,0.90142822265625
1629810649841,-0.4091796875,-0.02099609375,0.89849853515625
1629810649962,-0.41455078125,-0.0203857421875,0.896484375
1629810649976,-0.41461181640625,-0.0191650390625,0.897216796875
1629810649976,-0.4151611328125,-0.017578125,0.8974609375
1629810649977,-0.4151611328125,-0.0220947265625,0.90093994140625
1629810649977,-0.413330078125,-0.017822265625,0.90325927734375
1629810650070,-0.40899658203125,-0.0130615234375,0.89569091796875
1629810650071,-0.4139404296875,-0.02142333984375,0.89739990234375
1629810650071,-0.40802001953125,-0.01287841796875,0.9005126953125
1629810650117,-0.408935546875,-0.0181884765625,0.90625
1629810650117,-0.4093017578125,-0.0198974609375,0.90643310546875
1629810650118,-0.40728759765625,-0.01837158203125,0.90771484375
1629810650118,-0.4049072265625,-0.01806640625,0.90625
1629810650118,-0.4122314453125,-0.0162353515625,0.9053955078125
1629810650118,-0.40814208984375,-0.018798828125,0.90765380859375
1629810650194,-0.41015625,-0.0196533203125,0.89764404296875
1629810650194,-0.4088134765625,-0.02166748046875,0.905517578125
1629810650197,-0.4107666015625,-0.01971435546875,0.89703369140625
1629810650273,-0.41070556640625,-0.0174560546875,0.90008544921875
1629810650273,-0.410888671875,-0.0174560546875,0.89697265625
1629810650273,-0.41033935546875,-0.0181884765625,0.90008544921875
1629810650336,-0.41571044921875,-0.0205078125,0.9051513671875
1629810650336,-0.4169921875,-0.0196533203125,0.90557861328125
1629810650336,-0.414306640625,-0.02166748046875,0.90277099609375
1629810650383,-0.4149169921875,-0.02142333984375,0.90020751953125
1629810650383,-0.41162109375,-0.02032470703125,0.8985595703125
1629810650384,-0.409912109375,-0.02020263671875,0.90093994140625
1629810650524,-0.4140625,-0.01959228515625,0.8983154296875
1629810650525,-0.41278076171875,-0.0208740234375,0.90167236328125
1629810650525,-0.41668701171875,-0.02093505859375,0.9019775390625
1629810650539,-0.4154052734375,-0.01617431640625,0.90057373046875
1629810650539,-0.41326904296875,-0.01214599609375,0.89666748046875
1629810650539,-0.414794921875,-0.01220703125,0.900390625
1629810650540,-0.41693115234375,-0.02154541015625,0.8997802734375
1629810650540,-0.41455078125,-0.014892578125,0.89825439453125
1629810650541,-0.41119384765625,-0.01861572265625,0.8975830078125
1629810650590,-0.41265869140625,-0.0184326171875,0.89898681640625
1629810650590,-0.41119384765625,-0.01507568359375,0.8995361328125
1629810650590,-0.414794921875,-0.0146484375,0.8956298828125
1629810650653,-0.4122314453125,-0.02130126953125,0.90350341796875
1629810650653,-0.41363525390625,-0.020263671875,0.90655517578125
1629810650653,-0.4122314453125,-0.020263671875,0.9061279296875
1629810650700,-0.41241455078125,-0.02099609375,0.90301513671875
1629810650700,-0.41217041015625,-0.02203369140625,0.90185546875
1629810650700,-0.41229248046875,-0.0228271484375,0.901123046875
1629810650759,-0.413818359375,-0.016845703125,0.8988037109375
1629810650759,-0.41485595703125,-0.01666259765625,0.90338134765625
1629810650759,-0.41229248046875,-0.02044677734375,0.90521240234375
1629810650869,-0.41510009765625,-0.01788330078125,0.900146484375
1629810650869,-0.41357421875,-0.01702880859375,0.89794921875
1629810650869,-0.412109375,-0.01629638671875,0.89678955078125
1629810650900,-0.4154052734375,-0.02362060546875,0.89593505859375
1629810650900,-0.41339111328125,-0.01654052734375,0.8963623046875
1629810650900,-0.41680908203125,-0.0218505859375,0.89794921875
1629810650947,-0.41131591796875,-0.01751708984375,0.90093994140625
1629810650947,-0.41015625,-0.01898193359375,0.90545654296875
1629810650947,-0.4114990234375,-0.015869140625,0.8978271484375
1629810650994,-0.4107666015625,-0.01458740234375,0.90777587890625
1629810650994,-0.41278076171875,-0.01495361328125,0.90435791015625
1629810650994,-0.41094970703125,-0.0155029296875,0.9061279296875
1629810651134,-0.40838623046875,-0.02044677734375,0.90252685546875
1629810651134,-0.41485595703125,-0.02166748046875,0.90277099609375
1629810651150,-0.4093017578125,-0.01727294921875,0.9036865234375
1629810651166,-0.41168212890625,-0.020751953125,0.89532470703125
1629810651166,-0.4085693359375,-0.0218505859375,0.89923095703125
1629810651166,-0.410400390625,-0.02117919921875,0.89691162109375
1629810651197,-0.41461181640625,-0.0235595703125,0.9029541015625
1629810651197,-0.410888671875,-0.0203857421875,0.90228271484375
1629810651197,-0.4112548828125,-0.0223388671875,0.90423583984375
1629810651228,-0.4119873046875,-0.01861572265625,0.9019775390625
1629810651228,-0.41058349609375,-0.0196533203125,0.90167236328125
1629810651228,-0.41259765625,-0.01824951171875,0.9014892578125
1629810651291,-0.41326904296875,-0.01953125,0.89892578125
1629810651291,-0.41290283203125,-0.0194091796875,0.9022216796875
1629810651291,-0.4097900390625,-0.02142333984375,0.89947509765625
1629810651415,-0.4132080078125,-0.01702880859375,0.90142822265625
1629810651415,-0.4150390625,-0.01715087890625,0.9000244140625
1629810651415,-0.41180419921875,-0.01800537109375,0.90032958984375
1629810651431,-0.41534423828125,-0.01373291015625,0.90008544921875
1629810651431,-0.410888671875,-0.0157470703125,0.89788818359375
1629810651432,-0.4151611328125,-0.017333984375,0.89990234375
1629810651493,-0.41400146484375,-0.01605224609375,0.899169921875
1629810651493,-0.416748046875,-0.0152587890625,0.8968505859375
1629810651493,-0.41497802734375,-0.014404296875,0.89984130859375
1629810651571,-0.4161376953125,-0.02191162109375,0.9005126953125
1629810651571,-0.41796875,-0.0196533203125,0.90057373046875
1629810651571,-0.4112548828125,-0.015625,0.9007568359375
1629810651602,-0.4161376953125,-0.02130126953125,0.89923095703125
1629810651602,-0.41326904296875,-0.02105712890625,0.90185546875
1629810651603,-0.4156494140625,-0.02386474609375,0.90203857421875
1629810651664,-0.40826416015625,-0.01904296875,0.89923095703125
1629810651664,-0.41461181640625,-0.019775390625,0.89703369140625
1629810651664,-0.4163818359375,-0.022705078125,0.89959716796875
1629810651726,-0.41400146484375,-0.01422119140625,0.900390625
1629810651726,-0.41485595703125,-0.01324462890625,0.90093994140625
1629810651726,-0.41375732421875,-0.01470947265625,0.8988037109375
1629810651836,-0.4146728515625,-0.01519775390625,0.900146484375
1629810651836,-0.41448974609375,-0.01776123046875,0.8990478515625
1629810651836,-0.412841796875,-0.0150146484375,0.90472412109375
1629810651852,-0.4154052734375,-0.0233154296875,0.8946533203125
1629810651852,-0.4166259765625,-0.02130126953125,0.8955078125
1629810651852,-0.41510009765625,-0.018798828125,0.8994140625
1629810652002,-0.4112548828125,-0.0101318359375,0.90875244140625
1629810652002,-0.4111328125,-0.01605224609375,0.90411376953125
1629810652002,-0.41009521484375,-0.01007080078125,0.9051513671875
1629810652002,-0.4088134765625,-0.0213623046875,0.898681640625
1629810652002,-0.41156005859375,-0.0181884765625,0.89794921875
1629810652002,-0.410888671875,-0.0179443359375,0.89813232421875
1629810652048,-0.41375732421875,-0.01904296875,0.90374755859375
1629810652048,-0.409423828125,-0.01361083984375,0.9039306640625
1629810652048,-0.410888671875,-0.01373291015625,0.9031982421875
1629810652095,-0.41400146484375,-0.01708984375,0.89862060546875
1629810652095,-0.4150390625,-0.02142333984375,0.89959716796875
1629810652111,-0.4090576171875,-0.02197265625,0.90142822265625
1629810652142,-0.40838623046875,-0.02392578125,0.89886474609375
1629810652142,-0.41229248046875,-0.0179443359375,0.90185546875
1629810652142,-0.41375732421875,-0.01837158203125,0.90069580078125
1629810652236,-0.41455078125,-0.0177001953125,0.90130615234375
1629810652236,-0.4139404296875,-0.01678466796875,0.9019775390625
1629810652236,-0.41387939453125,-0.01654052734375,0.90264892578125
1629810652340,-0.4110107421875,-0.02197265625,0.901611328125
1629810652340,-0.4150390625,-0.01776123046875,0.89837646484375
1629810652340,-0.41412353515625,-0.0189208984375,0.8988037109375
1629810652340,-0.41375732421875,-0.017578125,0.900390625
1629810652340,-0.41644287109375,-0.01495361328125,0.89776611328125
1629810652340,-0.41497802734375,-0.01751708984375,0.8992919921875
1629810652419,-0.41888427734375,-0.01483154296875,0.89886474609375
1629810652419,-0.41510009765625,-0.020751953125,0.89703369140625
1629810652419,-0.4193115234375,-0.01519775390625,0.89642333984375
1629810652434,-0.41644287109375,-0.01202392578125,0.8997802734375
1629810652434,-0.4150390625,-0.010498046875,0.899658203125
1629810652450,-0.41455078125,-0.00958251953125,0.89794921875
1629810652481,-0.4127197265625,-0.0146484375,0.89984130859375
1629810652481,-0.4124755859375,-0.0106201171875,0.89801025390625
1629810652497,-0.41241455078125,-0.01922607421875,0.90167236328125
1629810652559,-0.4130859375,-0.0233154296875,0.90118408203125
1629810652559,-0.41363525390625,-0.02398681640625,0.90057373046875
1629810652559,-0.4102783203125,-0.018798828125,0.89996337890625
1629810652606,-0.41162109375,-0.0208740234375,0.900146484375
1629810652622,-0.41204833984375,-0.0201416015625,0.90264892578125
1629810652622,-0.4136962890625,-0.01995849609375,0.90155029296875
1629810652637,-0.410400390625,-0.01910400390625,0.89788818359375
1629810652637,-0.412109375,-0.01593017578125,0.90069580078125
1629810652653,-0.41021728515625,-0.016845703125,0.903076171875
1629810652778,-0.4110107421875,-0.01690673828125,0.89990234375
1629810652778,-0.41278076171875,-0.0174560546875,0.90191650390625
1629810652778,-0.416259765625,-0.0179443359375,0.90289306640625
1629810652810,-0.40716552734375,-0.01666259765625,0.9007568359375
1629810652824,-0.41162109375,-0.0172119140625,0.8997802734375
1629810652824,-0.41461181640625,-0.026123046875,0.8980712890625
1629810652825,-0.4122314453125,-0.0166015625,0.89971923828125
1629810652826,-0.4158935546875,-0.01959228515625,0.9000244140625
1629810652826,-0.41497802734375,-0.02734375,0.89886474609375
