timestamp,ax,ay,az
1630411793176,-0.1258544921875,0.02325439453125,0.99078369140625
1630411793177,-0.12689208984375,0.024658203125,0.98974609375
1630411793185,-0.1287841796875,0.02557373046875,0.9918212890625
1630411793241,-0.12835693359375,0.02813720703125,0.9937744140625
1630411793241,-0.12738037109375,0.024169921875,0.9888916015625
1630411793242,-0.127685546875,0.025146484375,0.9910888671875
1630411793295,-0.13250732421875,0.02386474609375,0.9930419921875
1630411793295,-0.13104248046875,0.0296630859375,0.9874267578125
1630411793295,-0.12969970703125,0.02716064453125,0.9866943359375
1630411793383,-0.1290283203125,0.02606201171875,0.9871826171875
1630411793383,-0.1295166015625,0.0269775390625,0.98748779296875
1630411793385,-0.126220703125,0.02484130859375,0.98919677734375
1630411793418,-0.12164306640625,0.0272216796875,0.99432373046875
1630411793418,-0.12451171875,0.02813720703125,0.99444580078125
1630411793418,-0.125244140625,0.02532958984375,0.99462890625
1630411793493,-0.12738037109375,0.0291748046875,0.999267578125
1630411793493,-0.12322998046875,0.02484130859375,0.997314453125
1630411793494,-0.128173828125,0.0303955078125,0.99237060546875
1630411793588,-0.12872314453125,0.02880859375,0.98724365234375
1630411793588,-0.1317138671875,0.030029296875,0.99102783203125
1630411793588,-0.132568359375,0.02166748046875,0.98779296875
1630411793615,-0.12542724609375,0.024169921875,0.98614501953125
1630411793618,-0.1319580078125,0.02197265625,0.98822021484375
1630411793618,-0.12750244140625,0.024658203125,0.98486328125
1630411793651,-0.12652587890625,0.022216796875,0.99163818359375
1630411793651,-0.131103515625,0.0240478515625,0.99102783203125
1630411793651,-0.13018798828125,0.0223388671875,0.98779296875
1630411793734,-0.12957763671875,0.0238037109375,0.99432373046875
1630411793734,-0.12762451171875,0.023193359375,0.995849609375
1630411793734,-0.130615234375,0.02362060546875,0.99005126953125
1630411793769,-0.13134765625,0.023681640625,0.98919677734375
1630411793769,-0.1300048828125,0.0281982421875,0.98760986328125
1630411793769,-0.13153076171875,0.02398681640625,0.98834228515625
1630411793836,-0.1329345703125,0.02618408203125,0.9866943359375
1630411793836,-0.1275634765625,0.029541015625,0.99224853515625
1630411793839,-0.12554931640625,0.0264892578125,0.992431640625
1630411793864,-0.12738037109375,0.0233154296875,0.99005126953125
1630411793864,-0.128173828125,0.02484130859375,0.9898681640625
1630411793866,-0.12786865234375,0.0269775390625,0.99163818359375
1630411793958,-0.12799072265625,0.0240478515625,0.9910888671875
1630411793976,-0.1282958984375,0.02423095703125,0.99169921875
1630411793978,-0.12554931640625,0.02435302734375,0.992919921875
1630411794005,-0.1268310546875,0.0267333984375,0.9871826171875
1630411794006,-0.12493896484375,0.02642822265625,0.98858642578125
1630411794006,-0.1251220703125,0.02679443359375,0.98773193359375
1630411794086,-0.12408447265625,0.031005859375,0.99627685546875
1630411794086,-0.12432861328125,0.03057861328125,0.99774169921875
1630411794087,-0.1251220703125,0.03009033203125,0.9935302734375
1630411794107,-0.120849609375,0.03179931640625,0.99365234375
1630411794107,-0.12567138671875,0.03173828125,0.99737548828125
1630411794107,-0.1282958984375,0.0269775390625,0.98974609375
1630411794218,-0.120361328125,0.02886962890625,0.98681640625
1630411794219,-0.12628173828125,0.02978515625,0.98681640625
1630411794219,-0.120849609375,0.02740478515625,0.98699951171875
1630411794276,-0.1234130859375,0.03179931640625,0.99041748046875
1630411794277,-0.11834716796875,0.03228759765625,0.9974365234375
1630411794294,-0.1192626953125,0.0323486328125,0.994873046875
1630411794345,-0.122314453125,0.0350341796875,0.9947509765625
1630411794345,-0.124755859375,0.0341796875,0.99359130859375
1630411794345,-0.12518310546875,0.02935791015625,0.99359130859375
1630411794412,-0.12451171875,0.03179931640625,0.98828125
1630411794425,-0.12274169921875,0.0306396484375,0.98895263671875
1630411794425,-0.1239013671875,0.02764892578125,0.991455078125
1630411794488,-0.1263427734375,0.02734375,0.9888916015625
1630411794489,-0.12939453125,0.02825927734375,0.99072265625
1630411794490,-0.12921142578125,0.03240966796875,0.9908447265625
1630411794519,-0.12506103515625,0.02880859375,0.99188232421875
1630411794519,-0.1317138671875,0.02679443359375,0.99334716796875
1630411794528,-0.125244140625,0.02734375,0.994873046875
1630411794538,-0.12481689453125,0.02777099609375,0.9908447265625
1630411794538,-0.1239013671875,0.02490234375,0.99639892578125
1630411794538,-0.12664794921875,0.02685546875,0.9930419921875
1630411794616,-0.12677001953125,0.029296875,0.98883056640625
1630411794616,-0.125732421875,0.0274658203125,0.99041748046875
1630411794616,-0.12628173828125,0.0289306640625,0.98956298828125
1630411794673,-0.12274169921875,0.0294189453125,0.99114990234375
1630411794674,-0.12469482421875,0.02874755859375,0.991455078125
1630411794675,-0.12396240234375,0.02899169921875,0.99090576171875
1630411794736,-0.1229248046875,0.02703857421875,0.990966796875
1630411794737,-0.12762451171875,0.02947998046875,0.984375
1630411794737,-0.1275634765625,0.029296875,0.9842529296875
1630411794772,-0.12255859375,0.0308837890625,0.98651123046875
1630411794772,-0.1160888671875,0.02764892578125,0.99493408203125
1630411794773,-0.11822509765625,0.02630615234375,0.98974609375
1630411794838,-0.11724853515625,0.02880859375,0.999755859375
1630411794838,-0.11993408203125,0.0299072265625,0.9974365234375
1630411794838,-0.1173095703125,0.0279541015625,0.99224853515625
1630411794877,-0.11590576171875,0.02801513671875,0.99786376953125
1630411794890,-0.11932373046875,0.030029296875,0.9979248046875
1630411794890,-0.11810302734375,0.03485107421875,0.99578857421875
1630411794991,-0.11944580078125,0.03106689453125,0.9952392578125
1630411794991,-0.12445068359375,0.030029296875,0.9990234375
1630411794993,-0.11749267578125,0.0263671875,0.99615478515625
1630411795011,-0.11492919921875,0.025390625,0.990234375
1630411795011,-0.12261962890625,0.0281982421875,0.99066162109375
1630411795017,-0.12030029296875,0.03094482421875,0.99188232421875
1630411795110,-0.115966796875,0.02972412109375,0.99652099609375
1630411795112,-0.1212158203125,0.030029296875,0.99383544921875
1630411795112,-0.11773681640625,0.0284423828125,0.99163818359375
1630411795119,-0.11883544921875,0.0306396484375,0.99627685546875
1630411795119,-0.1231689453125,0.03240966796875,0.98968505859375
1630411795121,-0.12066650390625,0.03277587890625,0.99346923828125
1630411795190,-0.12579345703125,0.032470703125,0.98931884765625
1630411795190,-0.12493896484375,0.03045654296875,0.99005126953125
1630411795195,-0.123291015625,0.0308837890625,0.99188232421875
1630411795271,-0.12664794921875,0.0274658203125,0.98931884765625
1630411795271,-0.125732421875,0.02606201171875,0.9892578125
1630411795284,-0.126708984375,0.02838134765625,0.990234375
1630411795318,-0.12640380859375,0.02825927734375,0.99066162109375
1630411795318,-0.12689208984375,0.02996826171875,0.99169921875
1630411795321,-0.12640380859375,0.02923583984375,0.9923095703125
1630411795402,-0.1282958984375,0.0262451171875,0.98895263671875
1630411795406,-0.12652587890625,0.03076171875,0.991943359375
1630411795406,-0.12725830078125,0.0286865234375,0.9920654296875
1630411795456,-0.12921142578125,0.0323486328125,0.9886474609375
1630411795456,-0.12799072265625,0.03173828125,0.98748779296875
1630411795457,-0.12982177734375,0.029052734375,0.9931640625
1630411795496,-0.12933349609375,0.03277587890625,0.98553466796875
1630411795505,-0.13165283203125,0.0325927734375,0.9874267578125
1630411795516,-0.12457275390625,0.03363037109375,0.98626708984375
1630411795589,-0.128662109375,0.03253173828125,0.98468017578125
1630411795602,-0.1285400390625,0.03570556640625,0.9857177734375
1630411795603,-0.124267578125,0.03070068359375,0.99102783203125
1630411795644,-0.12249755859375,0.03192138671875,0.99542236328125
1630411795652,-0.1236572265625,0.029052734375,0.9925537109375
1630411795652,-0.12115478515625,0.03363037109375,0.9957275390625
1630411795694,-0.12310791015625,0.03790283203125,1.00152587890625
1630411795698,-0.1199951171875,0.038818359375,1.00579833984375
1630411795701,-0.122314453125,0.03521728515625,1.00390625
1630411795793,-0.12786865234375,0.03497314453125,1.004150390625
1630411795794,-0.11932373046875,0.0435791015625,1.00299072265625
1630411795795,-0.117919921875,0.0386962890625,1.0126953125
1630411795795,-0.12005615234375,0.04071044921875,1.0101318359375
1630411795802,-0.1287841796875,0.03594970703125,0.9913330078125
1630411795810,-0.12969970703125,0.03472900390625,0.99212646484375
1630411795821,-0.13232421875,0.03717041015625,0.9871826171875
1630411795822,-0.1298828125,0.0400390625,0.98968505859375
1630411795822,-0.134521484375,0.0380859375,1.00091552734375
1630411795900,-0.13824462890625,0.0439453125,0.99920654296875
1630411795901,-0.14459228515625,0.04217529296875,0.98828125
1630411795901,-0.14483642578125,0.03375244140625,0.9791259765625
1630411795936,-0.1536865234375,0.031982421875,0.97650146484375
1630411795936,-0.160888671875,0.03076171875,0.994140625
1630411795936,-0.154052734375,0.03314208984375,0.98822021484375
1630411796014,-0.17364501953125,0.0325927734375,0.97265625
1630411796024,-0.1649169921875,0.03643798828125,0.978759765625
1630411796024,-0.177734375,0.0301513671875,0.98419189453125
1630411796077,-0.18572998046875,0.03619384765625,0.9747314453125
1630411796077,-0.194091796875,0.02569580078125,0.9652099609375
1630411796078,-0.182373046875,0.03179931640625,1.0006103515625
1630411796160,-0.2032470703125,0.0045166015625,0.97357177734375
1630411796160,-0.195068359375,0.01422119140625,0.96124267578125
1630411796167,-0.20135498046875,-0.00225830078125,0.97442626953125
1630411796219,-0.2052001953125,0.00634765625,0.970947265625
1630411796227,-0.21185302734375,0.00701904296875,0.9599609375
1630411796238,-0.210693359375,-0.00347900390625,0.9517822265625
1630411796277,-0.228515625,-0.00592041015625,0.96063232421875
1630411796278,-0.2255859375,-0.010986328125,0.9644775390625
1630411796278,-0.21875,-0.033203125,0.96923828125
1630411796313,-0.2197265625,-0.10150146484375,0.99822998046875
1630411796314,-0.221435546875,-0.08233642578125,1.00347900390625
1630411796314,-0.2242431640625,-0.09954833984375,0.99169921875
1630411796339,-0.22491455078125,-0.08197021484375,0.96173095703125
1630411796339,-0.23828125,-0.077880859375,0.939697265625
1630411796347,-0.231201171875,-0.07000732421875,0.9373779296875
1630411796397,-0.23681640625,-0.10552978515625,0.94219970703125
1630411796397,-0.23687744140625,-0.08966064453125,0.94403076171875
1630411796405,-0.2464599609375,-0.123779296875,0.9415283203125
1630411796506,-0.24224853515625,-0.145751953125,0.92547607421875
1630411796511,-0.24267578125,-0.1666259765625,0.93316650390625
1630411796517,-0.23870849609375,-0.17547607421875,0.94281005859375
1630411796541,-0.23565673828125,-0.169189453125,0.94036865234375
1630411796541,-0.2322998046875,-0.17108154296875,0.94427490234375
1630411796541,-0.23388671875,-0.19525146484375,0.94195556640625
1630411796609,-0.2269287109375,-0.22607421875,0.96875
1630411796609,-0.22216796875,-0.22479248046875,0.93133544921875
1630411796610,-0.237548828125,-0.2198486328125,0.97119140625
1630411796702,-0.22528076171875,-0.20208740234375,0.9339599609375
1630411796702,-0.21099853515625,-0.17254638671875,0.94622802734375
1630411796703,-0.235595703125,-0.21295166015625,0.9334716796875
1630411796731,-0.23175048828125,-0.0986328125,1.053466796875
1630411796731,-0.2408447265625,-0.06097412109375,1.07781982421875
1630411796733,-0.2203369140625,-0.13763427734375,1.00262451171875
1630411796760,-0.2540283203125,-0.04803466796875,1.0545654296875
1630411796762,-0.2650146484375,-0.0555419921875,1.02215576171875
1630411796763,-0.293701171875,-0.0706787109375,0.9759521484375
1630411796815,-0.30023193359375,-0.041259765625,0.8525390625
1630411796815,-0.3057861328125,-0.07098388671875,0.928955078125
1630411796815,-0.3046875,-0.05572509765625,0.87567138671875
1630411796883,-0.304443359375,-0.02203369140625,0.87188720703125
1630411796883,-0.29583740234375,-0.02593994140625,0.847412109375
1630411796891,-0.30230712890625,-0.03643798828125,0.9051513671875
1630411796953,-0.289306640625,-0.0372314453125,0.94390869140625
1630411796953,-0.2938232421875,-0.0382080078125,0.92486572265625
1630411796962,-0.28082275390625,-0.03729248046875,0.9666748046875
1630411797022,-0.2833251953125,-0.0333251953125,0.990478515625
1630411797026,-0.27996826171875,-0.031005859375,0.99993896484375
1630411797043,-0.277099609375,-0.02301025390625,0.9874267578125
1630411797121,-0.268798828125,-0.01470947265625,0.96917724609375
1630411797122,-0.25311279296875,-0.044677734375,0.95098876953125
1630411797122,-0.26446533203125,-0.01849365234375,0.9559326171875
1630411797188,-0.240478515625,-0.07684326171875,0.97625732421875
1630411797188,-0.24127197265625,-0.08441162109375,0.97119140625
1630411797189,-0.2491455078125,-0.07086181640625,0.97393798828125
1630411797198,-0.241455078125,-0.062744140625,0.969970703125
1630411797200,-0.23443603515625,-0.01300048828125,0.9420166015625
1630411797201,-0.23931884765625,-0.031982421875,0.95867919921875
1630411797273,-0.23822021484375,0.02069091796875,0.9539794921875
1630411797273,-0.23284912109375,-0.0003662109375,0.93035888671875
1630411797273,-0.23724365234375,0.00830078125,0.9481201171875
1630411797301,-0.227783203125,-0.00689697265625,0.9832763671875
1630411797301,-0.22808837890625,0.02203369140625,0.9429931640625
1630411797310,-0.22613525390625,0.00946044921875,0.95587158203125
1630411797423,-0.2264404296875,-0.03509521484375,0.97802734375
1630411797423,-0.23040771484375,-0.0146484375,0.99859619140625
1630411797423,-0.2276611328125,-0.023681640625,0.99090576171875
1630411797483,-0.23248291015625,-0.031494140625,0.96783447265625
1630411797483,-0.235107421875,-0.02069091796875,0.98138427734375
1630411797484,-0.22918701171875,-0.03302001953125,0.97076416015625
1630411797525,-0.23712158203125,0.00079345703125,0.97918701171875
1630411797526,-0.23486328125,-0.01513671875,0.97528076171875
1630411797539,-0.2373046875,0.01336669921875,0.971923828125
1630411797539,-0.243896484375,0.0179443359375,0.96258544921875
1630411797539,-0.23455810546875,0.00897216796875,0.97332763671875
1630411797542,-0.2545166015625,0.02301025390625,0.96044921875
1630411797613,-0.25537109375,0.02978515625,0.9522705078125
1630411797613,-0.26373291015625,0.03375244140625,0.9500732421875
1630411797614,-0.26483154296875,0.03082275390625,0.94683837890625
1630411797640,-0.248779296875,0.0135498046875,0.9539794921875
1630411797640,-0.25970458984375,0.0189208984375,0.95281982421875
1630411797640,-0.25933837890625,0.025146484375,0.9486083984375
1630411797724,-0.243896484375,0.01214599609375,0.952880859375
1630411797725,-0.23553466796875,0.01275634765625,0.96075439453125
1630411797725,-0.2313232421875,0.0062255859375,0.96734619140625
1630411797747,-0.2301025390625,0.00640869140625,0.97515869140625
1630411797749,-0.23162841796875,0.00335693359375,0.96978759765625
1630411797760,-0.22442626953125,0.01806640625,0.98114013671875
1630411797852,-0.225830078125,0.03106689453125,0.98626708984375
1630411797852,-0.228759765625,0.04095458984375,0.98687744140625
1630411797857,-0.23223876953125,0.04681396484375,0.98382568359375
1630411797884,-0.23065185546875,0.0384521484375,0.96563720703125
1630411797884,-0.23028564453125,0.04345703125,0.9664306640625
1630411797887,-0.231689453125,0.047607421875,0.977294921875
1630411797955,-0.2325439453125,0.017822265625,0.96124267578125
1630411797955,-0.2344970703125,0.020263671875,0.9635009765625
1630411797955,-0.2271728515625,0.025390625,0.96466064453125
1630411797993,-0.22918701171875,0.0198974609375,0.97381591796875
1630411797993,-0.230224609375,0.01910400390625,0.96929931640625
1630411797993,-0.225341796875,0.0196533203125,0.9725341796875
1630411798092,-0.22369384765625,0.01739501953125,0.964599609375
1630411798093,-0.22589111328125,0.02020263671875,0.96807861328125
1630411798093,-0.22467041015625,0.02264404296875,0.96612548828125
1630411798151,-0.2109375,0.02294921875,0.96405029296875
1630411798153,-0.22174072265625,0.01971435546875,0.96551513671875
1630411798153,-0.21533203125,0.020263671875,0.95782470703125
1630411798184,-0.2047119140625,0.02960205078125,0.98004150390625
1630411798184,-0.20965576171875,0.0250244140625,0.97216796875
1630411798184,-0.20263671875,0.0245361328125,0.9798583984375
1630411798246,-0.20074462890625,0.0260009765625,0.98236083984375
1630411798246,-0.200927734375,0.02508544921875,0.98858642578125
1630411798253,-0.20166015625,0.023681640625,0.99151611328125
1630411798304,-0.21063232421875,0.01519775390625,0.99298095703125
1630411798304,-0.205810546875,0.021240234375,0.98577880859375
1630411798307,-0.204345703125,0.02301025390625,0.98883056640625
1630411798396,-0.20648193359375,0.0035400390625,0.9737548828125
1630411798397,-0.21038818359375,0.01214599609375,0.9915771484375
1630411798398,-0.2076416015625,0.0108642578125,0.98284912109375
1630411798436,-0.2078857421875,0.00299072265625,0.9705810546875
1630411798436,-0.2091064453125,-0.0009765625,0.96881103515625
1630411798436,-0.2076416015625,0.0008544921875,0.9744873046875
1630411798495,-0.2081298828125,0.005859375,0.9710693359375
1630411798495,-0.208740234375,0.01397705078125,0.972412109375
1630411798495,-0.20703125,0.00091552734375,0.967529296875
1630411798569,-0.212158203125,0.02801513671875,0.97528076171875
1630411798569,-0.2076416015625,0.02056884765625,0.9752197265625
1630411798570,-0.21075439453125,0.0223388671875,0.97674560546875
1630411798624,-0.209228515625,0.0274658203125,0.9736328125
1630411798624,-0.208251953125,0.0267333984375,0.97381591796875
1630411798626,-0.20953369140625,0.032470703125,0.9742431640625
1630411798676,-0.2032470703125,0.03118896484375,0.98040771484375
1630411798677,-0.2039794921875,0.03387451171875,0.978271484375
1630411798683,-0.20489501953125,0.02667236328125,0.97430419921875
1630411798716,-0.208251953125,0.029052734375,0.97015380859375
1630411798716,-0.2088623046875,0.027099609375,0.97137451171875
1630411798725,-0.21038818359375,0.02630615234375,0.9708251953125
1630411798808,-0.21173095703125,0.0186767578125,0.967529296875
1630411798808,-0.21124267578125,0.02227783203125,0.972412109375
1630411798809,-0.21307373046875,0.01922607421875,0.970703125
1630411798851,-0.21209716796875,0.02044677734375,0.9820556640625
1630411798852,-0.21124267578125,0.01922607421875,0.98101806640625
1630411798873,-0.2064208984375,0.0198974609375,0.98583984375
1630411798881,-0.20257568359375,0.03045654296875,0.97979736328125
1630411798883,-0.20550537109375,0.02490234375,0.986083984375
1630411798883,-0.20550537109375,0.0284423828125,0.98297119140625
1630411798937,-0.20599365234375,0.03668212890625,0.98040771484375
1630411798937,-0.2054443359375,0.041015625,0.98602294921875
1630411798946,-0.20721435546875,0.04412841796875,0.9892578125
1630411799016,-0.20745849609375,0.03729248046875,1.002685546875
1630411799035,-0.20587158203125,0.0452880859375,1.00701904296875
1630411799035,-0.20343017578125,0.04718017578125,0.99945068359375
1630411799074,-0.21563720703125,0.03094482421875,0.991455078125
1630411799074,-0.20941162109375,0.03094482421875,1.00396728515625
1630411799116,-0.2197265625,0.02783203125,0.97369384765625
1630411799127,-0.24859619140625,0.0181884765625,0.93017578125
1630411799137,-0.22821044921875,0.0203857421875,0.95440673828125
1630411799137,-0.2364501953125,0.01617431640625,0.94647216796875
1630411799233,-0.25830078125,0.02069091796875,0.9307861328125
1630411799234,-0.257080078125,0.01629638671875,0.9234619140625
1630411799236,-0.2569580078125,0.014892578125,0.92608642578125
1630411799246,-0.2572021484375,0.02423095703125,0.95867919921875
1630411799246,-0.26287841796875,0.02496337890625,0.9422607421875
1630411799255,-0.26116943359375,0.02508544921875,0.92938232421875
1630411799369,-0.25341796875,0.02313232421875,0.96966552734375
1630411799369,-0.25341796875,0.0238037109375,0.97271728515625
1630411799370,-0.25006103515625,0.02728271484375,0.96649169921875
1630411799394,-0.24700927734375,0.021484375,0.95330810546875
1630411799403,-0.24884033203125,0.02581787109375,0.96337890625
1630411799403,-0.24798583984375,0.02386474609375,0.95953369140625
1630411799432,-0.24493408203125,0.0174560546875,0.97235107421875
1630411799432,-0.247314453125,0.0157470703125,0.97222900390625
1630411799433,-0.24737548828125,0.02142333984375,0.9656982421875
1630411799545,-0.24365234375,0.01104736328125,0.96539306640625
1630411799545,-0.25,0.0086669921875,0.967041015625
1630411799547,-0.24310302734375,0.011474609375,0.96856689453125
1630411799555,-0.2452392578125,0.003662109375,0.96881103515625
1630411799559,-0.24267578125,0.00482177734375,0.9722900390625
1630411799623,-0.24676513671875,0.0029296875,0.9659423828125
1630411799623,-0.24530029296875,0.0029296875,0.96197509765625
1630411799625,-0.240966796875,0.0025634765625,0.96783447265625
1630411799664,-0.2386474609375,0.00531005859375,0.97015380859375
1630411799664,-0.23974609375,0.00244140625,0.96649169921875
1630411799668,-0.2398681640625,0.00732421875,0.95782470703125
1630411799714,-0.236572265625,0.01019287109375,0.9593505859375
1630411799714,-0.2392578125,0.00830078125,0.95556640625
1630411799714,-0.23406982421875,0.0126953125,0.96014404296875
1630411799802,-0.23602294921875,0.0135498046875,0.96484375
1630411799802,-0.23223876953125,0.01556396484375,0.97064208984375
1630411799803,-0.2357177734375,0.020751953125,0.98260498046875
1630411799838,-0.23297119140625,0.02392578125,0.96575927734375
1630411799838,-0.2315673828125,0.01971435546875,0.9776611328125
1630411799853,-0.22705078125,0.02117919921875,0.9718017578125
1630411799920,-0.23974609375,0.01708984375,0.96478271484375
1630411799921,-0.23651123046875,0.01861572265625,0.96661376953125
1630411799923,-0.233642578125,0.022216796875,0.97015380859375
1630411799949,-0.2401123046875,0.018310546875,0.97259521484375
1630411799949,-0.2374267578125,0.0189208984375,0.9658203125
1630411799949,-0.24017333984375,0.01495361328125,0.9627685546875
1630411800054,-0.2425537109375,0.018310546875,0.990478515625
1630411800054,-0.23553466796875,0.01898193359375,0.97540283203125
1630411800055,-0.23504638671875,0.015625,0.986572265625
1630411800106,-0.2369384765625,0.0133056640625,0.9525146484375
1630411800106,-0.24407958984375,0.01593017578125,0.9580078125
1630411800106,-0.2364501953125,0.01397705078125,0.96240234375
1630411800158,-0.24737548828125,0.02032470703125,0.962646484375
1630411800158,-0.2440185546875,0.02203369140625,0.96026611328125
1630411800158,-0.24468994140625,0.01971435546875,0.96728515625
1630411800221,-0.24395751953125,0.02056884765625,0.9647216796875
1630411800221,-0.248046875,0.01910400390625,0.95953369140625
1630411800221,-0.24407958984375,0.0184326171875,0.96380615234375
1630411800270,-0.24078369140625,0.01708984375,0.9600830078125
1630411800270,-0.239501953125,0.01727294921875,0.96478271484375
1630411800270,-0.240478515625,0.01751708984375,0.95989990234375
1630411800301,-0.23785400390625,0.02301025390625,0.96417236328125
1630411800302,-0.23760986328125,0.019775390625,0.97515869140625
1630411800302,-0.23687744140625,0.0189208984375,0.9716796875
1630411800373,-0.240478515625,0.02203369140625,0.96844482421875
1630411800374,-0.24346923828125,0.0135498046875,0.96368408203125
1630411800385,-0.2392578125,0.01654052734375,0.9647216796875
1630411800454,-0.2357177734375,0.01531982421875,0.96197509765625
1630411800455,-0.23553466796875,0.01165771484375,0.9605712890625
1630411800457,-0.234619140625,0.01483154296875,0.97271728515625
1630411800501,-0.23175048828125,0.012939453125,0.975830078125
1630411800501,-0.2291259765625,0.01629638671875,0.9686279296875
1630411800502,-0.2298583984375,0.0169677734375,0.96636962890625
1630411800554,-0.22869873046875,0.011962890625,0.98388671875
1630411800554,-0.22772216796875,0.01446533203125,0.97442626953125
1630411800643,-0.2291259765625,0.010498046875,0.97918701171875
1630411800643,-0.228515625,0.0135498046875,0.97418212890625
1630411800643,-0.231689453125,0.018798828125,0.967041015625
1630411800681,-0.2310791015625,0.017333984375,0.9656982421875
1630411800693,-0.23406982421875,0.02044677734375,0.96380615234375
1630411800693,-0.23736572265625,0.01702880859375,0.96722412109375
1630411800714,-0.23370361328125,0.01934814453125,0.964111328125
1630411800718,-0.23974609375,0.021240234375,0.9718017578125
1630411800718,-0.23858642578125,0.0181884765625,0.97442626953125
1630411800777,-0.2342529296875,0.01226806640625,0.97076416015625
1630411800777,-0.23638916015625,0.02032470703125,0.97686767578125
1630411800778,-0.227783203125,0.00994873046875,0.96533203125
1630411800847,-0.2364501953125,0.0076904296875,0.96673583984375
1630411800847,-0.23626708984375,0.00439453125,0.9656982421875
1630411800848,-0.2314453125,0.00537109375,0.96624755859375
1630411800874,-0.234619140625,-6.103515625e-05,0.9676513671875
1630411800878,-0.2322998046875,0.00299072265625,0.9671630859375
1630411800878,-0.23077392578125,0.0087890625,0.9710693359375
1630411800977,-0.22802734375,0.01416015625,0.96710205078125
1630411800977,-0.22900390625,0.01129150390625,0.974609375
1630411800977,-0.2301025390625,0.017333984375,0.9652099609375
1630411801087,-0.230224609375,0.02044677734375,0.962890625
1630411801087,-0.2313232421875,0.0155029296875,0.9737548828125
1630411801087,-0.230224609375,0.0155029296875,0.96392822265625
1630411801102,-0.22052001953125,0.01214599609375,0.97662353515625
1630411801102,-0.22393798828125,0.01220703125,0.9747314453125
1630411801103,-0.22802734375,0.01519775390625,0.980712890625
1630411801160,-0.22711181640625,0.004150390625,0.97064208984375
1630411801160,-0.22796630859375,0.00360107421875,0.97650146484375
1630411801163,-0.22564697265625,0.01025390625,0.971435546875
1630411801178,-0.2247314453125,0.0172119140625,0.9696044921875
1630411801197,-0.2247314453125,0.013427734375,0.96441650390625
1630411801197,-0.22802734375,0.00982666015625,0.96502685546875
1630411801273,-0.22412109375,0.01727294921875,0.97943115234375
1630411801274,-0.22637939453125,0.01971435546875,0.9805908203125
1630411801283,-0.224609375,0.02044677734375,0.97430419921875
1630411801320,-0.22357177734375,0.01507568359375,0.9725341796875
1630411801320,-0.22265625,0.01690673828125,0.976318359375
1630411801320,-0.22576904296875,0.0133056640625,0.97747802734375
1630411801380,-0.22332763671875,0.01287841796875,0.96563720703125
1630411801380,-0.22650146484375,0.012451171875,0.969970703125
1630411801380,-0.23162841796875,0.0093994140625,0.966796875
1630411801411,-0.22772216796875,0.01617431640625,0.96990966796875
1630411801411,-0.2342529296875,0.02130126953125,0.96771240234375
1630411801411,-0.23260498046875,0.017333984375,0.966796875
1630411801499,-0.23095703125,0.0203857421875,0.96710205078125
1630411801499,-0.23468017578125,0.01519775390625,0.96881103515625
1630411801499,-0.23663330078125,0.01788330078125,0.96990966796875
1630411801534,-0.236572265625,0.010009765625,0.9722900390625
1630411801534,-0.2340087890625,0.01129150390625,0.96405029296875
1630411801535,-0.2333984375,0.01141357421875,0.97137451171875
1630411801622,-0.23236083984375,0.01080322265625,0.96759033203125
1630411801622,-0.2353515625,0.00909423828125,0.96295166015625
1630411801623,-0.2315673828125,0.0089111328125,0.9725341796875
1630411801663,-0.23583984375,0.010498046875,0.967529296875
1630411801663,-0.23345947265625,0.0174560546875,0.9736328125
1630411801663,-0.2337646484375,0.00787353515625,0.96649169921875
1630411801764,-0.2357177734375,0.01983642578125,0.965576171875
1630411801765,-0.23358154296875,0.02142333984375,0.97265625
1630411801766,-0.23358154296875,0.01971435546875,0.963134765625
1630411801842,-0.237548828125,0.01287841796875,0.9649658203125
1630411801842,-0.2386474609375,0.01702880859375,0.967529296875
1630411801843,-0.233642578125,0.01190185546875,0.962890625
1630411801843,-0.2366943359375,0.01629638671875,0.969482421875
1630411801846,-0.23675537109375,0.0146484375,0.95941162109375
1630411801854,-0.23699951171875,0.01824951171875,0.968017578125
1630411801893,-0.2352294921875,0.00750732421875,0.969970703125
1630411801893,-0.2353515625,0.01202392578125,0.962890625
1630411801903,-0.23773193359375,0.00653076171875,0.96826171875
1630411801983,-0.23919677734375,0.00933837890625,0.9681396484375
1630411801983,-0.23486328125,0.01220703125,0.96429443359375
1630411801984,-0.23095703125,0.01239013671875,0.96533203125
1630411802014,-0.231201171875,0.01654052734375,0.97216796875
1630411802014,-0.23004150390625,0.01739501953125,0.97564697265625
1630411802015,-0.2318115234375,0.01446533203125,0.97259521484375
1630411802113,-0.2333984375,0.01641845703125,0.96893310546875
1630411802113,-0.23046875,0.01788330078125,0.970947265625
1630411802113,-0.23486328125,0.01629638671875,0.96844482421875
1630411802191,-0.2337646484375,0.01593017578125,0.9622802734375
1630411802191,-0.2374267578125,0.0167236328125,0.970703125
1630411802192,-0.2376708984375,0.019287109375,0.9649658203125
1630411802273,-0.23114013671875,0.016845703125,0.96728515625
1630411802273,-0.23480224609375,0.0140380859375,0.97332763671875
1630411802275,-0.23492431640625,0.01092529296875,0.97283935546875
1630411804965,-0.21728515625,0.02203369140625,0.96844482421875
1630411804965,-0.21142578125,0.01751708984375,0.9713134765625
1630411804965,-0.2147216796875,0.0196533203125,0.9674072265625
1630411805965,-0.21002197265625,0.02069091796875,0.971923828125
1630411805965,-0.21160888671875,0.018310546875,0.97479248046875
1630411805965,-0.21038818359375,0.01837158203125,0.97406005859375
1630411815863,-0.2122802734375,0.008056640625,0.9718017578125
1630411815864,-0.21087646484375,0.0107421875,0.97552490234375
1630411820024,-0.212158203125,0.01275634765625,0.9788818359375
1630411820025,-0.21539306640625,0.01202392578125,0.97735595703125
1630411820025,-0.21209716796875,0.0078125,0.976806640625
1630411821331,-0.20928955078125,0.00909423828125,0.97821044921875
1630411821347,-0.21417236328125,0.0064697265625,0.97314453125
1630411821347,-0.20733642578125,0.00836181640625,0.97637939453125
1630411821362,-0.21044921875,0.00738525390625,0.97943115234375
1630411821362,-0.20574951171875,0.0076904296875,0.98199462890625
1630411821362,-0.207763671875,0.0101318359375,0.977294921875
1630411821362,-0.203857421875,0.0086669921875,0.97967529296875
1630411824440,-0.2169189453125,0.0101318359375,0.9700927734375
1630411824440,-0.216064453125,0.0074462890625,0.97186279296875
1630411824440,-0.2117919921875,0.0111083984375,0.96923828125
1630411824534,-0.2132568359375,0.010498046875,0.969970703125
1630411824534,-0.2119140625,0.01470947265625,0.97039794921875
1630411824534,-0.2120361328125,0.0125732421875,0.97161865234375
1630411824550,-0.212890625,0.01153564453125,0.97735595703125
1630411824550,-0.20941162109375,0.0113525390625,0.9749755859375
1630411824550,-0.213623046875,0.01031494140625,0.9727783203125
1630411824612,-0.2113037109375,0.01202392578125,0.97369384765625
1630411824612,-0.20635986328125,0.01190185546875,0.97967529296875
1630411824612,-0.21063232421875,0.011474609375,0.9776611328125
1630411824675,-0.20855712890625,0.00604248046875,0.97662353515625
1630411824675,-0.211669921875,0.0089111328125,0.98126220703125
1630411824675,-0.20794677734375,0.0087890625,0.97564697265625
1630411824706,-0.20745849609375,0.01318359375,0.9749755859375
1630411824706,-0.2061767578125,0.00958251953125,0.97613525390625
1630411824706,-0.2099609375,0.01190185546875,0.97442626953125
1630411824768,-0.21075439453125,0.0140380859375,0.976806640625
1630411824768,-0.20556640625,0.0108642578125,0.97637939453125
1630411824768,-0.20721435546875,0.01409912109375,0.977783203125
1630411824831,-0.2139892578125,0.01470947265625,0.9722900390625
1630411824831,-0.2108154296875,0.01556396484375,0.97564697265625
1630411824831,-0.2099609375,0.014404296875,0.97564697265625
1630411824909,-0.21502685546875,0.01641845703125,0.9705810546875
1630411824909,-0.217529296875,0.01092529296875,0.97210693359375
1630411824909,-0.2122802734375,0.01300048828125,0.970458984375
1630411824987,-0.2138671875,0.00958251953125,0.97247314453125
1630411824987,-0.2152099609375,0.01141357421875,0.97216796875
1630411824987,-0.21331787109375,0.01141357421875,0.96954345703125
1630411825050,-0.2139892578125,0.01226806640625,0.9720458984375
1630411825050,-0.2120361328125,0.01019287109375,0.97540283203125
1630411825050,-0.211669921875,0.01177978515625,0.97528076171875
1630411825081,-0.21295166015625,0.010986328125,0.9776611328125
1630411825081,-0.21307373046875,0.01324462890625,0.9736328125
1630411825081,-0.2139892578125,0.009033203125,0.97808837890625
1630411825128,-0.2166748046875,0.0133056640625,0.971435546875
1630411825128,-0.2113037109375,0.012451171875,0.97308349609375
1630411825128,-0.21588134765625,0.0101318359375,0.97296142578125
1630411825196,-0.21337890625,0.01324462890625,0.969482421875
1630411825211,-0.2113037109375,0.0133056640625,0.9713134765625
1630411825290,-0.21142578125,0.0103759765625,0.9715576171875
1630411825290,-0.206787109375,0.0078125,0.97467041015625
1630411825290,-0.20794677734375,0.01165771484375,0.97406005859375
1630411825290,-0.2130126953125,0.0120849609375,0.9697265625
1630411825290,-0.2115478515625,0.014404296875,0.97064208984375
1630411825290,-0.21051025390625,0.00860595703125,0.97705078125
1630411825368,-0.21002197265625,0.00885009765625,0.9788818359375
1630411825368,-0.21258544921875,0.013427734375,0.9796142578125
1630411825368,-0.20947265625,0.00994873046875,0.98016357421875
1630411825399,-0.20819091796875,0.004638671875,0.9744873046875
1630411825402,-0.2122802734375,0.010498046875,0.9761962890625
1630411825402,-0.20855712890625,0.014404296875,0.9742431640625
1630411825461,-0.20849609375,0.01690673828125,0.976806640625
1630411825461,-0.2119140625,0.0159912109375,0.974365234375
1630411825461,-0.21038818359375,0.01409912109375,0.977783203125
1630411825584,-0.208984375,0.01336669921875,0.974853515625
1630411825584,-0.20928955078125,0.00958251953125,0.9730224609375
1630411825631,-0.21014404296875,0.01202392578125,0.96868896484375
1630411825646,-0.21258544921875,0.00909423828125,0.96923828125
1630411825646,-0.2154541015625,0.0096435546875,0.97174072265625
1630411825677,-0.21417236328125,0.00799560546875,0.9744873046875
1630411825677,-0.21466064453125,0.00982666015625,0.97515869140625
1630411825677,-0.2156982421875,0.00750732421875,0.97259521484375
1630411825693,-0.21087646484375,0.01007080078125,0.979736328125
1630411825693,-0.21246337890625,0.01031494140625,0.9737548828125
1630411825693,-0.21380615234375,0.01141357421875,0.97412109375
1630411825787,-0.2130126953125,0.00994873046875,0.978515625
1630411825787,-0.21136474609375,0.00775146484375,0.97772216796875
1630411825787,-0.21051025390625,0.00970458984375,0.97552490234375
1630411825834,-0.21234130859375,0.0087890625,0.974853515625
1630411825834,-0.21380615234375,0.0078125,0.97296142578125
1630411825834,-0.21380615234375,0.008056640625,0.97039794921875
1630411825896,-0.212890625,0.0076904296875,0.9735107421875
1630411825896,-0.21240234375,0.00982666015625,0.971435546875
1630411825896,-0.21142578125,0.00897216796875,0.974853515625
1630411825959,-0.21075439453125,0.0103759765625,0.9764404296875
1630411825959,-0.208740234375,0.012939453125,0.97406005859375
1630411826021,-0.20477294921875,0.0103759765625,0.9791259765625
1630411826021,-0.20587158203125,0.01068115234375,0.97979736328125
1630411826021,-0.20904541015625,0.0101318359375,0.97119140625
1630411826052,-0.207275390625,0.0101318359375,0.9835205078125
1630411826052,-0.20550537109375,0.01190185546875,0.9769287109375
1630411826052,-0.2049560546875,0.0086669921875,0.9788818359375
1630411826146,-0.20660400390625,0.01055908203125,0.98150634765625
1630411826146,-0.21246337890625,0.0054931640625,0.98919677734375
1630411826146,-0.2113037109375,0.00225830078125,0.9814453125
1630411826177,-0.2125244140625,0.00872802734375,0.96929931640625
1630411826177,-0.20831298828125,0.01092529296875,0.9730224609375
1630411826287,-0.20721435546875,0.01593017578125,0.975341796875
1630411826287,-0.2086181640625,0.013671875,0.97454833984375
1630411826287,-0.20611572265625,0.0108642578125,0.974609375
1630411826302,-0.2060546875,0.0137939453125,0.9744873046875
1630411826302,-0.20855712890625,0.0126953125,0.9730224609375
1630411826380,-0.21417236328125,0.01812744140625,0.9757080078125
1630411826380,-0.21063232421875,0.01116943359375,0.97637939453125
1630411826380,-0.2132568359375,0.01458740234375,0.9727783203125
1630411826478,-0.214111328125,0.00750732421875,0.9764404296875
1630411826478,-0.21124267578125,0.01177978515625,0.97308349609375
1630411826478,-0.21368408203125,0.012939453125,0.9744873046875
1630411826492,-0.20947265625,0.01715087890625,0.9752197265625
1630411826492,-0.21490478515625,0.01165771484375,0.97698974609375
1630411826493,-0.20928955078125,0.013671875,0.97174072265625
1630411826587,-0.2120361328125,0.020263671875,0.978271484375
1630411826587,-0.21319580078125,0.01953125,0.97674560546875
1630411826587,-0.2122802734375,0.018310546875,0.97833251953125
1630411826660,-0.20880126953125,0.0186767578125,0.97930908203125
1630411826660,-0.209228515625,0.01806640625,0.9718017578125
1630411826660,-0.20745849609375,0.01629638671875,0.97076416015625
1630411826692,-0.20947265625,0.0,0.96966552734375
1630411826692,-0.20684814453125,0.0133056640625,0.96893310546875
1630411826692,-0.207763671875,0.0159912109375,0.9693603515625
1630411826739,-0.2064208984375,0.01458740234375,0.9710693359375
1630411826761,-0.20404052734375,0.01629638671875,0.9862060546875
1630411826761,-0.2261962890625,0.00823974609375,1.0093994140625
1630411826839,-0.20526123046875,0.01513671875,0.97943115234375
1630411826839,-0.20703125,0.01629638671875,0.97381591796875
1630411826839,-0.20013427734375,0.01678466796875,0.97845458984375
1630411826886,-0.2078857421875,0.01397705078125,0.99664306640625
1630411826886,-0.20367431640625,0.013916015625,0.9876708984375
1630411826949,-0.208251953125,0.00921630859375,0.97900390625
1630411826949,-0.2110595703125,0.012451171875,0.96875
1630411826949,-0.20831298828125,0.0118408203125,0.971435546875
1630411826995,-0.21044921875,0.01409912109375,0.96728515625
1630411826995,-0.206298828125,0.0137939453125,0.97894287109375
1630411826995,-0.20819091796875,0.0137939453125,0.9683837890625
1630411827027,-0.20849609375,0.01641845703125,0.97265625
1630411827027,-0.211181640625,0.013427734375,0.978271484375
1630411827058,-0.214111328125,0.01214599609375,0.9676513671875
1630411827058,-0.213134765625,0.015869140625,0.96966552734375
1630411827074,-0.21295166015625,0.01123046875,0.9688720703125
1630411827136,-0.214599609375,0.00762939453125,0.972412109375
1630411827136,-0.21905517578125,0.01348876953125,0.970703125
1630411827136,-0.217529296875,0.010498046875,0.974853515625
1630411827167,-0.2156982421875,0.01458740234375,0.9742431640625
1630411827167,-0.216064453125,0.01495361328125,0.9744873046875
1630411827167,-0.21343994140625,0.013916015625,0.9744873046875
1630411827261,-0.21099853515625,0.01239013671875,0.9788818359375
1630411827261,-0.21014404296875,0.00946044921875,0.97564697265625
1630411827261,-0.20916748046875,0.01177978515625,0.97735595703125
1630411827292,-0.20855712890625,0.01641845703125,0.97705078125
1630411827292,-0.20611572265625,0.01544189453125,0.97467041015625
1630411827292,-0.2119140625,0.0137939453125,0.97698974609375
1630411827402,-0.21063232421875,0.01715087890625,0.97564697265625
1630411827402,-0.21014404296875,0.01568603515625,0.97467041015625
1630411827402,-0.20867919921875,0.01983642578125,0.97186279296875
1630411827433,-0.20751953125,0.0177001953125,0.97265625
1630411827448,-0.20855712890625,0.01763916015625,0.97283935546875
1630411827449,-0.2103271484375,0.01837158203125,0.9720458984375
1630411827482,-0.205810546875,0.01593017578125,0.97552490234375
1630411827482,-0.20147705078125,0.01611328125,0.9747314453125
1630411827482,-0.204833984375,0.0194091796875,0.975341796875
1630411827529,-0.20330810546875,0.01629638671875,0.9788818359375
1630411827529,-0.20068359375,0.019775390625,0.97967529296875
1630411827529,-0.2015380859375,0.0,0.9781494140625
1630411827607,-0.20111083984375,0.01861572265625,0.98248291015625
1630411827607,-0.20306396484375,0.013916015625,0.9837646484375
1630411827607,-0.20220947265625,0.0142822265625,0.98211669921875
1630411827716,-0.201904296875,0.0185546875,0.9764404296875
1630411827716,-0.20294189453125,0.0184326171875,0.97821044921875
1630411827716,-0.20013427734375,0.01654052734375,0.9808349609375
1630411827747,-0.19989013671875,0.02093505859375,0.97857666015625
1630411827747,-0.20111083984375,0.019775390625,0.9801025390625
1630411827747,-0.20037841796875,0.01800537109375,0.97662353515625
1630411827794,-0.2037353515625,0.0189208984375,0.9757080078125
1630411827810,-0.2081298828125,0.01470947265625,0.973388671875
1630411827810,-0.202392578125,0.02117919921875,0.97186279296875
1630411827826,-0.20306396484375,0.011962890625,0.9683837890625
1630411827841,-0.20892333984375,0.0147705078125,0.98052978515625
1630411827841,-0.20703125,0.01690673828125,0.98193359375
1630411827888,-0.20770263671875,0.0198974609375,0.97393798828125
1630411827904,-0.20721435546875,0.0205078125,0.97503662109375
1630411827904,-0.21075439453125,0.01434326171875,0.984375
1630411827997,-0.20721435546875,0.0177001953125,0.979736328125
1630411828013,-0.2071533203125,0.014404296875,0.97210693359375
1630411828013,-0.2122802734375,0.01422119140625,0.96624755859375
1630411828013,-0.2117919921875,0.01458740234375,0.95928955078125
1630411828013,-0.20965576171875,0.024169921875,0.9827880859375
1630411828013,-0.2078857421875,0.021728515625,0.98394775390625
1630411828138,-0.21527099609375,0.02032470703125,0.96734619140625
1630411828138,-0.2127685546875,0.013916015625,0.9722900390625
1630411828138,-0.2127685546875,0.01953125,0.97491455078125
1630411828138,-0.2169189453125,0.01568603515625,0.96728515625
1630411828138,-0.21392822265625,0.0250244140625,0.978759765625
1630411828138,-0.2142333984375,0.02691650390625,0.9755859375
1630411828185,-0.21514892578125,0.0283203125,0.96990966796875
1630411828185,-0.21551513671875,0.0318603515625,0.962158203125
1630411828185,-0.21563720703125,0.03216552734375,0.96929931640625
1630411828234,-0.217529296875,0.03302001953125,0.97198486328125
1630411828250,-0.21685791015625,0.03173828125,0.97222900390625
1630411828250,-0.21112060546875,0.031005859375,0.97235107421875
1630411828328,-0.21337890625,0.0262451171875,0.97943115234375
1630411828328,-0.214111328125,0.024658203125,0.98016357421875
1630411828344,-0.21185302734375,0.017822265625,0.9814453125
1630411828391,-0.2108154296875,0.01995849609375,0.98040771484375
1630411828391,-0.21002197265625,0.02716064453125,0.97369384765625
1630411828391,-0.2132568359375,0.01934814453125,0.97796630859375
1630411828453,-0.21282958984375,0.0283203125,0.9639892578125
1630411828453,-0.21221923828125,0.02691650390625,0.97247314453125
1630411828469,-0.21478271484375,0.02935791015625,0.969482421875
1630411828500,-0.21893310546875,0.02679443359375,0.9561767578125
1630411828500,-0.2174072265625,0.02850341796875,0.9591064453125
1630411828609,-0.21612548828125,0.03021240234375,0.962158203125
1630411828609,-0.21380615234375,0.027099609375,0.97821044921875
1630411828609,-0.2120361328125,0.027099609375,0.98492431640625
1630411828641,-0.20623779296875,0.03009033203125,0.97772216796875
1630411828641,-0.210205078125,0.02972412109375,0.9825439453125
1630411828641,-0.2080078125,0.0352783203125,0.98309326171875
1630411828672,-0.20697021484375,0.03253173828125,0.98370361328125
1630411828672,-0.2098388671875,0.0328369140625,0.9920654296875
1630411828750,-0.21246337890625,0.02862548828125,0.97064208984375
1630411828750,-0.2086181640625,0.02490234375,0.9732666015625
1630411828750,-0.20367431640625,0.031494140625,0.972900390625
1630411828797,-0.208740234375,0.03125,0.973876953125
1630411828797,-0.21270751953125,0.03070068359375,0.97442626953125
1630411828797,-0.21002197265625,0.0272216796875,0.97442626953125
1630411828859,-0.2073974609375,0.0303955078125,0.97064208984375
1630411828859,-0.21417236328125,0.0341796875,0.9674072265625
1630411828891,-0.2100830078125,0.0364990234375,0.97344970703125
1630411828891,-0.20770263671875,0.030517578125,0.97772216796875
1630411828891,-0.21295166015625,0.03289794921875,0.975830078125
1630411828984,-0.2066650390625,0.030517578125,0.973388671875
1630411828984,-0.20733642578125,0.02545166015625,0.97528076171875
1630411829015,-0.20611572265625,0.02752685546875,0.97412109375
1630411829015,-0.2060546875,0.0279541015625,0.97723388671875
1630411829031,-0.20648193359375,0.02874755859375,0.97845458984375
1630411829078,-0.1988525390625,0.02911376953125,0.98028564453125
1630411829078,-0.2025146484375,0.0313720703125,0.978271484375
1630411829125,-0.2056884765625,0.02960205078125,0.970703125
1630411829125,-0.20367431640625,0.02789306640625,0.9774169921875
1630411829203,-0.20733642578125,0.02716064453125,0.97540283203125
1630411829203,-0.2064208984375,0.03228759765625,0.9697265625
1630411829283,-0.20849609375,0.02490234375,0.978271484375
1630411829283,-0.20782470703125,0.02740478515625,0.97613525390625
1630411829283,-0.2076416015625,0.0264892578125,0.97430419921875
1630411829393,-0.2083740234375,0.02630615234375,0.9793701171875
1630411829393,-0.20843505859375,0.02294921875,0.977294921875
1630411829408,-0.20526123046875,0.025390625,0.98553466796875
1630411829408,-0.2025146484375,0.02593994140625,0.9783935546875
1630411829408,-0.2056884765625,0.02587890625,0.983154296875
1630411829440,-0.20281982421875,0.02838134765625,0.97039794921875
1630411829455,-0.19793701171875,0.029052734375,0.975341796875
1630411829455,-0.2034912109375,0.02825927734375,0.97344970703125
1630411829486,-0.20196533203125,0.02777099609375,0.9737548828125
1630411829486,-0.20660400390625,0.0291748046875,0.97509765625
1630411829533,-0.20001220703125,0.02728271484375,0.97320556640625
1630411829533,-0.20428466796875,0.0274658203125,0.9749755859375
1630411829533,-0.20111083984375,0.0264892578125,0.97540283203125
1630411829611,-0.201904296875,0.02337646484375,0.97802734375
1630411829611,-0.20263671875,0.0234375,0.9791259765625
1630411829611,-0.20123291015625,0.02606201171875,0.97735595703125
1630411829658,-0.19744873046875,0.01995849609375,0.98004150390625
1630411829658,-0.199462890625,0.02410888671875,0.97991943359375
1630411829721,-0.1976318359375,0.0194091796875,0.9832763671875
1630411829721,-0.19677734375,0.0245361328125,0.98333740234375
1630411829721,-0.201171875,0.02850341796875,0.984619140625
1630411829830,-0.20458984375,0.02685546875,0.97161865234375
1630411829830,-0.19976806640625,0.0311279296875,0.9837646484375
1630411829830,-0.20220947265625,0.02520751953125,0.9796142578125
1630411829893,-0.2103271484375,0.02423095703125,0.97064208984375
1630411829893,-0.2083740234375,0.02508544921875,0.97119140625
1630411829893,-0.2088623046875,0.02197265625,0.970458984375
1630411829924,-0.2117919921875,0.01885986328125,0.97216796875
1630411829924,-0.2073974609375,0.02056884765625,0.9727783203125
1630411829939,-0.210693359375,0.01812744140625,0.97821044921875
1630411829955,-0.2083740234375,0.02545166015625,0.9786376953125
1630411829971,-0.2091064453125,0.0205078125,0.97216796875
1630411829971,-0.2066650390625,0.019775390625,0.97430419921875
1630411830049,-0.2064208984375,0.02496337890625,0.978515625
1630411830049,-0.20745849609375,0.0277099609375,0.97918701171875
1630411830049,-0.20703125,0.0289306640625,0.98065185546875
1630411830096,-0.20953369140625,0.02587890625,0.97857666015625
1630411830096,-0.207275390625,0.0272216796875,0.9730224609375
1630411830096,-0.20404052734375,0.0283203125,0.97406005859375
1630411830143,-0.20794677734375,0.03033447265625,0.97088623046875
1630411830143,-0.20849609375,0.02215576171875,0.97283935546875
1630411830189,-0.20953369140625,0.0279541015625,0.97625732421875
1630411830189,-0.20928955078125,0.029052734375,0.97412109375
1630411830189,-0.20599365234375,0.026611328125,0.97265625
1630411830267,-0.205810546875,0.02655029296875,0.975830078125
1630411830286,-0.2061767578125,0.02484130859375,0.974853515625
1630411830286,-0.21099853515625,0.02899169921875,0.9781494140625
1630411830333,-0.20428466796875,0.02459716796875,0.97613525390625
1630411830333,-0.20733642578125,0.02679443359375,0.977294921875
1630411830364,-0.2080078125,0.02740478515625,0.9779052734375
1630411830411,-0.20361328125,0.02630615234375,0.9801025390625
1630411830411,-0.202880859375,0.02752685546875,0.97979736328125
1630411830426,-0.20660400390625,0.03070068359375,0.97998046875
1630411830473,-0.206298828125,0.0303955078125,0.97442626953125
1630411830473,-0.2093505859375,0.028564453125,0.97515869140625
1630411830473,-0.2100830078125,0.03216552734375,0.98028564453125
1630411830505,-0.21563720703125,0.02618408203125,0.9696044921875
1630411830520,-0.20941162109375,0.02886962890625,0.96734619140625
1630411830520,-0.214599609375,0.02557373046875,0.96978759765625
1630411830536,-0.21502685546875,0.0264892578125,0.9716796875
1630411830551,-0.21246337890625,0.022705078125,0.97467041015625
1630411830551,-0.21075439453125,0.0223388671875,0.9732666015625
1630411830630,-0.2076416015625,0.0245361328125,0.97625732421875
1630411830645,-0.2042236328125,0.023193359375,0.9801025390625
1630411830645,-0.206298828125,0.02203369140625,0.97772216796875
1630411830661,-0.20745849609375,0.02642822265625,0.97467041015625
1630411830676,-0.207763671875,0.0260009765625,0.97943115234375
1630411830676,-0.208740234375,0.02630615234375,0.97686767578125
1630411830739,-0.20556640625,0.0238037109375,0.97509765625
1630411830739,-0.2088623046875,0.0267333984375,0.97564697265625
1630411830739,-0.21075439453125,0.02703857421875,0.972900390625
1630411830786,-0.2122802734375,0.02593994140625,0.97308349609375
1630411830786,-0.207275390625,0.02459716796875,0.970703125
1630411830801,-0.20989990234375,0.026611328125,0.97161865234375
1630411830833,-0.210693359375,0.024658203125,0.9776611328125
1630411830833,-0.20623779296875,0.0233154296875,0.97332763671875
1630411830848,-0.2109375,0.02716064453125,0.9700927734375
1630411830911,-0.20867919921875,0.02581787109375,0.9754638671875
1630411830911,-0.20806884765625,0.01953125,0.9814453125
1630411830911,-0.20611572265625,0.02276611328125,0.97662353515625
1630411830942,-0.20965576171875,0.01947021484375,0.9775390625
1630411830942,-0.205810546875,0.02410888671875,0.97802734375
1630411830942,-0.2064208984375,0.025390625,0.9766845703125
1630411831036,-0.20819091796875,0.02349853515625,0.97674560546875
1630411831036,-0.20367431640625,0.02703857421875,0.97930908203125
1630411831036,-0.2030029296875,0.02386474609375,0.9786376953125
1630411831067,-0.203125,0.02923583984375,0.9830322265625
1630411831067,-0.20501708984375,0.02923583984375,0.98040771484375
1630411831067,-0.2093505859375,0.0299072265625,0.97613525390625
1630411831145,-0.21343994140625,0.0303955078125,0.97003173828125
1630411831145,-0.21612548828125,0.02301025390625,0.969970703125
1630411831145,-0.21173095703125,0.0277099609375,0.96807861328125
1630411831192,-0.21759033203125,0.0238037109375,0.97027587890625
1630411831192,-0.217041015625,0.0255126953125,0.9691162109375
1630411831192,-0.21368408203125,0.02117919921875,0.971435546875
1630411831270,-0.21258544921875,0.02545166015625,0.968505859375
1630411831270,-0.2115478515625,0.0247802734375,0.97467041015625
1630411831270,-0.214111328125,0.026611328125,0.97039794921875
1630411831382,-0.2119140625,0.02581787109375,0.97796630859375
1630411831382,-0.209228515625,0.02264404296875,0.97686767578125
1630411831382,-0.21466064453125,0.0242919921875,0.9793701171875
1630411831382,-0.20849609375,0.0284423828125,0.97467041015625
1630411831382,-0.2125244140625,0.0274658203125,0.97528076171875
1630411831382,-0.20867919921875,0.0272216796875,0.97552490234375
1630411831429,-0.210205078125,0.0262451171875,0.97454833984375
1630411831429,-0.21356201171875,0.025146484375,0.97088623046875
1630411831429,-0.21038818359375,0.02581787109375,0.97491455078125
1630411831476,-0.20953369140625,0.02398681640625,0.97259521484375
1630411831476,-0.21112060546875,0.02471923828125,0.9700927734375
1630411831476,-0.21087646484375,0.02685546875,0.9765625
1630411831585,-0.21044921875,0.0262451171875,0.9730224609375
1630411831601,-0.20611572265625,0.02716064453125,0.971923828125
1630411831601,-0.2081298828125,0.02398681640625,0.97564697265625
1630411831632,-0.20867919921875,0.0238037109375,0.97747802734375
1630411831632,-0.2049560546875,0.0242919921875,0.9755859375
1630411831632,-0.2064208984375,0.027099609375,0.97705078125
1630411831663,-0.20794677734375,0.0230712890625,0.980712890625
1630411831663,-0.20947265625,0.017578125,0.9747314453125
1630411831679,-0.20855712890625,0.02197265625,0.97467041015625
1630411831710,-0.203369140625,0.02362060546875,0.97515869140625
1630411831710,-0.20654296875,0.0252685546875,0.97662353515625
1630411831726,-0.20770263671875,0.02362060546875,0.977294921875
1630411831804,-0.20550537109375,0.0283203125,0.9801025390625
1630411831804,-0.20440673828125,0.02911376953125,0.97833251953125
1630411831804,-0.205322265625,0.03009033203125,0.98046875
1630411831866,-0.212158203125,0.02337646484375,0.97198486328125
1630411831866,-0.20751953125,0.02996826171875,0.9752197265625
1630411831866,-0.20843505859375,0.02734375,0.9752197265625
1630411831898,-0.21142578125,0.02337646484375,0.97308349609375
1630411831898,-0.2147216796875,0.02386474609375,0.969970703125
1630411831898,-0.21295166015625,0.019775390625,0.968994140625
1630411831976,-0.21337890625,0.0228271484375,0.97540283203125
1630411831976,-0.21026611328125,0.0235595703125,0.97076416015625
1630411831976,-0.2100830078125,0.02484130859375,0.97210693359375
1630411832054,-0.21514892578125,0.0247802734375,0.9735107421875
1630411832054,-0.2138671875,0.02593994140625,0.9786376953125
1630411832054,-0.20941162109375,0.02081298828125,0.97607421875
1630411832085,-0.21368408203125,0.0228271484375,0.9765625
1630411832085,-0.20941162109375,0.02532958984375,0.97650146484375
1630411832085,-0.20648193359375,0.0267333984375,0.97698974609375
1630411832148,-0.21051025390625,0.02349853515625,0.9744873046875
1630411832148,-0.21142578125,0.02325439453125,0.976318359375
1630411832163,-0.205810546875,0.02484130859375,0.97320556640625
1630411832195,-0.20977783203125,0.02606201171875,0.9759521484375
1630411832195,-0.20849609375,0.02508544921875,0.972412109375
1630411832195,-0.20941162109375,0.02471923828125,0.97705078125
1630411832338,-0.20758056640625,0.02325439453125,0.97198486328125
1630411832338,-0.207763671875,0.025634765625,0.97515869140625
1630411832338,-0.2088623046875,0.02581787109375,0.97357177734375
1630411832385,-0.21002197265625,0.0238037109375,0.9796142578125
1630411832385,-0.207275390625,0.0196533203125,0.97650146484375
1630411832385,-0.20880126953125,0.02191162109375,0.973876953125
1630411832385,-0.20770263671875,0.02484130859375,0.97576904296875
1630411832400,-0.2098388671875,0.02020263671875,0.97882080078125
1630411832400,-0.20794677734375,0.0252685546875,0.976318359375
1630411832478,-0.204833984375,0.0220947265625,0.975341796875
1630411832478,-0.20904541015625,0.02276611328125,0.9727783203125
1630411832478,-0.2005615234375,0.02276611328125,0.97998046875
1630411832478,-0.20501708984375,0.021240234375,0.9718017578125
1630411832478,-0.2109375,0.021240234375,0.970947265625
1630411832525,-0.2044677734375,0.02667236328125,0.9810791015625
1630411832525,-0.20147705078125,0.0255126953125,0.97918701171875
1630411832525,-0.2032470703125,0.02825927734375,0.98095703125
1630411832619,-0.2054443359375,0.0250244140625,0.97662353515625
1630411832634,-0.20855712890625,0.0250244140625,0.973876953125
1630411832697,-0.2103271484375,0.02191162109375,0.9766845703125
1630411832713,-0.21002197265625,0.02337646484375,0.9766845703125
1630411832713,-0.209228515625,0.0262451171875,0.97607421875
1630411832759,-0.21014404296875,0.02362060546875,0.977294921875
1630411832759,-0.20697021484375,0.02276611328125,0.9727783203125
1630411832759,-0.2095947265625,0.021240234375,0.97735595703125
1630411832791,-0.209716796875,0.023681640625,0.97528076171875
1630411832791,-0.21246337890625,0.02545166015625,0.9727783203125
1630411832806,-0.21142578125,0.0220947265625,0.97332763671875
1630411832822,-0.2138671875,0.02447509765625,0.972412109375
1630411832822,-0.2098388671875,0.025390625,0.97174072265625
1630411832822,-0.2110595703125,0.02520751953125,0.97283935546875
1630411832916,-0.2135009765625,0.02435302734375,0.972412109375
1630411832931,-0.21417236328125,0.02801513671875,0.97296142578125
1630411832931,-0.2122802734375,0.02520751953125,0.96942138671875
1630411832963,-0.20965576171875,0.02685546875,0.9705810546875
1630411832963,-0.2098388671875,0.02606201171875,0.9715576171875
1630411832963,-0.212158203125,0.02581787109375,0.974609375
1630411833025,-0.20697021484375,0.02996826171875,0.97314453125
1630411833025,-0.20953369140625,0.02484130859375,0.97052001953125
1630411833025,-0.20452880859375,0.02349853515625,0.976806640625
1630411833087,-0.20562744140625,0.02386474609375,0.9774169921875
1630411833087,-0.20709228515625,0.0240478515625,0.9825439453125
1630411833087,-0.205810546875,0.0252685546875,0.9779052734375
1630411833166,-0.2100830078125,0.0198974609375,0.97357177734375
1630411833166,-0.2105712890625,0.02252197265625,0.97998046875
1630411833166,-0.20855712890625,0.02178955078125,0.9766845703125
1630411833244,-0.210205078125,0.02386474609375,0.97412109375
1630411833244,-0.21209716796875,0.02349853515625,0.973388671875
1630411833244,-0.208984375,0.02313232421875,0.9705810546875
1630411833259,-0.2069091796875,0.02227783203125,0.97601318359375
1630411833262,-0.2091064453125,0.0296630859375,0.978271484375
1630411833263,-0.2103271484375,0.02471923828125,0.97418212890625
1630411833342,-0.2109375,0.02587890625,0.97650146484375
1630411833342,-0.21246337890625,0.02490234375,0.97857666015625
1630411833342,-0.208740234375,0.02593994140625,0.973876953125
1630411833389,-0.2091064453125,0.02197265625,0.970458984375
1630411833389,-0.216064453125,0.02178955078125,0.9716796875
1630411833389,-0.21405029296875,0.0220947265625,0.97393798828125
1630411833435,-0.2169189453125,0.02044677734375,0.973876953125
1630411833435,-0.2149658203125,0.02166748046875,0.97381591796875
1630411833435,-0.21612548828125,0.02117919921875,0.96844482421875
1630411833498,-0.21343994140625,0.022705078125,0.9761962890625
1630411833498,-0.21044921875,0.02227783203125,0.97381591796875
1630411833545,-0.21124267578125,0.02618408203125,0.97998046875
1630411833560,-0.210693359375,0.026611328125,0.9754638671875
1630411833560,-0.213134765625,0.0255126953125,0.97247314453125
1630411833623,-0.2156982421875,0.02569580078125,0.9727783203125
1630411833623,-0.21429443359375,0.0263671875,0.96954345703125
1630411833623,-0.21551513671875,0.0225830078125,0.96722412109375
1630411833654,-0.21319580078125,0.02374267578125,0.97283935546875
1630411833654,-0.21075439453125,0.024169921875,0.9732666015625
1630411833717,-0.2122802734375,0.02606201171875,0.97076416015625
1630411833717,-0.21661376953125,0.02239990234375,0.9747314453125
1630411833717,-0.21246337890625,0.02130126953125,0.9730224609375
1630411833795,-0.21441650390625,0.02081298828125,0.9718017578125
1630411833795,-0.2127685546875,0.024169921875,0.97515869140625
1630411833810,-0.2099609375,0.02264404296875,0.975341796875
1630411833842,-0.20892333984375,0.02166748046875,0.97540283203125
1630411833842,-0.209228515625,0.02532958984375,0.9776611328125
1630411833842,-0.210693359375,0.0211181640625,0.9766845703125
1630411833935,-0.211181640625,0.01763916015625,0.97393798828125
1630411833935,-0.21148681640625,0.0205078125,0.9769287109375
1630411833935,-0.21307373046875,0.02264404296875,0.9796142578125
1630411833951,-0.213623046875,0.021484375,0.97088623046875
1630411833951,-0.2115478515625,0.02374267578125,0.97442626953125
1630411833951,-0.21240234375,0.0233154296875,0.97442626953125
1630411834029,-0.21221923828125,0.02655029296875,0.9752197265625
1630411834029,-0.2076416015625,0.02301025390625,0.97314453125
1630411834045,-0.2122802734375,0.028564453125,0.97833251953125
1630411834092,-0.211181640625,0.02105712890625,0.9703369140625
1630411834092,-0.21514892578125,0.025634765625,0.97100830078125
1630411834092,-0.21063232421875,0.02520751953125,0.97821044921875
1630411834107,-0.21429443359375,0.01800537109375,0.97296142578125
1630411834123,-0.2188720703125,0.02203369140625,0.97314453125
1630411834123,-0.2158203125,0.021240234375,0.968994140625
1630411834217,-0.21795654296875,0.01885986328125,0.970947265625
1630411834217,-0.2127685546875,0.0223388671875,0.9713134765625
1630411834217,-0.21539306640625,0.01898193359375,0.97265625
1630411834298,-0.21234130859375,0.022705078125,0.97711181640625
1630411834313,-0.21478271484375,0.0235595703125,0.97393798828125
1630411834313,-0.20843505859375,0.0203857421875,0.974853515625
1630411834344,-0.21368408203125,0.023193359375,0.9791259765625
1630411834344,-0.2139892578125,0.02093505859375,0.97698974609375
1630411834360,-0.2130126953125,0.0267333984375,0.972900390625
1630411834391,-0.2149658203125,0.0233154296875,0.972412109375
1630411834407,-0.2200927734375,0.02655029296875,0.96966552734375
1630411834407,-0.21661376953125,0.0269775390625,0.97210693359375
1630411834454,-0.2178955078125,0.02496337890625,0.97088623046875
1630411834454,-0.21307373046875,0.0244140625,0.974609375
1630411834454,-0.21630859375,0.0247802734375,0.9766845703125
1630411834485,-0.21014404296875,0.02392578125,0.97210693359375
1630411834501,-0.21466064453125,0.02276611328125,0.96868896484375
1630411834501,-0.21514892578125,0.02386474609375,0.9681396484375
1630411834563,-0.212890625,0.01837158203125,0.9775390625
1630411834563,-0.2100830078125,0.02313232421875,0.97528076171875
1630411834579,-0.20928955078125,0.0184326171875,0.97320556640625
1630411834641,-0.209716796875,0.022216796875,0.9798583984375
1630411834641,-0.2081298828125,0.025390625,0.98004150390625
1630411834641,-0.2061767578125,0.02545166015625,0.98193359375
1630411834704,-0.21484375,0.02423095703125,0.9735107421875
1630411834704,-0.2135009765625,0.02349853515625,0.980712890625
1630411834704,-0.21063232421875,0.02099609375,0.9774169921875
1630411834751,-0.2120361328125,0.0220947265625,0.96966552734375
1630411834751,-0.20843505859375,0.01983642578125,0.972412109375
1630411834751,-0.211669921875,0.02337646484375,0.97119140625
1630411834797,-0.206298828125,0.02410888671875,0.97869873046875
1630411834797,-0.205078125,0.02203369140625,0.9732666015625
1630411834797,-0.2056884765625,0.0198974609375,0.9775390625
1630411834860,-0.21124267578125,0.02154541015625,0.972412109375
1630411834860,-0.20928955078125,0.02252197265625,0.97528076171875
1630411834860,-0.209716796875,0.0234375,0.9744873046875
1630411834907,-0.2110595703125,0.0257568359375,0.97796630859375
1630411834907,-0.2127685546875,0.0213623046875,0.97344970703125
1630411834922,-0.21112060546875,0.01934814453125,0.97442626953125
1630411835016,-0.21209716796875,0.01788330078125,0.97357177734375
1630411835016,-0.21307373046875,0.0218505859375,0.9703369140625
1630411835032,-0.212646484375,0.021240234375,0.9747314453125
1630411835047,-0.20831298828125,0.02020263671875,0.97802734375
1630411835047,-0.21527099609375,0.0201416015625,0.97760009765625
1630411835047,-0.211181640625,0.02197265625,0.97674560546875
1630411835125,-0.21234130859375,0.02362060546875,0.98052978515625
1630411835125,-0.2095947265625,0.01971435546875,0.9765625
1630411835125,-0.21343994140625,0.02386474609375,0.97686767578125
1630411835141,-0.2147216796875,0.023193359375,0.973388671875
1630411835141,-0.21282958984375,0.026123046875,0.9736328125
1630411835141,-0.217041015625,0.0223388671875,0.97247314453125
1630411835204,-0.21173095703125,0.0235595703125,0.973876953125
1630411835204,-0.2142333984375,0.0216064453125,0.97503662109375
1630411835204,-0.210693359375,0.02337646484375,0.97100830078125
1630411835318,-0.20556640625,0.021728515625,0.97705078125
1630411835318,-0.214111328125,0.0255126953125,0.97119140625
1630411835318,-0.2127685546875,0.0250244140625,0.96990966796875
1630411835318,-0.204833984375,0.02301025390625,0.97686767578125
1630411835318,-0.21002197265625,0.024169921875,0.97418212890625
1630411835333,-0.2078857421875,0.02484130859375,0.9775390625
1630411835364,-0.20989990234375,0.01922607421875,0.97576904296875
1630411835380,-0.20806884765625,0.02557373046875,0.975341796875
1630411835380,-0.203125,0.02197265625,0.98046875
1630411835458,-0.20233154296875,0.02349853515625,0.97723388671875
1630411835458,-0.20489501953125,0.02301025390625,0.9730224609375
1630411835458,-0.20513916015625,0.0205078125,0.9735107421875
1630411835505,-0.2041015625,0.0262451171875,0.97625732421875
1630411835505,-0.201171875,0.02593994140625,0.98248291015625
1630411835505,-0.19891357421875,0.02532958984375,0.979248046875
1630411835552,-0.2000732421875,0.0244140625,0.98297119140625
1630411835552,-0.1995849609375,0.02606201171875,0.9814453125
1630411835552,-0.20458984375,0.023681640625,0.9803466796875
1630411835630,-0.2066650390625,0.0233154296875,0.97589111328125
1630411835630,-0.2100830078125,0.02716064453125,0.9727783203125
1630411835646,-0.21112060546875,0.0277099609375,0.9722900390625
1630411835708,-0.20880126953125,0.0211181640625,0.97393798828125
1630411835708,-0.20806884765625,0.02520751953125,0.97454833984375
1630411835708,-0.21435546875,0.0234375,0.97686767578125
1630411835739,-0.21002197265625,0.01953125,0.974609375
1630411835739,-0.20452880859375,0.017333984375,0.97149658203125
1630411835739,-0.20733642578125,0.02130126953125,0.97625732421875
1630411835786,-0.21026611328125,0.02227783203125,0.97344970703125
1630411835786,-0.21148681640625,0.0220947265625,0.975830078125
1630411835802,-0.20849609375,0.02264404296875,0.971435546875
1630411835849,-0.212158203125,0.02630615234375,0.974365234375
1630411835849,-0.208251953125,0.02655029296875,0.97369384765625
1630411835849,-0.21392822265625,0.0223388671875,0.9722900390625
1630411835911,-0.2099609375,0.02679443359375,0.9727783203125
1630411835911,-0.21112060546875,0.02630615234375,0.97320556640625
1630411835911,-0.2093505859375,0.0242919921875,0.97412109375
1630411835989,-0.2061767578125,0.02838134765625,0.9727783203125
1630411835989,-0.21002197265625,0.02667236328125,0.97247314453125
1630411835989,-0.21075439453125,0.02880859375,0.973876953125
1630411836052,-0.2080078125,0.0252685546875,0.9788818359375
1630411836052,-0.2093505859375,0.0233154296875,0.9774169921875
1630411836052,-0.20672607421875,0.02288818359375,0.9765625
1630411836130,-0.20855712890625,0.025390625,0.97882080078125
1630411836130,-0.20880126953125,0.025146484375,0.9796142578125
1630411836130,-0.21087646484375,0.02496337890625,0.97882080078125
1630411836192,-0.20892333984375,0.019775390625,0.97247314453125
1630411836192,-0.209716796875,0.02294921875,0.975830078125
1630411836192,-0.209716796875,0.02459716796875,0.97235107421875
1630411836224,-0.20391845703125,0.026611328125,0.973388671875
1630411836224,-0.2064208984375,0.02783203125,0.97967529296875
1630411836224,-0.20654296875,0.0262451171875,0.97528076171875
1630411836239,-0.2060546875,0.02703857421875,0.978271484375
1630411836239,-0.2086181640625,0.028564453125,0.9788818359375
1630411836255,-0.2052001953125,0.029296875,0.98150634765625
1630411836305,-0.21368408203125,0.0220947265625,0.9700927734375
1630411836321,-0.2091064453125,0.02655029296875,0.97357177734375
1630411836383,-0.2149658203125,0.02496337890625,0.972900390625
1630411836383,-0.21466064453125,0.021484375,0.97283935546875
1630411836383,-0.21173095703125,0.022705078125,0.96929931640625
1630411836430,-0.216552734375,0.02154541015625,0.9725341796875
1630411836430,-0.21588134765625,0.02166748046875,0.97442626953125
1630411836446,-0.21527099609375,0.02337646484375,0.9757080078125
1630411836508,-0.21441650390625,0.02392578125,0.976318359375
1630411836508,-0.21551513671875,0.02374267578125,0.978515625
1630411836508,-0.21221923828125,0.022705078125,0.97113037109375
1630411836586,-0.21087646484375,0.02154541015625,0.97210693359375
1630411836586,-0.2110595703125,0.0211181640625,0.9759521484375
1630411836586,-0.2144775390625,0.02166748046875,0.9747314453125
1630411836664,-0.21612548828125,0.0216064453125,0.97174072265625
1630411836664,-0.2127685546875,0.02142333984375,0.9705810546875
1630411836664,-0.21124267578125,0.022705078125,0.9737548828125
1630411836695,-0.20806884765625,0.02105712890625,0.974853515625
1630411836711,-0.21026611328125,0.02178955078125,0.97186279296875
1630411836711,-0.2132568359375,0.02545166015625,0.97393798828125
1630411836742,-0.2091064453125,0.022216796875,0.97296142578125
1630411836758,-0.20770263671875,0.022216796875,0.971435546875
1630411836758,-0.2110595703125,0.02117919921875,0.9735107421875
1630411836852,-0.21368408203125,0.01910400390625,0.98193359375
1630411836852,-0.20782470703125,0.02349853515625,0.97705078125
1630411836852,-0.20599365234375,0.02325439453125,0.9775390625
1630411836852,-0.20452880859375,0.022705078125,0.98114013671875
1630411836852,-0.207275390625,0.0223388671875,0.978515625
1630411836914,-0.206787109375,0.02288818359375,0.97247314453125
1630411836930,-0.211181640625,0.01861572265625,0.9730224609375
1630411836930,-0.20703125,0.0186767578125,0.9761962890625
1630411836945,-0.21014404296875,0.028564453125,0.97802734375
1630411836945,-0.20928955078125,0.025390625,0.974609375
1630411836961,-0.2115478515625,0.02801513671875,0.97393798828125
1630411837039,-0.2119140625,0.0294189453125,0.97955322265625
1630411837039,-0.20758056640625,0.028564453125,0.97344970703125
1630411837055,-0.20977783203125,0.02984619140625,0.9769287109375
1630411837117,-0.20892333984375,0.025634765625,0.97467041015625
1630411837117,-0.2093505859375,0.0216064453125,0.967529296875
1630411837117,-0.21197509765625,0.0224609375,0.97454833984375
1630411837164,-0.21435546875,0.01959228515625,0.97088623046875
1630411837164,-0.2161865234375,0.0191650390625,0.9693603515625
1630411837164,-0.216064453125,0.01953125,0.9700927734375
1630411837195,-0.2144775390625,0.0194091796875,0.97491455078125
1630411837195,-0.2110595703125,0.02435302734375,0.976806640625
1630411837195,-0.21331787109375,0.02294921875,0.976318359375
1630411837274,-0.21197509765625,0.0257568359375,0.974365234375
1630411837277,-0.2130126953125,0.0225830078125,0.9739990234375
1630411837314,-0.21246337890625,0.02197265625,0.974853515625
1630411837329,-0.211669921875,0.01995849609375,0.97369384765625
1630411837329,-0.212890625,0.02130126953125,0.97406005859375
1630411837408,-0.2144775390625,0.01690673828125,0.97283935546875
1630411837408,-0.21148681640625,0.0224609375,0.9736328125
1630411837408,-0.209228515625,0.0185546875,0.97039794921875
1630411837423,-0.20849609375,0.025146484375,0.97357177734375
1630411837439,-0.20587158203125,0.02276611328125,0.9747314453125
1630411837439,-0.209716796875,0.02532958984375,0.9725341796875
1630411837486,-0.20416259765625,0.01776123046875,0.9769287109375
1630411837486,-0.20269775390625,0.01934814453125,0.9796142578125
1630411837501,-0.207763671875,0.0235595703125,0.97442626953125
1630411837548,-0.2047119140625,0.0181884765625,0.981201171875
1630411837548,-0.20477294921875,0.0147705078125,0.98114013671875
1630411837564,-0.2041015625,0.0174560546875,0.98175048828125
1630411837626,-0.20062255859375,0.0185546875,0.9813232421875
1630411837626,-0.20782470703125,0.0205078125,0.98040771484375
1630411837626,-0.20269775390625,0.0208740234375,0.9801025390625
1630411837658,-0.2115478515625,0.01934814453125,0.97845458984375
1630411837658,-0.20819091796875,0.0162353515625,0.97149658203125
1630411837658,-0.20623779296875,0.01751708984375,0.97149658203125
1630411837751,-0.206298828125,0.0225830078125,0.9713134765625
1630411837751,-0.20330810546875,0.02154541015625,0.97607421875
1630411837783,-0.205810546875,0.0223388671875,0.98138427734375
1630411837783,-0.20306396484375,0.02264404296875,0.97784423828125
1630411837783,-0.20404052734375,0.01953125,0.97802734375
1630411837876,-0.20770263671875,0.0191650390625,0.97808837890625
1630411837876,-0.20782470703125,0.02471923828125,0.97613525390625
1630411837876,-0.20697021484375,0.024169921875,0.9720458984375
1630411837892,-0.20782470703125,0.0181884765625,0.970947265625
1630411837907,-0.20751953125,0.02606201171875,0.9761962890625
1630411837907,-0.20892333984375,0.024658203125,0.9744873046875
1630411837970,-0.209716796875,0.018798828125,0.97357177734375
1630411837970,-0.20892333984375,0.02117919921875,0.97900390625
1630411837970,-0.21234130859375,0.0196533203125,0.976806640625
1630411838079,-0.20819091796875,0.020751953125,0.97772216796875
1630411838079,-0.20733642578125,0.02606201171875,0.97772216796875
1630411838079,-0.2069091796875,0.02386474609375,0.97784423828125
1630411838111,-0.20989990234375,0.02587890625,0.97857666015625
1630411838111,-0.21173095703125,0.02569580078125,0.9749755859375
1630411838111,-0.20977783203125,0.02691650390625,0.97515869140625
1630411838157,-0.209228515625,0.02398681640625,0.9700927734375
1630411838157,-0.2088623046875,0.02081298828125,0.97003173828125
1630411838157,-0.21014404296875,0.018310546875,0.96600341796875
1630411838236,-0.20550537109375,0.02197265625,0.97149658203125
1630411838236,-0.20611572265625,0.0238037109375,0.97564697265625
1630411838236,-0.207763671875,0.02154541015625,0.9705810546875
1630411838285,-0.2073974609375,0.02252197265625,0.9747314453125
1630411838285,-0.19970703125,0.022705078125,0.97686767578125
1630411838285,-0.20220947265625,0.0240478515625,0.97491455078125
1630411838332,-0.202880859375,0.0250244140625,0.979736328125
1630411838347,-0.20074462890625,0.02239990234375,0.98187255859375
1630411838347,-0.19879150390625,0.025390625,0.98333740234375
1630411838410,-0.19720458984375,0.02301025390625,0.983642578125
1630411838410,-0.2003173828125,0.02166748046875,0.98150634765625
1630411838410,-0.2021484375,0.02264404296875,0.98468017578125
1630411838441,-0.2064208984375,0.02484130859375,0.97344970703125
1630411838457,-0.20330810546875,0.02374267578125,0.97344970703125
1630411838457,-0.20343017578125,0.02288818359375,0.974365234375
1630411838488,-0.20196533203125,0.0252685546875,0.97705078125
1630411838488,-0.2032470703125,0.02203369140625,0.97735595703125
1630411838503,-0.201171875,0.0233154296875,0.9781494140625
1630411838566,-0.20263671875,0.02197265625,0.97662353515625
1630411838566,-0.2015380859375,0.0262451171875,0.97479248046875
1630411838566,-0.198974609375,0.02740478515625,0.979736328125
1630411838628,-0.2099609375,0.0220947265625,0.9775390625
1630411838628,-0.2064208984375,0.02606201171875,0.9727783203125
1630411838628,-0.20733642578125,0.02215576171875,0.9713134765625
1630411838707,-0.2078857421875,0.0225830078125,0.9749755859375
1630411838707,-0.21173095703125,0.02410888671875,0.97637939453125
1630411838707,-0.208251953125,0.0191650390625,0.97564697265625
1630411838753,-0.20745849609375,0.0223388671875,0.9776611328125
1630411838753,-0.20831298828125,0.0216064453125,0.97900390625
1630411838753,-0.204345703125,0.0213623046875,0.976318359375
1630411838785,-0.2081298828125,0.02056884765625,0.9783935546875
1630411838800,-0.20928955078125,0.0247802734375,0.9794921875
1630411838800,-0.20660400390625,0.0235595703125,0.97796630859375
1630411838847,-0.20953369140625,0.02728271484375,0.9766845703125
1630411838847,-0.21197509765625,0.0274658203125,0.97265625
1630411838847,-0.21356201171875,0.02117919921875,0.97052001953125
1630411838925,-0.21527099609375,0.02423095703125,0.96905517578125
1630411838925,-0.21649169921875,0.02349853515625,0.96697998046875
1630411838925,-0.214599609375,0.02435302734375,0.9700927734375
1630411838946,-0.21453857421875,0.02154541015625,0.9744873046875
1630411838946,-0.21221923828125,0.02642822265625,0.97308349609375
1630411838962,-0.2132568359375,0.02520751953125,0.97137451171875
1630411839063,-0.2138671875,0.022216796875,0.974609375
1630411839064,-0.2115478515625,0.02117919921875,0.9732666015625
1630411839080,-0.21002197265625,0.02386474609375,0.9737548828125
1630411839117,-0.20892333984375,0.02081298828125,0.9761962890625
1630411839132,-0.2113037109375,0.01983642578125,0.97528076171875
1630411839132,-0.209716796875,0.02325439453125,0.97833251953125
1630411839149,-0.21246337890625,0.02490234375,0.97833251953125
1630411839149,-0.21160888671875,0.0220947265625,0.98016357421875
1630411839163,-0.21307373046875,0.02154541015625,0.97454833984375
1630411839206,-0.21563720703125,0.0235595703125,0.9656982421875
1630411839211,-0.2169189453125,0.021728515625,0.97113037109375
1630411839211,-0.21527099609375,0.02471923828125,0.96807861328125
1630411839305,-0.21044921875,0.0235595703125,0.97393798828125
1630411839319,-0.2138671875,0.02294921875,0.96820068359375
1630411839322,-0.21258544921875,0.02899169921875,0.97821044921875
1630411839367,-0.21087646484375,0.028076171875,0.97589111328125
1630411839385,-0.2115478515625,0.0263671875,0.97528076171875
1630411839385,-0.2122802734375,0.0244140625,0.97332763671875
1630411839387,-0.212646484375,0.0244140625,0.97772216796875
1630411839399,-0.20928955078125,0.02081298828125,0.9697265625
1630411839416,-0.21356201171875,0.02301025390625,0.9715576171875
1630411839445,-0.216064453125,0.0213623046875,0.9759521484375
1630411839459,-0.2132568359375,0.021484375,0.97314453125
1630411839460,-0.20770263671875,0.022216796875,0.97357177734375
1630411839493,-0.21026611328125,0.025146484375,0.977783203125
1630411839493,-0.21380615234375,0.02288818359375,0.97686767578125
1630411839493,-0.2100830078125,0.02294921875,0.97515869140625
1630411839632,-0.209716796875,0.02325439453125,0.97711181640625
1630411839632,-0.2120361328125,0.022216796875,0.97802734375
1630411839632,-0.21044921875,0.02520751953125,0.9810791015625
1630411839657,-0.2108154296875,0.022705078125,0.97625732421875
1630411839657,-0.2086181640625,0.023193359375,0.97515869140625
1630411839657,-0.21173095703125,0.02252197265625,0.97265625
1630411839672,-0.213623046875,0.02215576171875,0.97357177734375
1630411839672,-0.21148681640625,0.022216796875,0.9727783203125
1630411839672,-0.2161865234375,0.02655029296875,0.9752197265625
1630411839719,-0.2099609375,0.0238037109375,0.969970703125
1630411839719,-0.20947265625,0.02239990234375,0.97222900390625
1630411839719,-0.210693359375,0.02215576171875,0.970703125
1630411839797,-0.20880126953125,0.02197265625,0.97430419921875
1630411839797,-0.20941162109375,0.02203369140625,0.971435546875
1630411839797,-0.20965576171875,0.022705078125,0.9739990234375
1630411839875,-0.20751953125,0.02716064453125,0.97662353515625
1630411839875,-0.20635986328125,0.02301025390625,0.98065185546875
1630411839875,-0.20660400390625,0.01971435546875,0.98040771484375
1630411839938,-0.20416259765625,0.02197265625,0.9808349609375
1630411839938,-0.21197509765625,0.01971435546875,0.97698974609375
1630411839938,-0.20867919921875,0.02374267578125,0.9794921875
1630411839969,-0.20782470703125,0.0228271484375,0.9757080078125
1630411839969,-0.205810546875,0.02069091796875,0.97509765625
1630411839985,-0.20697021484375,0.0230712890625,0.9713134765625
1630411840032,-0.2022705078125,0.0255126953125,0.9766845703125
1630411840032,-0.2054443359375,0.02801513671875,0.97900390625
1630411840032,-0.2060546875,0.0250244140625,0.97479248046875
1630411840110,-0.20660400390625,0.02593994140625,0.9755859375
1630411840110,-0.2060546875,0.02960205078125,0.97308349609375
1630411840110,-0.204345703125,0.0283203125,0.9794921875
1630411840141,-0.20989990234375,0.025146484375,0.9710693359375
1630411840157,-0.20709228515625,0.02288818359375,0.9708251953125
1630411840157,-0.20697021484375,0.0260009765625,0.9739990234375
1630411840235,-0.20721435546875,0.0216064453125,0.9786376953125
1630411840235,-0.210693359375,0.024169921875,0.97467041015625
1630411840235,-0.2059326171875,0.02362060546875,0.97857666015625
1630411840328,-0.2080078125,0.026611328125,0.97430419921875
1630411840328,-0.2099609375,0.02532958984375,0.975830078125
1630411840328,-0.2066650390625,0.0250244140625,0.9759521484375
1630411840375,-0.20733642578125,0.02490234375,0.97998046875
1630411840375,-0.20672607421875,0.02606201171875,0.978271484375
1630411840375,-0.20526123046875,0.025146484375,0.9781494140625
1630411840438,-0.2064208984375,0.02685546875,0.97705078125
1630411840438,-0.20806884765625,0.0263671875,0.97784423828125
1630411840438,-0.2060546875,0.02667236328125,0.97454833984375
1630411840485,-0.20684814453125,0.027099609375,0.97784423828125
1630411840485,-0.210693359375,0.02789306640625,0.97845458984375
1630411840485,-0.208740234375,0.026123046875,0.97454833984375
1630411840516,-0.20831298828125,0.02703857421875,0.97210693359375
1630411840516,-0.2056884765625,0.02642822265625,0.97198486328125
1630411840532,-0.20452880859375,0.02728271484375,0.975830078125
1630411840594,-0.20623779296875,0.0252685546875,0.97589111328125
1630411840610,-0.20538330078125,0.0269775390625,0.9783935546875
1630411840610,-0.20941162109375,0.02520751953125,0.973388671875
1630411840625,-0.2059326171875,0.02496337890625,0.97735595703125
1630411840625,-0.2027587890625,0.0274658203125,0.9727783203125
1630411840625,-0.2080078125,0.02593994140625,0.9722900390625
1630411840735,-0.20721435546875,0.02362060546875,0.976318359375
1630411840735,-0.205322265625,0.0216064453125,0.98052978515625
1630411840735,-0.2056884765625,0.0225830078125,0.9730224609375
1630411840782,-0.20745849609375,0.025146484375,0.97283935546875
1630411840782,-0.1962890625,0.02783203125,0.9766845703125
1630411840782,-0.20086669921875,0.0262451171875,0.96875
1630411840844,-0.198486328125,0.02691650390625,0.9822998046875
1630411840844,-0.20062255859375,0.02825927734375,0.984619140625
1630411840844,-0.2015380859375,0.028076171875,0.97723388671875
1630411840875,-0.20050048828125,0.0274658203125,0.98260498046875
1630411840891,-0.20111083984375,0.0303955078125,0.97796630859375
1630411840891,-0.20330810546875,0.02728271484375,0.97894287109375
1630411840922,-0.20758056640625,0.0244140625,0.97662353515625
1630411840922,-0.21014404296875,0.02508544921875,0.974365234375
1630411840922,-0.20172119140625,0.02313232421875,0.9730224609375
1630411840985,-0.20953369140625,0.0260009765625,0.97442626953125
1630411840985,-0.20703125,0.0264892578125,0.9754638671875
1630411840985,-0.20953369140625,0.02606201171875,0.97503662109375
1630411841047,-0.205078125,0.02337646484375,0.9749755859375
1630411841047,-0.2066650390625,0.02264404296875,0.97509765625
1630411841047,-0.20916748046875,0.02545166015625,0.97210693359375
1630411841110,-0.21142578125,0.0247802734375,0.9744873046875
1630411841110,-0.20623779296875,0.0228271484375,0.97430419921875
1630411841110,-0.20965576171875,0.024169921875,0.9725341796875
1630411841156,-0.20538330078125,0.02264404296875,0.974609375
1630411841156,-0.20904541015625,0.02459716796875,0.97528076171875
1630411841156,-0.2100830078125,0.02490234375,0.97607421875
1630411841203,-0.2073974609375,0.0264892578125,0.971923828125
1630411841219,-0.2083740234375,0.02490234375,0.9737548828125
1630411841219,-0.2054443359375,0.02435302734375,0.97332763671875
1630411841281,-0.20892333984375,0.02325439453125,0.97503662109375
1630411841281,-0.20465087890625,0.02337646484375,0.97528076171875
1630411841281,-0.20928955078125,0.0255126953125,0.97625732421875
1630411841297,-0.20562744140625,0.02642822265625,0.9786376953125
1630411841297,-0.209716796875,0.02435302734375,0.9771728515625
1630411841313,-0.2103271484375,0.024658203125,0.97784423828125
1630411841406,-0.20489501953125,0.02471923828125,0.97760009765625
1630411841406,-0.204833984375,0.0224609375,0.9757080078125
1630411841406,-0.20330810546875,0.02276611328125,0.97821044921875
1630411841438,-0.20904541015625,0.01959228515625,0.97540283203125
1630411841438,-0.210205078125,0.017578125,0.96978759765625
1630411841453,-0.21002197265625,0.02081298828125,0.97955322265625
1630411841531,-0.21087646484375,0.01788330078125,0.971435546875
1630411841531,-0.20880126953125,0.0213623046875,0.974609375
1630411841531,-0.2109375,0.019287109375,0.97259521484375
1630411841563,-0.20556640625,0.02044677734375,0.97802734375
1630411841578,-0.20806884765625,0.02642822265625,0.97967529296875
1630411841578,-0.20684814453125,0.02545166015625,0.97796630859375
1630411841625,-0.20745849609375,0.0260009765625,0.97723388671875
1630411841625,-0.20489501953125,0.02789306640625,0.98052978515625
1630411841625,-0.20489501953125,0.02886962890625,0.97711181640625
1630411841688,-0.21221923828125,0.02606201171875,0.97637939453125
1630411841688,-0.2086181640625,0.02655029296875,0.97216796875
1630411841688,-0.20904541015625,0.0235595703125,0.96746826171875
1630411841750,-0.2142333984375,0.022216796875,0.972900390625
1630411841766,-0.2125244140625,0.02581787109375,0.97119140625
1630411841766,-0.21185302734375,0.02215576171875,0.9710693359375
1630411841813,-0.2109375,0.02325439453125,0.9736328125
1630411841813,-0.21466064453125,0.0233154296875,0.97607421875
1630411841813,-0.21533203125,0.0250244140625,0.9739990234375
1630411841859,-0.21282958984375,0.02587890625,0.97540283203125
1630411841859,-0.21331787109375,0.02911376953125,0.97540283203125
1630411841859,-0.2091064453125,0.0245361328125,0.97772216796875
1630411841906,-0.20684814453125,0.027587890625,0.9754638671875
1630411841906,-0.21124267578125,0.02886962890625,0.97552490234375
1630411841922,-0.2135009765625,0.0281982421875,0.9761962890625
1630411841984,-0.2099609375,0.02789306640625,0.97503662109375
1630411841984,-0.20794677734375,0.029296875,0.9747314453125
1630411841984,-0.21319580078125,0.02557373046875,0.97283935546875
1630411842016,-0.2103271484375,0.02716064453125,0.97344970703125
1630411842031,-0.21185302734375,0.02490234375,0.97088623046875
1630411842031,-0.2064208984375,0.0279541015625,0.97503662109375
1630411842094,-0.2109375,0.021484375,0.97442626953125
1630411842094,-0.21209716796875,0.0228271484375,0.97344970703125
1630411842094,-0.20831298828125,0.02398681640625,0.97589111328125
1630411842141,-0.2091064453125,0.02142333984375,0.9732666015625
1630411842141,-0.21136474609375,0.02239990234375,0.97906494140625
1630411842141,-0.20745849609375,0.02490234375,0.972412109375
1630411842234,-0.2100830078125,0.02447509765625,0.97467041015625
1630411842250,-0.20928955078125,0.02069091796875,0.97735595703125
1630411842250,-0.2109375,0.0242919921875,0.9801025390625
1630411842299,-0.21331787109375,0.02099609375,0.97332763671875
1630411842299,-0.21112060546875,0.02215576171875,0.9713134765625
1630411842299,-0.21295166015625,0.01837158203125,0.972900390625
1630411842331,-0.21044921875,0.02227783203125,0.975341796875
1630411842346,-0.21002197265625,0.02215576171875,0.974853515625
1630411842346,-0.21014404296875,0.02020263671875,0.97467041015625
1630411842409,-0.21002197265625,0.02569580078125,0.97882080078125
1630411842409,-0.20819091796875,0.02679443359375,0.9796142578125
1630411842409,-0.20892333984375,0.0230712890625,0.9774169921875
1630411842471,-0.21337890625,0.02508544921875,0.9722900390625
1630411842471,-0.21075439453125,0.02471923828125,0.97454833984375
1630411842471,-0.21380615234375,0.02325439453125,0.9710693359375
1630411842534,-0.213623046875,0.02490234375,0.97174072265625
1630411842549,-0.213134765625,0.024658203125,0.97198486328125
1630411842549,-0.21435546875,0.02215576171875,0.970458984375
1630411842597,-0.2099609375,0.02374267578125,0.97125244140625
1630411842598,-0.212158203125,0.02349853515625,0.97222900390625
1630411842598,-0.21142578125,0.02435302734375,0.9710693359375
1630411842628,-0.2159423828125,0.02520751953125,0.975830078125
1630411842629,-0.20953369140625,0.02410888671875,0.97650146484375
1630411842631,-0.210205078125,0.02337646484375,0.9775390625
1630411842708,-0.211669921875,0.02557373046875,0.978759765625
1630411842708,-0.20965576171875,0.02679443359375,0.97674560546875
1630411842708,-0.2098388671875,0.0257568359375,0.9757080078125
1630411842756,-0.20904541015625,0.02447509765625,0.97467041015625
1630411842804,-0.21270751953125,0.02825927734375,0.97430419921875
1630411842804,-0.20697021484375,0.0264892578125,0.97259521484375
1630411842805,-0.2054443359375,0.0218505859375,0.9739990234375
1630411842867,-0.20880126953125,0.02655029296875,0.97393798828125
1630411842882,-0.20654296875,0.0260009765625,0.9725341796875
1630411842882,-0.2071533203125,0.026123046875,0.9779052734375
1630411842913,-0.19970703125,0.025146484375,0.9786376953125
1630411842913,-0.20379638671875,0.0234375,0.97869873046875
1630411842913,-0.20233154296875,0.02520751953125,0.97576904296875
1630411843022,-0.20123291015625,0.02117919921875,0.97784423828125
1630411843022,-0.2039794921875,0.02496337890625,0.97479248046875
1630411843022,-0.199462890625,0.021728515625,0.977783203125
1630411843023,-0.20513916015625,0.02301025390625,0.98187255859375
1630411843023,-0.20465087890625,0.02093505859375,0.9803466796875
1630411843023,-0.2017822265625,0.02587890625,0.9786376953125
1630411843101,-0.2083740234375,0.02447509765625,0.9801025390625
1630411843101,-0.2061767578125,0.02166748046875,0.97027587890625
1630411843101,-0.20733642578125,0.02081298828125,0.97686767578125
1630411843165,-0.20477294921875,0.02349853515625,0.9747314453125
1630411843165,-0.2054443359375,0.025390625,0.97430419921875
1630411843239,-0.20648193359375,0.02655029296875,0.98016357421875
1630411843240,-0.20281982421875,0.02569580078125,0.97808837890625
1630411843240,-0.203857421875,0.0255126953125,0.98162841796875
1630411843270,-0.20538330078125,0.02618408203125,0.97503662109375
1630411843271,-0.20538330078125,0.02532958984375,0.97515869140625
1630411843271,-0.20196533203125,0.025390625,0.98016357421875
1630411843365,-0.2069091796875,0.02520751953125,0.97528076171875
1630411843365,-0.2100830078125,0.02545166015625,0.97125244140625
1630411843366,-0.21044921875,0.0233154296875,0.9718017578125
1630411843397,-0.20989990234375,0.023681640625,0.97021484375
1630411843406,-0.2095947265625,0.0250244140625,0.97247314453125
1630411843408,-0.20892333984375,0.0255126953125,0.976806640625
1630411843460,-0.20404052734375,0.025634765625,0.979736328125
1630411843460,-0.20745849609375,0.0234375,0.97412109375
1630411843461,-0.2086181640625,0.02410888671875,0.97601318359375
1630411843507,-0.2059326171875,0.0245361328125,0.97625732421875
1630411843507,-0.20697021484375,0.02667236328125,0.9766845703125
1630411843508,-0.2073974609375,0.0255126953125,0.9774169921875
1630411843556,-0.2054443359375,0.023681640625,0.980224609375
1630411843562,-0.20269775390625,0.02587890625,0.973876953125
1630411843562,-0.2069091796875,0.02484130859375,0.980224609375
1630411843633,-0.20343017578125,0.02655029296875,0.9766845703125
1630411843634,-0.205322265625,0.02685546875,0.97491455078125
1630411843634,-0.20343017578125,0.02716064453125,0.976318359375
1630411843696,-0.2034912109375,0.0238037109375,0.97442626953125
1630411843696,-0.20159912109375,0.0260009765625,0.9742431640625
1630411843713,-0.20440673828125,0.02392578125,0.97589111328125
1630411843744,-0.2041015625,0.02301025390625,0.97747802734375
1630411843744,-0.201904296875,0.02655029296875,0.97418212890625
1630411843745,-0.2030029296875,0.0267333984375,0.97711181640625
1630411843790,-0.20758056640625,0.02117919921875,0.9814453125
1630411843799,-0.20458984375,0.0262451171875,0.9783935546875
1630411843799,-0.20574951171875,0.026123046875,0.9765625
1630411843852,-0.20733642578125,0.0244140625,0.97698974609375
1630411843853,-0.20306396484375,0.02685546875,0.97967529296875
1630411843853,-0.2034912109375,0.0262451171875,0.97930908203125
1630411843945,-0.2060546875,0.01995849609375,0.975830078125
1630411843945,-0.20751953125,0.01849365234375,0.972900390625
1630411843945,-0.208984375,0.02056884765625,0.972900390625
1630411843976,-0.20654296875,0.02154541015625,0.97821044921875
1630411843977,-0.20556640625,0.0218505859375,0.9739990234375
1630411843978,-0.2059326171875,0.0247802734375,0.97607421875
1630411844071,-0.20257568359375,0.02532958984375,0.98065185546875
1630411844071,-0.20318603515625,0.03125,0.97833251953125
1630411844072,-0.201171875,0.0267333984375,0.97967529296875
1630411844101,-0.20611572265625,0.02423095703125,0.97216796875
1630411844122,-0.2039794921875,0.03167724609375,0.97796630859375
1630411844122,-0.208984375,0.02630615234375,0.97784423828125
1630411844147,-0.21136474609375,0.021240234375,0.972900390625
1630411844147,-0.21038818359375,0.01800537109375,0.97479248046875
1630411844147,-0.2108154296875,0.02215576171875,0.97125244140625
1630411844211,-0.2113037109375,0.0198974609375,0.9749755859375
1630411844212,-0.20892333984375,0.018798828125,0.97308349609375
1630411844219,-0.21075439453125,0.02099609375,0.9752197265625
1630411844319,-0.20556640625,0.02490234375,0.97320556640625
1630411844319,-0.208740234375,0.02276611328125,0.97589111328125
1630411844320,-0.2098388671875,0.02288818359375,0.9771728515625
1630411844382,-0.20654296875,0.0244140625,0.97607421875
1630411844383,-0.2081298828125,0.02423095703125,0.9779052734375
1630411844383,-0.20880126953125,0.02630615234375,0.97906494140625
1630411844433,-0.2093505859375,0.02679443359375,0.97491455078125
1630411844437,-0.20855712890625,0.0252685546875,0.97552490234375
1630411844437,-0.21240234375,0.02215576171875,0.970703125
1630411844462,-0.2027587890625,0.0264892578125,0.97503662109375
1630411844462,-0.207275390625,0.0224609375,0.9764404296875
1630411844523,-0.20849609375,0.027587890625,0.97088623046875
1630411844525,-0.20379638671875,0.0213623046875,0.97601318359375
1630411844528,-0.2061767578125,0.02392578125,0.97320556640625
1630411844571,-0.2032470703125,0.02410888671875,0.974609375
1630411844572,-0.20623779296875,0.02386474609375,0.97625732421875
1630411844572,-0.20562744140625,0.02532958984375,0.9779052734375
1630411844681,-0.2010498046875,0.021240234375,0.97674560546875
1630411844681,-0.20556640625,0.0216064453125,0.98016357421875
1630411844699,-0.20458984375,0.0240478515625,0.9791259765625
1630411844700,-0.20111083984375,0.022705078125,0.977294921875
1630411844708,-0.20391845703125,0.02630615234375,0.97894287109375
1630411844708,-0.20263671875,0.02288818359375,0.977783203125
1630411844744,-0.212158203125,0.02142333984375,0.97705078125
1630411844747,-0.20294189453125,0.02593994140625,0.97882080078125
1630411844748,-0.20751953125,0.024169921875,0.9764404296875
1630411844853,-0.207763671875,0.018310546875,0.97479248046875
1630411844853,-0.20635986328125,0.0205078125,0.97076416015625
1630411844859,-0.209716796875,0.02117919921875,0.97161865234375
1630411844899,-0.2056884765625,0.02178955078125,0.97149658203125
1630411844900,-0.2099609375,0.02239990234375,0.97088623046875
1630411844946,-0.2034912109375,0.02691650390625,0.97821044921875
1630411844946,-0.2064208984375,0.02728271484375,0.980712890625
1630411844946,-0.20361328125,0.02191162109375,0.9752197265625
1630411844993,-0.20220947265625,0.028076171875,0.97747802734375
1630411844993,-0.20501708984375,0.02490234375,0.9727783203125
1630411844993,-0.203125,0.029052734375,0.9791259765625
1630411845040,-0.2066650390625,0.01678466796875,0.9761962890625
1630411845041,-0.208251953125,0.02178955078125,0.9727783203125
1630411845045,-0.2100830078125,0.017822265625,0.972900390625
1630411845117,-0.2060546875,0.02264404296875,0.97845458984375
1630411845117,-0.20709228515625,0.01763916015625,0.97711181640625
1630411845118,-0.20489501953125,0.0211181640625,0.9759521484375
1630411845209,-0.20501708984375,0.02716064453125,0.97711181640625
1630411845209,-0.20379638671875,0.02423095703125,0.97601318359375
1630411845210,-0.2059326171875,0.01995849609375,0.9779052734375
1630411845240,-0.2044677734375,0.02764892578125,0.973876953125
1630411845241,-0.20904541015625,0.024658203125,0.9766845703125
1630411845241,-0.20489501953125,0.0244140625,0.9779052734375
1630411845255,-0.20428466796875,0.026123046875,0.97528076171875
1630411845255,-0.2081298828125,0.02301025390625,0.9776611328125
1630411845255,-0.207763671875,0.0252685546875,0.97418212890625
1630411845334,-0.2008056640625,0.02203369140625,0.97540283203125
1630411845334,-0.20440673828125,0.024658203125,0.9744873046875
1630411845341,-0.20574951171875,0.02630615234375,0.97412109375
1630411845425,-0.20465087890625,0.0245361328125,0.97601318359375
1630411845425,-0.19891357421875,0.02508544921875,0.9791259765625
1630411845426,-0.20709228515625,0.0223388671875,0.9755859375
1630411845488,-0.19989013671875,0.02227783203125,0.97955322265625
1630411845488,-0.20458984375,0.02044677734375,0.97998046875
1630411845488,-0.2022705078125,0.0223388671875,0.98004150390625
1630411845520,-0.20196533203125,0.0234375,0.9761962890625
1630411845532,-0.20452880859375,0.0235595703125,0.97882080078125
1630411845536,-0.20233154296875,0.0234375,0.9798583984375
1630411845581,-0.202392578125,0.025146484375,0.9742431640625
1630411845581,-0.2008056640625,0.02587890625,0.97723388671875
1630411845583,-0.20709228515625,0.024658203125,0.97882080078125
1630411845661,-0.20745849609375,0.025146484375,0.9766845703125
1630411845661,-0.20904541015625,0.02099609375,0.978271484375
1630411845662,-0.2060546875,0.02166748046875,0.97271728515625
1630411845712,-0.202880859375,0.01727294921875,0.9739990234375
1630411845713,-0.20330810546875,0.02618408203125,0.9747314453125
1630411845713,-0.2064208984375,0.02178955078125,0.969482421875
1630411845756,-0.2034912109375,0.02423095703125,0.98162841796875
1630411845757,-0.2039794921875,0.0238037109375,0.97509765625
1630411845788,-0.19708251953125,0.02197265625,0.97760009765625
1630411845788,-0.1993408203125,0.025634765625,0.98236083984375
1630411845788,-0.197265625,0.0238037109375,0.9798583984375
1630411845882,-0.20440673828125,0.02142333984375,0.97088623046875
1630411845882,-0.208251953125,0.0225830078125,0.97442626953125
1630411845882,-0.20611572265625,0.02410888671875,0.97613525390625
1630411845913,-0.20965576171875,0.02178955078125,0.9759521484375
1630411845913,-0.20758056640625,0.0228271484375,0.97210693359375
1630411845914,-0.20770263671875,0.019775390625,0.97265625
1630411845976,-0.2110595703125,0.02203369140625,0.97222900390625
1630411845976,-0.20843505859375,0.0264892578125,0.977783203125
1630411845976,-0.20684814453125,0.020751953125,0.97381591796875
1630411846103,-0.2080078125,0.02325439453125,0.97320556640625
1630411846104,-0.2052001953125,0.02435302734375,0.97686767578125
1630411846104,-0.2061767578125,0.02532958984375,0.97662353515625
1630411846119,-0.2039794921875,0.021728515625,0.9755859375
1630411846119,-0.20721435546875,0.02496337890625,0.9759521484375
1630411846120,-0.2049560546875,0.02288818359375,0.97637939453125
1630411846181,-0.20880126953125,0.02288818359375,0.97552490234375
1630411846181,-0.2047119140625,0.02374267578125,0.9779052734375
1630411846181,-0.20672607421875,0.02294921875,0.9757080078125
1630411846243,-0.20233154296875,0.0264892578125,0.9720458984375
1630411846253,-0.203857421875,0.02276611328125,0.97686767578125
1630411846253,-0.20538330078125,0.02484130859375,0.97662353515625
1630411846273,-0.2052001953125,0.0252685546875,0.977783203125
1630411846274,-0.20574951171875,0.0257568359375,0.97540283203125
1630411846274,-0.20330810546875,0.02520751953125,0.9735107421875
1630411846383,-0.20208740234375,0.025390625,0.97796630859375
1630411846383,-0.20458984375,0.02490234375,0.97760009765625
1630411846385,-0.20025634765625,0.02288818359375,0.97735595703125
1630411846447,-0.199462890625,0.0238037109375,0.98162841796875
1630411846448,-0.19970703125,0.0242919921875,0.9796142578125
1630411846448,-0.1998291015625,0.02557373046875,0.97998046875
1630411846461,-0.19989013671875,0.025390625,0.980224609375
1630411846461,-0.20062255859375,0.025390625,0.9766845703125
1630411846465,-0.20074462890625,0.029296875,0.9742431640625
1630411846523,-0.20428466796875,0.02874755859375,0.98046875
1630411846523,-0.2066650390625,0.0284423828125,0.97784423828125
1630411846524,-0.2081298828125,0.02606201171875,0.97308349609375
1630411846584,-0.2039794921875,0.02685546875,0.97003173828125
1630411846584,-0.20550537109375,0.0274658203125,0.970947265625
1630411846584,-0.20379638671875,0.02435302734375,0.973388671875
1630411846664,-0.20367431640625,0.024658203125,0.97564697265625
1630411846664,-0.20172119140625,0.0224609375,0.97283935546875
1630411846664,-0.20526123046875,0.0247802734375,0.978271484375
1630411846712,-0.20318603515625,0.02618408203125,0.97784423828125
1630411846712,-0.19940185546875,0.02423095703125,0.97406005859375
1630411846712,-0.19873046875,0.025634765625,0.9764404296875
1630411846760,-0.20184326171875,0.0255126953125,0.97210693359375
1630411846760,-0.20367431640625,0.02532958984375,0.9757080078125
1630411846760,-0.2049560546875,0.027099609375,0.9754638671875
1630411846791,-0.2059326171875,0.02703857421875,0.9783935546875
1630411846792,-0.20318603515625,0.02532958984375,0.97735595703125
1630411846792,-0.200927734375,0.02618408203125,0.9775390625
1630411846900,-0.203369140625,0.02618408203125,0.98004150390625
1630411846901,-0.20306396484375,0.02313232421875,0.97967529296875
1630411846901,-0.2010498046875,0.02447509765625,0.978515625
1630411846916,-0.20428466796875,0.0263671875,0.97552490234375
1630411846916,-0.2047119140625,0.02423095703125,0.978515625
1630411846994,-0.20526123046875,0.0225830078125,0.97357177734375
1630411846994,-0.20269775390625,0.02532958984375,0.975830078125
1630411846995,-0.2025146484375,0.02764892578125,0.974609375
1630411847057,-0.2010498046875,0.02496337890625,0.97320556640625
1630411847057,-0.2037353515625,0.02301025390625,0.9727783203125
1630411847057,-0.20501708984375,0.023193359375,0.97271728515625
1630411847086,-0.20452880859375,0.02581787109375,0.97235107421875
1630411847086,-0.1990966796875,0.02606201171875,0.97705078125
1630411847107,-0.20355224609375,0.02490234375,0.97991943359375
1630411847164,-0.19720458984375,0.02398681640625,0.9796142578125
1630411847164,-0.2022705078125,0.0228271484375,0.97991943359375
1630411847164,-0.20172119140625,0.02386474609375,0.9803466796875
1630411847259,-0.19915771484375,0.02691650390625,0.98004150390625
1630411847259,-0.20098876953125,0.02264404296875,0.98150634765625
1630411847260,-0.2041015625,0.02606201171875,0.97833251953125
1630411847302,-0.19830322265625,0.0205078125,0.97576904296875
1630411847305,-0.203857421875,0.02325439453125,0.98138427734375
1630411847305,-0.20306396484375,0.02392578125,0.97857666015625
1630411847335,-0.2056884765625,0.02099609375,0.974365234375
1630411847346,-0.20501708984375,0.025634765625,0.9810791015625
1630411847347,-0.2032470703125,0.02069091796875,0.9749755859375
1630411847397,-0.20745849609375,0.02618408203125,0.9677734375
1630411847397,-0.20404052734375,0.02734375,0.97357177734375
1630411847399,-0.20660400390625,0.02557373046875,0.97662353515625
1630411847475,-0.20068359375,0.02960205078125,0.9764404296875
1630411847478,-0.2044677734375,0.02850341796875,0.98150634765625
1630411847478,-0.20196533203125,0.0272216796875,0.98248291015625
1630411847493,-0.19989013671875,0.0284423828125,0.97906494140625
1630411847495,-0.20556640625,0.025390625,0.9761962890625
1630411847495,-0.2047119140625,0.0255126953125,0.97808837890625
1630411847558,-0.205322265625,0.027587890625,0.97265625
1630411847580,-0.208740234375,0.02947998046875,0.97515869140625
1630411847620,-0.20697021484375,0.02398681640625,0.9749755859375
1630411847620,-0.20574951171875,0.02606201171875,0.9744873046875
1630411847620,-0.20831298828125,0.02490234375,0.97283935546875
1630411847729,-0.21099853515625,0.0257568359375,0.9705810546875
1630411847729,-0.20758056640625,0.02490234375,0.9742431640625
1630411847730,-0.204833984375,0.029296875,0.97515869140625
1630411847757,-0.20623779296875,0.0250244140625,0.9774169921875
1630411847758,-0.20281982421875,0.02880859375,0.97735595703125
1630411847759,-0.20697021484375,0.027099609375,0.97625732421875
1630411847804,-0.206787109375,0.028076171875,0.97491455078125
1630411847804,-0.2076416015625,0.02655029296875,0.976318359375
1630411847805,-0.2052001953125,0.02838134765625,0.97308349609375
1630411847884,-0.2054443359375,0.026123046875,0.97442626953125
1630411847884,-0.2021484375,0.02728271484375,0.97503662109375
1630411847884,-0.20697021484375,0.02581787109375,0.97430419921875
1630411847963,-0.20452880859375,0.02435302734375,0.97711181640625
1630411847963,-0.202392578125,0.02655029296875,0.97589111328125
1630411847963,-0.2069091796875,0.02838134765625,0.97705078125
1630411847993,-0.20428466796875,0.02435302734375,0.98046875
1630411848005,-0.20172119140625,0.02569580078125,0.97674560546875
1630411848008,-0.19964599609375,0.0267333984375,0.97662353515625
1630411848054,-0.1988525390625,0.02197265625,0.9755859375
1630411848054,-0.20751953125,0.02484130859375,0.977783203125
1630411848061,-0.20220947265625,0.02349853515625,0.976318359375
1630411848136,-0.19976806640625,0.02392578125,0.975341796875
1630411848139,-0.204833984375,0.025634765625,0.97674560546875
1630411848139,-0.20513916015625,0.02496337890625,0.9766845703125
1630411848150,-0.20782470703125,0.02532958984375,0.97711181640625
1630411848156,-0.20159912109375,0.02703857421875,0.9783935546875
1630411848158,-0.20220947265625,0.0274658203125,0.97882080078125
1630411848230,-0.2041015625,0.0234375,0.9757080078125
1630411848230,-0.20611572265625,0.02197265625,0.9718017578125
1630411848231,-0.20550537109375,0.01971435546875,0.97088623046875
1630411848325,-0.20526123046875,0.02313232421875,0.97479248046875
1630411848326,-0.2039794921875,0.02532958984375,0.978515625
1630411848328,-0.2069091796875,0.0233154296875,0.97698974609375
1630411848371,-0.2064208984375,0.02764892578125,0.978271484375
1630411848371,-0.20184326171875,0.027099609375,0.97930908203125
1630411848379,-0.1998291015625,0.0272216796875,0.98065185546875
1630411848423,-0.207763671875,0.02203369140625,0.9739990234375
1630411848431,-0.20831298828125,0.02520751953125,0.97271728515625
1630411848432,-0.21002197265625,0.02374267578125,0.96868896484375
1630411848467,-0.2103271484375,0.0218505859375,0.97003173828125
1630411848467,-0.2105712890625,0.0245361328125,0.9747314453125
1630411848468,-0.2137451171875,0.0257568359375,0.9715576171875
1630411848498,-0.20953369140625,0.02032470703125,0.96942138671875
1630411848498,-0.21136474609375,0.0213623046875,0.9754638671875
1630411848498,-0.21002197265625,0.02484130859375,0.97430419921875
1630411848593,-0.2091064453125,0.02374267578125,0.975341796875
1630411848615,-0.20819091796875,0.0250244140625,0.9794921875
1630411848615,-0.20703125,0.02484130859375,0.97711181640625
1630411848628,-0.2100830078125,0.02569580078125,0.97637939453125
1630411848629,-0.20721435546875,0.0257568359375,0.9722900390625
1630411848630,-0.2066650390625,0.02374267578125,0.975830078125
1630411848770,-0.20550537109375,0.02703857421875,0.97454833984375
1630411848778,-0.2088623046875,0.02069091796875,0.97515869140625
1630411848783,-0.207763671875,0.02349853515625,0.97625732421875
1630411848789,-0.2099609375,0.02227783203125,0.972900390625
1630411848790,-0.206298828125,0.02178955078125,0.973876953125
1630411848797,-0.202880859375,0.0205078125,0.974365234375
1630411848797,-0.20404052734375,0.024169921875,0.97772216796875
1630411848816,-0.20550537109375,0.02435302734375,0.97601318359375
1630411848845,-0.20538330078125,0.02215576171875,0.98052978515625
1630411848845,-0.2027587890625,0.02740478515625,0.98126220703125
1630411848846,-0.20587158203125,0.02301025390625,0.9739990234375
1630411848971,-0.20574951171875,0.02288818359375,0.9796142578125
1630411848971,-0.2061767578125,0.02008056640625,0.97900390625
1630411848972,-0.20751953125,0.021728515625,0.977783203125
1630411848986,-0.2066650390625,0.0257568359375,0.9769287109375
1630411848986,-0.2034912109375,0.02374267578125,0.98040771484375
1630411849006,-0.2060546875,0.0234375,0.97576904296875
1630411849050,-0.20855712890625,0.02392578125,0.97686767578125
1630411849050,-0.20361328125,0.02447509765625,0.97662353515625
1630411849051,-0.205078125,0.02532958984375,0.97442626953125
1630411849099,-0.2127685546875,0.0230712890625,0.9761962890625
1630411849099,-0.211181640625,0.01873779296875,0.967041015625
1630411849193,-0.2113037109375,0.020751953125,0.9747314453125
1630411849193,-0.2061767578125,0.02294921875,0.97412109375
1630411849194,-0.20989990234375,0.0208740234375,0.975341796875
1630411849195,-0.205322265625,0.02203369140625,0.97613525390625
1630411849197,-0.2060546875,0.020751953125,0.97308349609375
1630411849198,-0.2017822265625,0.0216064453125,0.97406005859375
1630411849256,-0.2061767578125,0.02386474609375,0.9765625
1630411849256,-0.20977783203125,0.02276611328125,0.97900390625
1630411849265,-0.20782470703125,0.02838134765625,0.97406005859375
1630411849366,-0.2113037109375,0.02105712890625,0.97332763671875
1630411849367,-0.2113037109375,0.0267333984375,0.9725341796875
1630411849367,-0.21063232421875,0.0242919921875,0.97589111328125
1630411849414,-0.20953369140625,0.02056884765625,0.97906494140625
1630411849422,-0.2061767578125,0.02337646484375,0.97784423828125
1630411849428,-0.208984375,0.02197265625,0.97613525390625
1630411849490,-0.20367431640625,0.0247802734375,0.97381591796875
1630411849490,-0.20562744140625,0.02423095703125,0.9775390625
1630411849490,-0.2061767578125,0.01934814453125,0.97698974609375
1630411849536,-0.20867919921875,0.0260009765625,0.97314453125
1630411849536,-0.2071533203125,0.0247802734375,0.97454833984375
1630411849536,-0.205810546875,0.0257568359375,0.9747314453125
1630411849569,-0.20562744140625,0.025146484375,0.97662353515625
1630411849572,-0.20733642578125,0.0244140625,0.97308349609375
1630411849572,-0.2059326171875,0.026611328125,0.977783203125
1630411849647,-0.2069091796875,0.0220947265625,0.9739990234375
1630411849647,-0.20574951171875,0.02435302734375,0.97271728515625
1630411849647,-0.207275390625,0.026611328125,0.97625732421875
1630411849726,-0.206787109375,0.0274658203125,0.9757080078125
1630411849726,-0.20635986328125,0.0234375,0.9759521484375
1630411849727,-0.2081298828125,0.022216796875,0.97430419921875
1630411849758,-0.2005615234375,0.02294921875,0.97705078125
1630411849758,-0.2039794921875,0.0247802734375,0.9761962890625
1630411849759,-0.205322265625,0.0267333984375,0.97479248046875
1630411849806,-0.2021484375,0.0252685546875,0.980224609375
1630411849806,-0.2010498046875,0.02496337890625,0.97802734375
1630411849806,-0.20135498046875,0.02313232421875,0.97662353515625
1630411849885,-0.2001953125,0.0286865234375,0.982666015625
1630411849886,-0.20257568359375,0.0269775390625,0.97515869140625
1630411849896,-0.20245361328125,0.025634765625,0.97833251953125
1630411849915,-0.20489501953125,0.0260009765625,0.98138427734375
1630411849916,-0.206787109375,0.0224609375,0.974365234375
1630411849916,-0.2095947265625,0.024169921875,0.97784423828125
1630411849979,-0.2059326171875,0.0233154296875,0.97454833984375
1630411849979,-0.209228515625,0.0244140625,0.97216796875
1630411849979,-0.20428466796875,0.02716064453125,0.9720458984375
1630411850058,-0.20367431640625,0.0255126953125,0.98089599609375
1630411850064,-0.205078125,0.022216796875,0.97711181640625
1630411850064,-0.20098876953125,0.0220947265625,0.97991943359375
1630411850106,-0.2076416015625,0.025390625,0.97998046875
1630411850106,-0.2086181640625,0.02410888671875,0.9742431640625
1630411850106,-0.2032470703125,0.02484130859375,0.9783935546875
1630411850168,-0.2119140625,0.024658203125,0.9703369140625
1630411850168,-0.21343994140625,0.02545166015625,0.97503662109375
1630411850168,-0.20758056640625,0.02398681640625,0.97613525390625
1630411850247,-0.208740234375,0.02117919921875,0.9759521484375
1630411850248,-0.2132568359375,0.019775390625,0.97479248046875
1630411850264,-0.21044921875,0.021240234375,0.973876953125
1630411850294,-0.20867919921875,0.0235595703125,0.9754638671875
1630411850295,-0.2086181640625,0.0196533203125,0.97052001953125
1630411850295,-0.2127685546875,0.0235595703125,0.973388671875
1630411850356,-0.208740234375,0.02215576171875,0.97747802734375
1630411850356,-0.2078857421875,0.0194091796875,0.98052978515625
1630411850356,-0.20635986328125,0.02020263671875,0.97418212890625
1630411850417,-0.2095947265625,0.02154541015625,0.97344970703125
1630411850418,-0.21075439453125,0.0244140625,0.97418212890625
1630411850418,-0.20794677734375,0.02264404296875,0.97503662109375
1630411850449,-0.20684814453125,0.0225830078125,0.9752197265625
1630411850450,-0.204833984375,0.02252197265625,0.97418212890625
1630411850464,-0.20977783203125,0.0225830078125,0.97796630859375
1630411850527,-0.20361328125,0.02349853515625,0.97650146484375
1630411850527,-0.2049560546875,0.024169921875,0.97528076171875
1630411850529,-0.20623779296875,0.0244140625,0.9725341796875
1630411850591,-0.20263671875,0.0203857421875,0.978271484375
1630411850592,-0.20416259765625,0.0208740234375,0.97723388671875
1630411850592,-0.2047119140625,0.02276611328125,0.98138427734375
1630411850623,-0.20648193359375,0.0225830078125,0.9752197265625
1630411850623,-0.205322265625,0.0181884765625,0.97467041015625
1630411850623,-0.20697021484375,0.018798828125,0.97723388671875
1630411850700,-0.2056884765625,0.0211181640625,0.97576904296875
1630411850700,-0.20391845703125,0.02239990234375,0.975341796875
1630411850700,-0.20867919921875,0.02484130859375,0.97479248046875
1630411850747,-0.21209716796875,0.02496337890625,0.97296142578125
1630411850747,-0.20599365234375,0.0234375,0.9747314453125
1630411850748,-0.20855712890625,0.0234375,0.97747802734375
1630411850824,-0.21234130859375,0.02081298828125,0.9732666015625
1630411850824,-0.2115478515625,0.02288818359375,0.97247314453125
1630411850835,-0.20947265625,0.0189208984375,0.97265625
1630411850840,-0.205078125,0.01971435546875,0.97381591796875
1630411850843,-0.21038818359375,0.0216064453125,0.9737548828125
1630411850846,-0.2086181640625,0.019287109375,0.9720458984375
1630411850933,-0.2060546875,0.02471923828125,0.97930908203125
1630411850933,-0.2066650390625,0.0247802734375,0.9803466796875
1630411850937,-0.2060546875,0.02374267578125,0.9765625
1630411851027,-0.20513916015625,0.0260009765625,0.9766845703125
1630411851027,-0.2103271484375,0.0279541015625,0.974609375
1630411851027,-0.209228515625,0.0245361328125,0.972900390625
1630411851073,-0.2130126953125,0.0194091796875,0.96807861328125
1630411851073,-0.213623046875,0.02337646484375,0.9722900390625
1630411851073,-0.21337890625,0.02215576171875,0.96881103515625
1630411851118,-0.20867919921875,0.01849365234375,0.97100830078125
1630411851119,-0.2110595703125,0.02178955078125,0.97052001953125
1630411851123,-0.21484375,0.01995849609375,0.97052001953125
1630411851165,-0.2095947265625,0.02178955078125,0.9744873046875
1630411851165,-0.2076416015625,0.02294921875,0.97796630859375
1630411851166,-0.2110595703125,0.020263671875,0.97528076171875
1630411851242,-0.20452880859375,0.02197265625,0.978515625
1630411851243,-0.20452880859375,0.0247802734375,0.97705078125
1630411851246,-0.2066650390625,0.02508544921875,0.9775390625
1630411851306,-0.203857421875,0.02337646484375,0.97711181640625
1630411851306,-0.2059326171875,0.0238037109375,0.97772216796875
1630411851306,-0.20916748046875,0.02008056640625,0.971435546875
1630411851352,-0.2119140625,0.02374267578125,0.97314453125
1630411851352,-0.2088623046875,0.0213623046875,0.97491455078125
1630411851353,-0.2083740234375,0.02508544921875,0.97515869140625
1630411851383,-0.2080078125,0.024169921875,0.9732666015625
1630411851383,-0.2108154296875,0.0230712890625,0.971923828125
1630411851384,-0.2091064453125,0.0245361328125,0.97369384765625
1630411851524,-0.20684814453125,0.02374267578125,0.9749755859375
1630411851524,-0.206787109375,0.02093505859375,0.9755859375
1630411851524,-0.2056884765625,0.022705078125,0.9786376953125
1630411851620,-0.20623779296875,0.02349853515625,0.978271484375
1630411851620,-0.20721435546875,0.0223388671875,0.9769287109375
1630411851620,-0.20477294921875,0.0223388671875,0.97686767578125
1630411851650,-0.20501708984375,0.0218505859375,0.97564697265625
1630411851650,-0.20611572265625,0.02490234375,0.97845458984375
1630411851653,-0.20587158203125,0.02557373046875,0.9793701171875
1630411851666,-0.20556640625,0.0228271484375,0.978271484375
1630411851679,-0.20269775390625,0.02581787109375,0.97589111328125
1630411851679,-0.2083740234375,0.02386474609375,0.9742431640625
1630411851729,-0.20867919921875,0.024658203125,0.972412109375
1630411851729,-0.2078857421875,0.02008056640625,0.9735107421875
1630411851731,-0.2093505859375,0.01922607421875,0.96929931640625
1630411851760,-0.20513916015625,0.020751953125,0.972900390625
1630411851760,-0.206787109375,0.02105712890625,0.9749755859375
1630411851761,-0.2083740234375,0.01898193359375,0.972412109375
1630411851775,-0.20233154296875,0.0264892578125,0.98162841796875
1630411851776,-0.2030029296875,0.02490234375,0.98138427734375
1630411851778,-0.2030029296875,0.02386474609375,0.9775390625
1630411851886,-0.2066650390625,0.02301025390625,0.97894287109375
1630411851887,-0.201904296875,0.02301025390625,0.98077392578125
1630411851887,-0.20257568359375,0.02435302734375,0.97613525390625
1630411851931,-0.2061767578125,0.02349853515625,0.97857666015625
1630411851937,-0.21044921875,0.0208740234375,0.97650146484375
1630411851937,-0.20477294921875,0.02435302734375,0.9698486328125
1630411852026,-0.20660400390625,0.02117919921875,0.97503662109375
1630411852026,-0.2117919921875,0.01666259765625,0.97430419921875
1630411852026,-0.20751953125,0.021484375,0.9749755859375
1630411852059,-0.20941162109375,0.02081298828125,0.97430419921875
1630411852059,-0.20458984375,0.02154541015625,0.97509765625
1630411852062,-0.20684814453125,0.02117919921875,0.9737548828125
1630411852090,-0.2078857421875,0.0218505859375,0.97900390625
1630411852090,-0.20977783203125,0.02325439453125,0.9764404296875
1630411852090,-0.2069091796875,0.02044677734375,0.97686767578125
1630411852184,-0.20648193359375,0.019287109375,0.9742431640625
1630411852184,-0.21014404296875,0.0234375,0.97442626953125
1630411852184,-0.204833984375,0.02105712890625,0.97601318359375
1630411852279,-0.2054443359375,0.02191162109375,0.97882080078125
1630411852279,-0.2041015625,0.02423095703125,0.975341796875
1630411852286,-0.207763671875,0.02313232421875,0.97564697265625
1630411852343,-0.20245361328125,0.025146484375,0.97137451171875
1630411852344,-0.201171875,0.02545166015625,0.9730224609375
1630411852344,-0.204833984375,0.0244140625,0.97259521484375
1630411852376,-0.20635986328125,0.0245361328125,0.97637939453125
1630411852385,-0.20379638671875,0.02178955078125,0.9769287109375
1630411852407,-0.20574951171875,0.02362060546875,0.9744873046875
1630411852408,-0.2047119140625,0.0186767578125,0.9794921875
1630411852483,-0.2044677734375,0.0191650390625,0.9825439453125
1630411852483,-0.20330810546875,0.0206298828125,0.98095703125
1630411852510,-0.20166015625,0.02154541015625,0.97845458984375
1630411852517,-0.204345703125,0.02081298828125,0.97821044921875
1630411852517,-0.2060546875,0.0196533203125,0.97662353515625
1630411852517,-0.205322265625,0.02130126953125,0.9786376953125
1630411852610,-0.2100830078125,0.02203369140625,0.9716796875
1630411852610,-0.20819091796875,0.01959228515625,0.975341796875
1630411852611,-0.20758056640625,0.02490234375,0.97039794921875
1630411852659,-0.20404052734375,0.02197265625,0.97247314453125
1630411852659,-0.205078125,0.02154541015625,0.97442626953125
1630411852663,-0.20672607421875,0.02569580078125,0.97003173828125
1630411852703,-0.200439453125,0.02490234375,0.9764404296875
1630411852711,-0.20263671875,0.02362060546875,0.9779052734375
1630411852715,-0.201904296875,0.02288818359375,0.97705078125
1630411852782,-0.20428466796875,0.0244140625,0.97613525390625
1630411852782,-0.2037353515625,0.0252685546875,0.97564697265625
1630411852782,-0.20550537109375,0.0230712890625,0.97607421875
1630411852877,-0.20343017578125,0.0242919921875,0.97344970703125
1630411852877,-0.2060546875,0.02386474609375,0.97760009765625
1630411852877,-0.206787109375,0.0257568359375,0.97515869140625
1630411852878,-0.20648193359375,0.02398681640625,0.9791259765625
1630411852878,-0.2049560546875,0.02447509765625,0.976806640625
1630411852878,-0.20623779296875,0.02349853515625,0.9775390625
1630411852922,-0.20599365234375,0.0206298828125,0.97515869140625
1630411852923,-0.2071533203125,0.0206298828125,0.9771728515625
1630411852937,-0.20556640625,0.02447509765625,0.97589111328125
1630411853014,-0.208251953125,0.025390625,0.97491455078125
1630411853014,-0.20745849609375,0.021240234375,0.97515869140625
1630411853014,-0.208984375,0.02392578125,0.97723388671875
1630411853123,-0.20819091796875,0.022216796875,0.97149658203125
1630411853123,-0.2078857421875,0.0224609375,0.97503662109375
1630411853123,-0.20379638671875,0.02587890625,0.9747314453125
1630411853124,-0.206298828125,0.02337646484375,0.97607421875
1630411853127,-0.20843505859375,0.0244140625,0.97479248046875
1630411853138,-0.20458984375,0.02301025390625,0.97503662109375
