timestamp,ax,ay,az
1629797528100,0.04803466796875,-0.02099609375,1.00335693359375
1629797528100,0.0447998046875,-0.02020263671875,1.00262451171875
1629797528100,0.05072021484375,-0.02020263671875,1.004638671875
1629797528147,0.04833984375,-0.01434326171875,1.0069580078125
1629797528147,0.05126953125,-0.01776123046875,1.0081787109375
1629797528147,0.05322265625,-0.01605224609375,1.00750732421875
1629797528240,0.0494384765625,-0.0140380859375,1.0045166015625
1629797528240,0.0447998046875,-0.01141357421875,1.0018310546875
1629797528240,0.0460205078125,-0.0118408203125,1.002197265625
1629797528397,0.044189453125,-0.01470947265625,0.994873046875
1629797528397,0.0421142578125,-0.01470947265625,0.9979248046875
1629797528397,0.04193115234375,-0.0130615234375,1.00439453125
1629797528412,0.0433349609375,-0.01470947265625,1.0010986328125
1629797528412,0.04193115234375,-0.01800537109375,0.99859619140625
1629797528412,0.0494384765625,-0.01617431640625,0.99871826171875
1629797528428,0.04327392578125,-0.01593017578125,1.003173828125
1629797528428,0.04541015625,-0.0146484375,1.00543212890625
1629797528428,0.0489501953125,-0.0120849609375,1.00250244140625
1629797528428,0.0517578125,-0.01458740234375,1.00421142578125
1629797528428,0.04095458984375,-0.014404296875,1.00311279296875
1629797528428,0.04437255859375,-0.017822265625,1.0008544921875
1629797528490,0.04248046875,-0.01513671875,0.9976806640625
1629797528490,0.045166015625,-0.01605224609375,1.0006103515625
1629797528490,0.04071044921875,-0.0123291015625,1.0030517578125
1629797528553,0.0396728515625,-0.017333984375,0.997802734375
1629797528553,0.0386962890625,-0.01678466796875,0.9979248046875
1629797528553,0.0401611328125,-0.014404296875,0.99859619140625
1629797528615,0.03802490234375,-0.01806640625,1.00250244140625
1629797528615,0.04058837890625,-0.0146484375,1.00177001953125
1629797528631,0.04071044921875,-0.01422119140625,0.99945068359375
1629797528647,0.0379638671875,-0.01251220703125,0.9996337890625
1629797528647,0.0390625,-0.013671875,1.00042724609375
1629797528647,0.0382080078125,-0.01763916015625,1.0025634765625
1629797528756,0.0401611328125,-0.01544189453125,1.000244140625
1629797528756,0.04150390625,-0.016845703125,0.9996337890625
1629797528772,0.03790283203125,-0.01580810546875,0.99786376953125
1629797528787,0.04034423828125,-0.01702880859375,1.00262451171875
1629797528787,0.04217529296875,-0.01593017578125,1.0013427734375
1629797528787,0.04095458984375,-0.01397705078125,1.0008544921875
1629797528865,0.0426025390625,-0.0128173828125,0.995849609375
1629797528865,0.0455322265625,-0.013427734375,0.9969482421875
1629797528865,0.045654296875,-0.0152587890625,0.9967041015625
1629797528975,0.03924560546875,-0.02471923828125,0.9832763671875
1629797528975,0.04400634765625,-0.015869140625,0.9912109375
1629797528975,0.0433349609375,-0.016357421875,0.99468994140625
1629797528990,0.037353515625,-0.026123046875,0.95977783203125
1629797528990,0.0382080078125,-0.02691650390625,0.9713134765625
1629797528990,0.0343017578125,-0.02337646484375,0.97918701171875
1629797529022,0.03021240234375,-0.01458740234375,0.9464111328125
1629797529022,0.03338623046875,-0.02294921875,0.95770263671875
1629797529022,0.031005859375,-0.01873779296875,0.955078125
1629797529100,0.02459716796875,-0.01409912109375,0.9351806640625
1629797529100,0.0262451171875,-0.0184326171875,0.92462158203125
1629797529115,0.02935791015625,-0.01824951171875,0.9112548828125
1629797529147,0.048095703125,-0.01904296875,0.90325927734375
1629797529147,0.09539794921875,-0.01226806640625,0.935546875
1629797529147,0.0703125,-0.0145263671875,0.91143798828125
1629797529225,0.11968994140625,-0.01611328125,0.9637451171875
1629797529225,0.14422607421875,-0.0203857421875,0.98358154296875
1629797529225,0.17620849609375,-0.02490234375,0.988525390625
1629797529256,0.28472900390625,-0.02581787109375,1.05908203125
1629797529256,0.21295166015625,-0.031005859375,0.998046875
1629797529256,0.2518310546875,-0.0345458984375,1.0238037109375
1629797529397,0.3553466796875,-0.0120849609375,1.134033203125
1629797529397,0.3134765625,-0.02093505859375,1.09210205078125
1629797529397,0.34100341796875,-0.01824951171875,1.1307373046875
1629797529412,0.33612060546875,-0.00042724609375,1.08197021484375
1629797529412,0.354736328125,-0.0084228515625,1.10443115234375
1629797529412,0.35577392578125,-0.01251220703125,1.11474609375
1629797529428,0.3192138671875,0.00421142578125,1.05126953125
1629797529428,0.30731201171875,0.0081787109375,1.03863525390625
1629797529428,0.29833984375,-6.103515625e-05,1.04638671875
1629797529553,0.2816162109375,-0.00164794921875,1.0323486328125
1629797529568,0.24151611328125,-0.021484375,1.0162353515625
1629797529568,0.25128173828125,-0.01318359375,1.01226806640625
1629797529568,0.2135009765625,-0.01641845703125,1.02105712890625
1629797529568,0.26763916015625,-0.00604248046875,1.01898193359375
1629797529568,0.22833251953125,-0.02593994140625,1.0303955078125
1629797529600,0.15618896484375,-0.0321044921875,1.01617431640625
1629797529600,0.191650390625,-0.02288818359375,1.01824951171875
1629797529600,0.1759033203125,-0.0318603515625,1.0294189453125
1629797529709,0.1307373046875,-0.0191650390625,0.977294921875
1629797529709,0.03509521484375,0.0006103515625,0.96527099609375
1629797529709,0.083251953125,-0.014404296875,0.99810791015625
1629797529709,0.01025390625,-0.00042724609375,0.95562744140625
1629797529709,0.060302734375,-0.00360107421875,0.98480224609375
1629797529709,0.10552978515625,-0.00537109375,0.97613525390625
1629797529803,-0.01971435546875,0.00543212890625,0.92474365234375
1629797529803,-0.04547119140625,0.01666259765625,0.9124755859375
1629797529803,-0.074951171875,0.021728515625,0.89447021484375
1629797529834,-0.12103271484375,0.0338134765625,0.85736083984375
1629797529834,-0.097900390625,0.02923583984375,0.875
1629797529834,-0.129638671875,0.03369140625,0.84210205078125
1629797529912,-0.12921142578125,0.04034423828125,0.797119140625
1629797529912,-0.1351318359375,0.036865234375,0.81561279296875
1629797529928,-0.115966796875,0.0357666015625,0.81170654296875
1629797529943,-0.0390625,0.02691650390625,0.88641357421875
1629797529943,-0.08740234375,0.02874755859375,0.84564208984375
1629797529943,0.00592041015625,0.02679443359375,0.9281005859375
1629797530022,0.11602783203125,0.01416015625,1.01275634765625
1629797530022,0.04840087890625,0.020751953125,0.968017578125
1629797530022,0.0848388671875,0.02423095703125,0.99200439453125
1629797530131,0.156005859375,0.0045166015625,1.08685302734375
1629797530131,0.2073974609375,-0.00030517578125,1.06878662109375
1629797530131,0.18408203125,-0.000244140625,1.08294677734375
1629797530146,0.22540283203125,0.00360107421875,1.09954833984375
1629797530146,0.211669921875,0.00274658203125,1.0794677734375
1629797530146,0.2371826171875,0.01397705078125,1.11468505859375
1629797530240,0.24786376953125,0.0330810546875,1.10906982421875
1629797530240,0.26043701171875,0.0445556640625,1.09417724609375
1629797530240,0.2421875,0.02008056640625,1.11474609375
1629797530303,0.25177001953125,-0.0025634765625,1.051025390625
1629797530303,0.2593994140625,0.01904296875,1.05963134765625
1629797530303,0.2659912109375,0.038330078125,1.0772705078125
1629797530459,0.2362060546875,0.00738525390625,1.03997802734375
1629797530474,0.21697998046875,0.01397705078125,1.02337646484375
1629797530474,0.19354248046875,0.00689697265625,1.03466796875
1629797530474,0.16741943359375,0.02032470703125,1.041015625
1629797530474,0.20068359375,0.008544921875,1.02459716796875
1629797530474,0.18194580078125,0.01226806640625,1.041015625
1629797530521,0.10552978515625,0.04779052734375,0.96209716796875
1629797530521,0.1519775390625,0.02520751953125,1.01806640625
1629797530521,0.03131103515625,0.06439208984375,0.87078857421875
1629797530521,0.12847900390625,0.03662109375,0.9990234375
1629797530537,0.05596923828125,0.060791015625,0.905517578125
1629797530537,0.0777587890625,0.0540771484375,0.93768310546875
1629797530615,-0.0029296875,0.04931640625,0.829833984375
1629797530615,0.0150146484375,0.0654296875,0.8558349609375
1629797530631,0.05181884765625,0.0235595703125,0.91961669921875
1629797530631,0.0252685546875,0.03131103515625,0.90118408203125
1629797530631,0.00592041015625,0.0374755859375,0.86273193359375
1629797530631,6.103515625e-05,0.05609130859375,0.84576416015625
1629797530693,0.08367919921875,0.02239990234375,0.9393310546875
1629797530693,0.12835693359375,0.02716064453125,0.95916748046875
1629797530693,0.169921875,0.03302001953125,1.0093994140625
1629797530724,0.24041748046875,0.04052734375,1.044189453125
1629797530724,0.26409912109375,0.03765869140625,1.0732421875
1629797530724,0.2100830078125,0.04241943359375,1.02496337890625
1629797530818,0.2786865234375,0.044189453125,1.074462890625
1629797530818,0.286865234375,0.05120849609375,1.04901123046875
1629797530818,0.2880859375,0.0552978515625,1.04547119140625
1629797530865,0.28289794921875,0.052001953125,1.03839111328125
1629797530865,0.27813720703125,0.05950927734375,1.03057861328125
1629797530865,0.282470703125,0.05059814453125,1.04248046875
1629797530959,0.26458740234375,0.06866455078125,1.005615234375
1629797530959,0.26336669921875,0.0733642578125,1.02001953125
1629797530959,0.2698974609375,0.064453125,1.01336669921875
1629797530995,0.2591552734375,0.081298828125,1.02142333984375
1629797530995,0.2548828125,0.09234619140625,1.02777099609375
1629797531011,0.2440185546875,0.09698486328125,1.025146484375
1629797531027,0.2049560546875,0.1041259765625,1.02069091796875
1629797531027,0.2274169921875,0.09246826171875,1.0294189453125
1629797531027,0.1885986328125,0.10321044921875,1.01214599609375
1629797531136,0.15887451171875,0.099853515625,1.0081787109375
1629797531136,0.1787109375,0.104248046875,1.01153564453125
1629797531152,0.14337158203125,0.0943603515625,1.00018310546875
1629797531152,0.119140625,0.08831787109375,1.0032958984375
1629797531152,0.12786865234375,0.09625244140625,1.0047607421875
1629797531152,0.11669921875,0.0953369140625,1.002197265625
1629797531214,0.0775146484375,0.09368896484375,1.00946044921875
1629797531214,0.0533447265625,0.08795166015625,0.98876953125
1629797531245,0.034423828125,0.09124755859375,0.99267578125
1629797531245,0.015380859375,0.07568359375,0.9901123046875
1629797531245,-0.0047607421875,0.056640625,0.98504638671875
1629797531386,-0.01312255859375,0.0467529296875,0.99462890625
1629797531386,-0.03369140625,0.02996826171875,0.97998046875
1629797531386,-0.0260009765625,0.0419921875,0.9862060546875
1629797531417,-0.0670166015625,0.0242919921875,0.97747802734375
1629797531417,-0.08001708984375,0.03228759765625,0.9852294921875
1629797531417,-0.09228515625,0.0318603515625,0.984130859375
1629797531417,-0.0721435546875,0.02874755859375,0.96539306640625
1629797531433,-0.05596923828125,0.0245361328125,0.9864501953125
1629797531433,-0.04290771484375,0.0240478515625,0.9844970703125
1629797531511,-0.10736083984375,0.02398681640625,0.95281982421875
1629797531511,-0.096923828125,0.029296875,0.9642333984375
1629797531511,-0.11798095703125,0.01861572265625,0.941162109375
1629797531589,-0.1334228515625,-0.00408935546875,0.95086669921875
1629797531589,-0.14337158203125,-0.01263427734375,0.936279296875
1629797531589,-0.1192626953125,0.0091552734375,0.9393310546875
1629797531605,-0.15594482421875,-0.02227783203125,0.9295654296875
1629797531605,-0.14697265625,-0.028076171875,0.9234619140625
1629797531620,-0.15289306640625,-0.0186767578125,0.93035888671875
1629797531698,-0.12994384765625,-0.06512451171875,0.963623046875
1629797531698,-0.141845703125,-0.03656005859375,0.9266357421875
1629797531698,-0.13262939453125,-0.0509033203125,0.93585205078125
1629797531761,-0.09783935546875,-0.11126708984375,0.97918701171875
1629797531761,-0.1112060546875,-0.0977783203125,0.9722900390625
1629797531761,-0.11883544921875,-0.08013916015625,0.97125244140625
1629797531776,-0.0841064453125,-0.12567138671875,0.99725341796875
1629797531776,-0.09002685546875,-0.12030029296875,0.9954833984375
1629797531792,-0.07550048828125,-0.1212158203125,0.99835205078125
1629797531839,-0.0667724609375,-0.12518310546875,0.9891357421875
1629797531839,-0.05987548828125,-0.1204833984375,1.006591796875
1629797531839,-0.0206298828125,-0.134033203125,1.02313232421875
1629797531948,-0.05450439453125,-0.134765625,0.96435546875
1629797531948,-0.059326171875,-0.1326904296875,0.9769287109375
1629797531948,-0.02325439453125,-0.13446044921875,0.97503662109375
1629797531979,-0.01043701171875,-0.13543701171875,0.98638916015625
1629797531979,-0.02252197265625,-0.15576171875,0.9786376953125
1629797531979,-0.0577392578125,-0.1451416015625,0.93927001953125
1629797532028,0.0184326171875,-0.1624755859375,0.9906005859375
1629797532028,0.01983642578125,-0.168701171875,0.9691162109375
1629797532044,0.0,-0.16986083984375,1.00811767578125
1629797532091,0.0244140625,-0.17486572265625,1.02166748046875
1629797532091,0.0206298828125,-0.15423583984375,1.01324462890625
1629797532106,0.02178955078125,-0.18865966796875,0.99755859375
1629797532169,0.01751708984375,-0.19830322265625,0.97613525390625
1629797532169,0.0185546875,-0.21697998046875,0.958984375
1629797532169,0.01300048828125,-0.2054443359375,0.96539306640625
1629797532216,0.03118896484375,-0.2381591796875,0.9783935546875
1629797532216,0.02392578125,-0.23028564453125,0.96746826171875
1629797532216,0.03131103515625,-0.2398681640625,0.9765625
1629797532278,0.0389404296875,-0.23040771484375,0.96673583984375
1629797532278,0.04278564453125,-0.22857666015625,0.97906494140625
1629797532278,0.04815673828125,-0.2313232421875,0.98577880859375
1629797532325,0.04925537109375,-0.22467041015625,0.97064208984375
1629797532325,0.04913330078125,-0.230712890625,0.96954345703125
1629797532325,0.04949951171875,-0.22564697265625,0.974365234375
1629797532387,0.050048828125,-0.23388671875,0.96929931640625
1629797532387,0.04949951171875,-0.2376708984375,0.9632568359375
1629797532387,0.0474853515625,-0.24285888671875,0.9547119140625
1629797532465,0.048828125,-0.24957275390625,0.95849609375
1629797532465,0.059814453125,-0.26251220703125,0.97808837890625
1629797532465,0.0548095703125,-0.25164794921875,0.9599609375
1629797532544,0.06329345703125,-0.25640869140625,0.99066162109375
1629797532544,0.06939697265625,-0.25311279296875,0.97515869140625
1629797532544,0.0634765625,-0.2618408203125,0.9891357421875
1629797532606,0.07830810546875,-0.2550048828125,0.9921875
1629797532606,0.06683349609375,-0.2510986328125,0.9849853515625
1629797532606,0.0701904296875,-0.2489013671875,0.98016357421875
1629797532637,0.08172607421875,-0.236328125,0.99224853515625
1629797532637,0.078857421875,-0.2423095703125,0.99359130859375
1629797532637,0.0782470703125,-0.25201416015625,0.9852294921875
1629797532715,0.07891845703125,-0.2244873046875,0.97955322265625
1629797532715,0.08160400390625,-0.22857666015625,0.98699951171875
1629797532715,0.08056640625,-0.23175048828125,0.9951171875
1629797532794,0.07574462890625,-0.22369384765625,0.97137451171875
1629797532794,0.07171630859375,-0.20758056640625,0.97314453125
1629797532794,0.07818603515625,-0.21466064453125,0.9700927734375
1629797532856,0.08013916015625,-0.19073486328125,0.97198486328125
1629797532856,0.07574462890625,-0.1986083984375,0.9700927734375
1629797532856,0.07586669921875,-0.19525146484375,0.96728515625
1629797532919,0.0810546875,-0.1944580078125,0.9752197265625
1629797532919,0.08770751953125,-0.1971435546875,0.9755859375
1629797532919,0.090576171875,-0.1912841796875,0.97747802734375
1629797532919,0.084228515625,-0.1956787109375,0.97589111328125
1629797532919,0.087158203125,-0.19482421875,0.97821044921875
1629797532919,0.0880126953125,-0.1923828125,0.98095703125
1629797532997,0.0909423828125,-0.1868896484375,0.972900390625
1629797532997,0.09100341796875,-0.17852783203125,0.97003173828125
1629797532997,0.09442138671875,-0.16583251953125,0.96160888671875
1629797533028,0.09765625,-0.15570068359375,0.95574951171875
1629797533028,0.0946044921875,-0.16046142578125,0.9549560546875
1629797533028,0.103515625,-0.15484619140625,0.9434814453125
1629797533171,0.1158447265625,-0.16748046875,0.928466796875
1629797533171,0.12786865234375,-0.17938232421875,0.92559814453125
1629797533171,0.1109619140625,-0.16131591796875,0.9349365234375
1629797533187,0.1851806640625,-0.220947265625,1.00164794921875
1629797533187,0.1602783203125,-0.21697998046875,0.98089599609375
1629797533202,0.14599609375,-0.2020263671875,0.95001220703125
1629797533218,0.21832275390625,-0.15435791015625,1.03619384765625
1629797533218,0.20550537109375,-0.19305419921875,0.9931640625
1629797533218,0.1942138671875,-0.21551513671875,0.995849609375
1629797533265,0.2392578125,-0.09039306640625,1.03228759765625
1629797533265,0.2291259765625,-0.11083984375,1.05450439453125
1629797533265,0.23236083984375,-0.0963134765625,1.014404296875
1629797533327,0.21759033203125,-0.13134765625,0.98468017578125
1629797533327,0.22271728515625,-0.1231689453125,0.98480224609375
1629797533327,0.2265625,-0.10699462890625,0.9969482421875
1629797533390,0.2105712890625,-0.1351318359375,0.98321533203125
1629797533390,0.20953369140625,-0.1351318359375,0.98291015625
1629797533390,0.21014404296875,-0.1348876953125,0.97119140625
1629797533437,0.20892333984375,-0.136474609375,0.96441650390625
1629797533452,0.1998291015625,-0.14495849609375,0.96038818359375
1629797533452,0.19488525390625,-0.15716552734375,0.95770263671875
1629797533577,0.1978759765625,-0.162353515625,0.95635986328125
1629797533577,0.1959228515625,-0.1683349609375,0.951904296875
1629797533577,0.19268798828125,-0.17034912109375,0.95159912109375
1629797533593,0.20135498046875,-0.161376953125,0.9566650390625
1629797533593,0.20562744140625,-0.1639404296875,0.96063232421875
1629797533593,0.2099609375,-0.16827392578125,0.96307373046875
1629797533624,0.2208251953125,-0.16748046875,0.97467041015625
1629797533624,0.22357177734375,-0.1651611328125,0.98846435546875
1629797533624,0.21417236328125,-0.16943359375,0.97308349609375
1629797533671,0.21771240234375,-0.15008544921875,0.9754638671875
1629797533687,0.2249755859375,-0.15301513671875,0.9864501953125
1629797533687,0.22540283203125,-0.15655517578125,0.9932861328125
1629797533765,0.2122802734375,-0.15631103515625,0.976318359375
1629797533780,0.20269775390625,-0.1715087890625,0.96478271484375
1629797533780,0.2088623046875,-0.1644287109375,0.970458984375
1629797533796,0.1986083984375,-0.1798095703125,0.9666748046875
1629797533796,0.20135498046875,-0.18304443359375,0.96185302734375
1629797533812,0.19732666015625,-0.18280029296875,0.955322265625
1629797533874,0.20306396484375,-0.18353271484375,0.9603271484375
1629797533874,0.2027587890625,-0.18170166015625,0.95513916015625
1629797533874,0.20391845703125,-0.18133544921875,0.964599609375
1629797533968,0.20623779296875,-0.18609619140625,0.96038818359375
1629797533968,0.212646484375,-0.19146728515625,0.9664306640625
1629797533968,0.209716796875,-0.1890869140625,0.96197509765625
1629797534030,0.21221923828125,-0.1868896484375,0.96356201171875
1629797534030,0.21185302734375,-0.18963623046875,0.96478271484375
1629797534046,0.21319580078125,-0.1895751953125,0.96728515625
1629797534077,0.21331787109375,-0.17608642578125,0.960205078125
1629797534077,0.2120361328125,-0.1800537109375,0.964599609375
1629797534077,0.21240234375,-0.1744384765625,0.9600830078125
1629797534142,0.20855712890625,-0.17413330078125,0.9593505859375
1629797534158,0.21295166015625,-0.17767333984375,0.95965576171875
1629797534158,0.2059326171875,-0.17742919921875,0.9593505859375
1629797534158,0.21502685546875,-0.17437744140625,0.97027587890625
1629797534158,0.20721435546875,-0.17584228515625,0.9632568359375
1629797534158,0.207763671875,-0.17987060546875,0.9603271484375
1629797534236,0.22283935546875,-0.17218017578125,0.9720458984375
1629797534236,0.222412109375,-0.1776123046875,0.97210693359375
1629797534252,0.2171630859375,-0.1734619140625,0.974365234375
1629797534314,0.21612548828125,-0.18365478515625,0.9681396484375
1629797534314,0.21405029296875,-0.1951904296875,0.95452880859375
1629797534314,0.21612548828125,-0.193603515625,0.96502685546875
1629797534330,0.20947265625,-0.1898193359375,0.95770263671875
1629797534345,0.21429443359375,-0.19073486328125,0.9593505859375
1629797534345,0.2117919921875,-0.189453125,0.9532470703125
1629797534455,0.221435546875,-0.17498779296875,0.96240234375
1629797534455,0.2125244140625,-0.18548583984375,0.9542236328125
1629797534455,0.21453857421875,-0.17962646484375,0.95513916015625
1629797534502,0.23065185546875,-0.16937255859375,0.9737548828125
1629797534502,0.22589111328125,-0.17095947265625,0.9676513671875
1629797534502,0.232666015625,-0.17315673828125,0.97509765625
1629797534549,0.23065185546875,-0.17523193359375,0.97662353515625
1629797534549,0.23150634765625,-0.18133544921875,0.9705810546875
1629797534549,0.23175048828125,-0.18402099609375,0.96807861328125
1629797534596,0.22613525390625,-0.1822509765625,0.968017578125
1629797534596,0.227783203125,-0.18109130859375,0.96533203125
1629797534611,0.22308349609375,-0.1839599609375,0.97003173828125
1629797534674,0.2218017578125,-0.18096923828125,0.9716796875
1629797534674,0.2232666015625,-0.185302734375,0.971435546875
1629797534674,0.22039794921875,-0.1756591796875,0.97320556640625
1629797534705,0.2283935546875,-0.1717529296875,0.98602294921875
1629797534705,0.21978759765625,-0.1695556640625,0.9814453125
1629797534705,0.23663330078125,-0.18365478515625,0.9937744140625
1629797534783,0.237060546875,-0.19659423828125,0.9969482421875
1629797534783,0.24481201171875,-0.19683837890625,1.0040283203125
1629797534783,0.24249267578125,-0.19781494140625,0.9974365234375
1629797534783,0.24591064453125,-0.20599365234375,0.9886474609375
1629797534783,0.23760986328125,-0.200439453125,0.99005126953125
1629797534798,0.23956298828125,-0.20843505859375,0.98583984375
1629797534814,0.2354736328125,-0.22381591796875,0.97515869140625
1629797534830,0.23919677734375,-0.2108154296875,0.97747802734375
1629797534830,0.23358154296875,-0.2144775390625,0.9830322265625
1629797534942,0.2310791015625,-0.2384033203125,0.972412109375
1629797534942,0.24200439453125,-0.25054931640625,0.9801025390625
1629797534942,0.2381591796875,-0.24871826171875,0.97113037109375
1629797534957,0.2366943359375,-0.23675537109375,1.0018310546875
1629797534957,0.2254638671875,-0.20989990234375,1.0101318359375
1629797534957,0.22998046875,-0.21728515625,1.01025390625
1629797535020,0.2210693359375,-0.2030029296875,1.00958251953125
1629797535020,0.18450927734375,-0.15875244140625,1.015869140625
1629797535020,0.20843505859375,-0.17987060546875,1.0184326171875
1629797535098,0.1182861328125,-0.05914306640625,0.96881103515625
1629797535098,0.16986083984375,-0.1181640625,1.01318359375
1629797535098,0.15203857421875,-0.08160400390625,0.98565673828125
1629797535176,0.07684326171875,-0.05792236328125,0.88079833984375
1629797535191,0.078125,-0.06695556640625,0.906982421875
1629797535191,0.0941162109375,-0.06005859375,0.93560791015625
1629797535207,0.0968017578125,-0.00445556640625,0.92987060546875
1629797535207,0.08538818359375,-0.01104736328125,0.8756103515625
1629797535207,0.07757568359375,-0.033935546875,0.8642578125
1629797535270,0.15130615234375,-0.04107666015625,1.1099853515625
1629797535285,0.14117431640625,-0.0208740234375,1.08538818359375
1629797535285,0.1116943359375,-0.0140380859375,1.03289794921875
1629797535395,0.08447265625,-0.09149169921875,1.04052734375
1629797535395,0.12042236328125,-0.07855224609375,1.06903076171875
1629797535395,0.1431884765625,-0.06182861328125,1.0965576171875
1629797535410,0.01873779296875,-0.10211181640625,0.985107421875
1629797535410,0.052490234375,-0.0989990234375,1.01385498046875
1629797535410,0.00250244140625,-0.099365234375,0.97357177734375
1629797535457,-0.04034423828125,-0.07818603515625,0.9420166015625
1629797535457,-0.03472900390625,-0.089599609375,0.94873046875
1629797535457,-0.05572509765625,-0.05926513671875,0.92803955078125
1629797535473,-0.0523681640625,-0.0130615234375,0.94952392578125
1629797535473,-0.0447998046875,-0.0318603515625,0.94683837890625
1629797535535,-0.07635498046875,-0.001708984375,0.9959716796875
1629797535535,-0.08673095703125,-0.00311279296875,1.00360107421875
1629797535535,-0.05511474609375,0.0009765625,0.98333740234375
1629797535754,-0.1070556640625,0.0087890625,0.9769287109375
1629797535754,-0.11932373046875,0.0128173828125,0.97607421875
1629797535754,-0.09991455078125,-0.00335693359375,0.9981689453125
1629797535817,-0.1319580078125,0.01312255859375,0.9765625
1629797535817,-0.14202880859375,0.00445556640625,0.97894287109375
1629797535817,-0.1474609375,-0.01129150390625,0.98486328125
1629797535863,-0.158447265625,-0.039794921875,0.98468017578125
1629797535863,-0.1549072265625,-0.0267333984375,0.986572265625
1629797535863,-0.1622314453125,-0.0555419921875,0.98004150390625
1629797535959,-0.19476318359375,-0.096435546875,0.98516845703125
1629797535959,-0.18560791015625,-0.084716796875,0.9874267578125
1629797535959,-0.175048828125,-0.07342529296875,0.98382568359375
1629797535959,-0.16552734375,-0.063232421875,0.98028564453125
1629797535959,-0.214111328125,-0.10894775390625,0.98248291015625
1629797535959,-0.2049560546875,-0.107177734375,0.987548828125
1629797535991,-0.23773193359375,-0.11016845703125,0.9566650390625
1629797535991,-0.24627685546875,-0.115966796875,0.936279296875
1629797535991,-0.227294921875,-0.10784912109375,0.96624755859375
1629797536006,-0.25567626953125,-0.12359619140625,0.91680908203125
1629797536006,-0.25933837890625,-0.12469482421875,0.90020751953125
1629797536006,-0.2635498046875,-0.1234130859375,0.8978271484375
1629797536100,-0.25701904296875,-0.15423583984375,0.8919677734375
1629797536100,-0.26849365234375,-0.1258544921875,0.8929443359375
1629797536100,-0.26385498046875,-0.1376953125,0.88702392578125
1629797536147,-0.21923828125,-0.16094970703125,0.92535400390625
1629797536147,-0.217041015625,-0.15106201171875,0.93988037109375
1629797536147,-0.21063232421875,-0.1492919921875,0.952880859375
1629797536147,-0.245849609375,-0.16778564453125,0.894287109375
1629797536147,-0.2015380859375,-0.14874267578125,0.9564208984375
1629797536147,-0.23321533203125,-0.1693115234375,0.9091796875
1629797536241,-0.176513671875,-0.1546630859375,0.97930908203125
1629797536241,-0.18408203125,-0.154052734375,0.96893310546875
1629797536256,-0.1900634765625,-0.15240478515625,0.959716796875
1629797536256,-0.165283203125,-0.15252685546875,0.99212646484375
1629797536256,-0.1680908203125,-0.15386962890625,0.9827880859375
1629797536256,-0.1680908203125,-0.15252685546875,0.9947509765625
1629797536334,-0.16400146484375,-0.15447998046875,0.98822021484375
1629797536334,-0.1669921875,-0.15380859375,0.9871826171875
1629797536350,-0.16925048828125,-0.14935302734375,0.99267578125
1629797536397,-0.173828125,-0.09722900390625,0.980712890625
1629797536397,-0.168701171875,-0.11810302734375,0.98883056640625
1629797536397,-0.169921875,-0.13568115234375,0.99249267578125
1629797536459,-0.1898193359375,-0.0980224609375,1.00244140625
1629797536459,-0.17889404296875,-0.093017578125,0.983154296875
1629797536459,-0.197265625,-0.10528564453125,1.0020751953125
1629797536491,-0.204345703125,-0.11236572265625,0.98577880859375
1629797536491,-0.21533203125,-0.14373779296875,0.96295166015625
1629797536491,-0.20672607421875,-0.13232421875,0.974365234375
1629797536584,-0.20111083984375,-0.15771484375,0.90399169921875
1629797536584,-0.20977783203125,-0.15594482421875,0.9183349609375
1629797536584,-0.21441650390625,-0.1534423828125,0.93792724609375
1629797536647,-0.18438720703125,-0.15509033203125,0.8841552734375
1629797536647,-0.1353759765625,-0.16705322265625,0.8760986328125
1629797536647,-0.10772705078125,-0.17529296875,0.87371826171875
1629797536647,-0.17041015625,-0.16192626953125,0.87493896484375
1629797536647,-0.081787109375,-0.17132568359375,0.8817138671875
1629797536647,-0.154296875,-0.16290283203125,0.87615966796875
1629797536819,-0.0174560546875,-0.15966796875,0.91290283203125
1629797536819,-0.04974365234375,-0.169921875,0.89825439453125
1629797536819,0.0159912109375,-0.14642333984375,0.93170166015625
1629797536850,0.05145263671875,-0.13165283203125,0.94830322265625
1629797536850,0.09735107421875,-0.1217041015625,0.9688720703125
1629797536850,0.13787841796875,-0.109619140625,0.99334716796875
1629797536928,0.207763671875,-0.095458984375,1.0386962890625
1629797536928,0.24530029296875,-0.098876953125,1.05792236328125
1629797536928,0.170654296875,-0.09906005859375,1.0245361328125
1629797536962,0.295166015625,-0.09259033203125,1.0872802734375
1629797536962,0.272705078125,-0.10736083984375,1.08135986328125
1629797536962,0.283935546875,-0.103515625,1.09759521484375
1629797537119,0.29803466796875,-0.0821533203125,1.06719970703125
1629797537119,0.2789306640625,-0.06634521484375,1.02728271484375
1629797537119,0.28912353515625,-0.05108642578125,1.026123046875
1629797537119,0.30291748046875,-0.07196044921875,1.04168701171875
1629797537119,0.30181884765625,-0.06231689453125,1.03216552734375
1629797537119,0.29730224609375,-0.05364990234375,1.02862548828125
1629797537119,0.2889404296875,-0.06072998046875,1.02911376953125
1629797537119,0.28955078125,-0.052001953125,1.0274658203125
1629797537119,0.28631591796875,-0.05511474609375,1.03021240234375
1629797537197,0.24884033203125,-0.08538818359375,1.0360107421875
1629797537212,0.25567626953125,-0.0831298828125,1.01470947265625
1629797537212,0.2679443359375,-0.075927734375,1.0260009765625
1629797537243,0.21160888671875,-0.11090087890625,1.00115966796875
1629797537243,0.244873046875,-0.08587646484375,1.03076171875
1629797537243,0.23309326171875,-0.10040283203125,1.01910400390625
1629797537353,0.1298828125,-0.14483642578125,0.9512939453125
1629797537353,0.15960693359375,-0.1314697265625,0.9720458984375
1629797537353,0.18951416015625,-0.12030029296875,0.9913330078125
1629797537384,0.04315185546875,-0.1639404296875,0.930419921875
1629797537384,0.0826416015625,-0.1715087890625,0.9407958984375
1629797537384,0.0172119140625,-0.15283203125,0.920654296875
1629797537384,0.10693359375,-0.1634521484375,0.9388427734375
1629797537384,0.0595703125,-0.17572021484375,0.93548583984375
1629797537384,0.03277587890625,-0.15594482421875,0.922119140625
1629797537447,0.00457763671875,-0.1446533203125,0.91705322265625
1629797537447,0.001220703125,-0.12890625,0.90972900390625
1629797537447,0.007080078125,-0.1123046875,0.9013671875
1629797537540,0.01715087890625,-0.0924072265625,0.90753173828125
1629797537540,0.04486083984375,-0.04718017578125,0.95050048828125
1629797537540,0.03155517578125,-0.06842041015625,0.92388916015625
1629797537556,0.09423828125,0.00408935546875,1.00164794921875
1629797537556,0.06683349609375,-0.02099609375,0.98284912109375
1629797537572,0.12579345703125,0.037841796875,0.99310302734375
1629797537603,0.19036865234375,0.15545654296875,1.059814453125
1629797537618,0.1763916015625,0.1199951171875,1.03619384765625
1629797537618,0.1595458984375,0.07940673828125,1.00860595703125
1629797537728,0.196533203125,0.18609619140625,1.0362548828125
1629797537728,0.1949462890625,0.20623779296875,1.0194091796875
1629797537728,0.19830322265625,0.21551513671875,1.00067138671875
1629797537728,0.1923828125,0.1695556640625,1.054443359375
1629797537743,0.19366455078125,0.1983642578125,1.01007080078125
1629797537743,0.20404052734375,0.21466064453125,0.99395751953125
1629797537790,0.16900634765625,0.1217041015625,1.023681640625
1629797537790,0.1904296875,0.1798095703125,1.019775390625
1629797537790,0.17919921875,0.15399169921875,1.0242919921875
1629797537868,0.15936279296875,0.0855712890625,1.02716064453125
1629797537868,0.1260986328125,0.03680419921875,1.0224609375
1629797537868,0.14398193359375,0.05792236328125,1.0238037109375
1629797537931,0.082763671875,-0.12322998046875,0.98419189453125
1629797537931,0.09954833984375,-0.0216064453125,1.0205078125
1629797537931,0.08856201171875,-0.09234619140625,1.00750732421875
1629797538011,0.1004638671875,-0.10565185546875,0.981201171875
1629797538011,0.11370849609375,-0.0885009765625,0.9666748046875
1629797538011,0.08599853515625,-0.12353515625,0.9776611328125
1629797538027,0.1357421875,-0.06512451171875,0.957763671875
1629797538027,0.17938232421875,0.0069580078125,0.96368408203125
1629797538027,0.15789794921875,-0.0286865234375,0.943359375
1629797538121,0.1907958984375,0.09356689453125,0.9923095703125
1629797538121,0.1878662109375,0.1304931640625,0.9998779296875
1629797538121,0.1898193359375,0.04638671875,0.98651123046875
1629797538246,0.18133544921875,0.1505126953125,1.00274658203125
1629797538261,0.1141357421875,0.09490966796875,1.0255126953125
1629797538261,0.15386962890625,0.15655517578125,0.9989013671875
1629797538261,0.1663818359375,0.16302490234375,1.00311279296875
1629797538261,0.142822265625,0.13360595703125,1.00689697265625
1629797538261,0.1287841796875,0.1068115234375,1.0186767578125
1629797538293,0.09515380859375,0.09698486328125,0.9974365234375
1629797538293,0.1019287109375,0.08758544921875,1.02398681640625
1629797538293,0.098876953125,0.0882568359375,1.01104736328125
1629797538340,0.097412109375,0.10601806640625,0.98162841796875
1629797538355,0.1029052734375,0.0989990234375,0.97613525390625
1629797538355,0.10107421875,0.10577392578125,0.9744873046875
1629797538402,0.11016845703125,0.1055908203125,0.9796142578125
1629797538402,0.11651611328125,0.1002197265625,0.9979248046875
1629797538402,0.117431640625,0.1033935546875,0.9815673828125
1629797538449,0.12652587890625,0.091064453125,1.00616455078125
1629797538449,0.12860107421875,0.08258056640625,1.012451171875
1629797538464,0.1304931640625,0.06719970703125,1.01312255859375
1629797538511,0.11846923828125,0.02972412109375,0.99462890625
1629797538511,0.1248779296875,0.0491943359375,1.00628662109375
1629797538527,0.11639404296875,0.01934814453125,0.989013671875
1629797538590,0.116455078125,0.01361083984375,0.9786376953125
1629797538590,0.11370849609375,0.033203125,0.98626708984375
1629797538590,0.11767578125,0.0235595703125,0.97930908203125
1629797538605,0.13983154296875,0.1453857421875,0.9967041015625
1629797538605,0.13037109375,0.14483642578125,1.0009765625
1629797538605,0.119873046875,0.0782470703125,0.99505615234375
1629797538668,0.1602783203125,0.0081787109375,1.01776123046875
1629797538668,0.14886474609375,0.123046875,0.99957275390625
1629797538668,0.15667724609375,0.07891845703125,1.00775146484375
1629797538746,0.16461181640625,-0.05474853515625,1.016845703125
1629797538746,0.16644287109375,-0.09173583984375,1.006103515625
1629797538746,0.16552734375,-0.080322265625,1.00921630859375
1629797538808,0.14453125,-0.18048095703125,1.0216064453125
1629797538808,0.162109375,-0.110107421875,1.0106201171875
1629797538808,0.148681640625,-0.15020751953125,1.0340576171875
1629797538871,0.1385498046875,-0.20306396484375,1.009521484375
1629797538871,0.128173828125,-0.23126220703125,0.99993896484375
1629797538871,0.11505126953125,-0.25677490234375,0.9874267578125
1629797538933,0.09942626953125,-0.3387451171875,0.99163818359375
1629797538933,0.10406494140625,-0.28076171875,0.9737548828125
1629797538933,0.1070556640625,-0.30499267578125,0.99053955078125
1629797538996,0.12091064453125,-0.09185791015625,0.98980712890625
1629797539011,0.12042236328125,-0.14752197265625,0.98590087890625
1629797539011,0.116943359375,-0.2142333984375,0.98870849609375
1629797539027,0.10052490234375,-0.006103515625,1.0224609375
1629797539027,0.08538818359375,0.03619384765625,1.021728515625
1629797539042,0.1136474609375,-0.0528564453125,1.00457763671875
1629797539171,0.065185546875,0.04644775390625,1.02801513671875
1629797539186,0.02484130859375,0.03955078125,1.03399658203125
1629797539186,0.04583740234375,0.04180908203125,1.03619384765625
1629797539233,0.0079345703125,0.01123046875,0.9912109375
1629797539233,0.01214599609375,0.02825927734375,1.0211181640625
1629797539249,-0.00018310546875,0.0240478515625,0.97802734375
1629797539249,-0.00274658203125,0.03289794921875,0.98651123046875
1629797539249,-0.00152587890625,0.04351806640625,0.99151611328125
1629797539249,0.0072021484375,0.01800537109375,0.97039794921875
1629797539280,0.00592041015625,0.0498046875,0.98846435546875
1629797539280,0.015625,0.05743408203125,0.96673583984375
1629797539280,0.01275634765625,0.0498046875,0.97454833984375
1629797539327,0.019775390625,0.0660400390625,0.96429443359375
1629797539327,0.0230712890625,0.07635498046875,0.96563720703125
1629797539327,0.03143310546875,0.0836181640625,0.96575927734375
1629797539374,0.05096435546875,0.0728759765625,0.98028564453125
1629797539374,0.03472900390625,0.0855712890625,0.97479248046875
1629797539374,0.04034423828125,0.0791015625,0.98040771484375
1629797539468,0.05816650390625,0.07513427734375,0.97552490234375
1629797539468,0.07000732421875,0.08929443359375,0.9786376953125
1629797539468,0.07415771484375,0.10260009765625,0.98883056640625
1629797539499,0.077392578125,0.11700439453125,1.00482177734375
1629797539499,0.09063720703125,0.11474609375,1.02130126953125
1629797539499,0.09710693359375,0.10174560546875,1.02984619140625
1629797539561,0.10400390625,0.0809326171875,1.0308837890625
1629797539561,0.1192626953125,0.04669189453125,1.028076171875
1629797539593,0.102783203125,0.04168701171875,1.03466796875
1629797539593,0.11468505859375,0.0386962890625,1.03369140625
1629797539593,0.10626220703125,0.035400390625,1.0411376953125
1629797539686,0.09503173828125,0.051513671875,1.02490234375
1629797539686,0.08294677734375,0.0496826171875,1.00628662109375
1629797539686,0.08782958984375,0.05181884765625,1.01226806640625
1629797539796,0.0804443359375,0.029296875,1.0050048828125
1629797539796,0.0770263671875,0.017578125,1.00103759765625
1629797539796,0.08660888671875,0.0430908203125,1.00640869140625
1629797539843,0.06744384765625,0.00360107421875,1.000732421875
1629797539843,0.0516357421875,-0.02264404296875,1.00250244140625
1629797539843,0.05560302734375,-0.0120849609375,1.00640869140625
1629797539905,0.04144287109375,-0.0260009765625,1.0029296875
1629797539905,0.02679443359375,0.00091552734375,1.01483154296875
1629797539905,0.0316162109375,-0.01702880859375,1.00811767578125
1629797539936,0.015380859375,0.01580810546875,1.0189208984375
1629797539936,0.0062255859375,0.0338134765625,1.02142333984375
1629797539952,-0.0048828125,0.03887939453125,1.02044677734375
1629797540046,-0.03411865234375,0.04742431640625,1.02032470703125
1629797540046,-0.04962158203125,0.05706787109375,1.03125
1629797540046,-0.01409912109375,0.0284423828125,1.00958251953125
1629797540046,-0.05194091796875,0.0714111328125,1.0267333984375
1629797540046,-0.0484619140625,0.04827880859375,1.03753662109375
1629797540046,-0.0247802734375,0.035400390625,1.0125732421875
1629797540126,-0.05938720703125,0.07684326171875,1.00439453125
1629797540126,-0.06341552734375,0.0738525390625,0.97235107421875
1629797540126,-0.0625,0.05853271484375,0.93817138671875
1629797540236,-0.0604248046875,0.028076171875,0.9052734375
1629797540236,-0.048583984375,0.02789306640625,0.90838623046875
1629797540236,-0.02459716796875,0.08935546875,0.9892578125
1629797540251,-0.033935546875,0.05078125,0.97088623046875
1629797540251,-0.06134033203125,0.04046630859375,0.91595458984375
1629797540251,-0.039306640625,0.03741455078125,0.93377685546875
1629797540314,-0.03643798828125,0.23114013671875,1.0450439453125
1629797540314,-0.0621337890625,0.193115234375,1.0413818359375
1629797540314,-0.05023193359375,0.21173095703125,1.0443115234375
1629797540329,-0.02685546875,0.23406982421875,1.04071044921875
1629797540329,-0.0224609375,0.21099853515625,1.03155517578125
1629797540329,-0.0213623046875,0.14935302734375,1.005615234375
1629797540407,-0.088134765625,0.171630859375,1.051025390625
1629797540407,-0.11224365234375,0.15802001953125,1.059814453125
1629797540407,-0.14019775390625,0.140380859375,1.06304931640625
1629797540486,-0.16082763671875,0.130859375,1.04669189453125
1629797540486,-0.20379638671875,0.10076904296875,1.0137939453125
1629797540486,-0.18255615234375,0.12139892578125,1.03424072265625
1629797540532,-0.2288818359375,0.07867431640625,0.95819091796875
1629797540532,-0.26898193359375,0.034423828125,0.914306640625
1629797540532,-0.21929931640625,0.0806884765625,0.97918701171875
1629797540532,-0.26324462890625,0.05096435546875,0.91351318359375
1629797540532,-0.251708984375,0.0714111328125,0.93072509765625
1629797540548,-0.24169921875,0.072021484375,0.946044921875
1629797540657,-0.2828369140625,0.0028076171875,0.886962890625
1629797540657,-0.27166748046875,0.04583740234375,0.89410400390625
1629797540657,-0.27777099609375,0.04608154296875,0.88665771484375
1629797540689,-0.28961181640625,-0.0364990234375,0.8770751953125
1629797540689,-0.30426025390625,-0.09381103515625,0.87823486328125
1629797540689,-0.3203125,-0.13018798828125,0.87261962890625
1629797540751,-0.3414306640625,-0.222412109375,0.84600830078125
1629797540751,-0.33526611328125,-0.20269775390625,0.84991455078125
1629797540751,-0.324462890625,-0.16436767578125,0.85394287109375
1629797540813,-0.3543701171875,-0.331787109375,0.8480224609375
1629797540813,-0.34832763671875,-0.2913818359375,0.8316650390625
1629797540813,-0.3426513671875,-0.25146484375,0.8287353515625
1629797540923,-0.328857421875,-0.36663818359375,0.8548583984375
1629797540923,-0.34686279296875,-0.360107421875,0.85040283203125
1629797540923,-0.3382568359375,-0.36279296875,0.85430908203125
1629797540954,-0.2860107421875,-0.35198974609375,0.888427734375
1629797540954,-0.29425048828125,-0.35809326171875,0.865478515625
1629797540970,-0.309326171875,-0.3663330078125,0.8505859375
1629797541001,-0.27685546875,-0.33978271484375,0.90643310546875
1629797541001,-0.260986328125,-0.3336181640625,0.925537109375
1629797541001,-0.27056884765625,-0.3348388671875,0.92413330078125
1629797541032,-0.2440185546875,-0.33251953125,0.91693115234375
1629797541032,-0.23638916015625,-0.3306884765625,0.9140625
1629797541032,-0.2535400390625,-0.3319091796875,0.92144775390625
1629797541161,-0.239013671875,-0.3143310546875,0.92291259765625
1629797541161,-0.24627685546875,-0.31915283203125,0.9302978515625
1629797541161,-0.2340087890625,-0.32086181640625,0.916015625
1629797541192,-0.24169921875,-0.31414794921875,0.90179443359375
1629797541192,-0.2454833984375,-0.3218994140625,0.91412353515625
1629797541208,-0.2418212890625,-0.30389404296875,0.90216064453125
1629797541239,-0.25189208984375,-0.31756591796875,0.9144287109375
1629797541239,-0.25048828125,-0.31671142578125,0.90863037109375
1629797541239,-0.245849609375,-0.30908203125,0.90130615234375
1629797541254,-0.2559814453125,-0.3192138671875,0.9107666015625
1629797541270,-0.2506103515625,-0.31707763671875,0.8988037109375
1629797541270,-0.24609375,-0.320068359375,0.89263916015625
1629797541332,-0.24212646484375,-0.33172607421875,0.8973388671875
1629797541332,-0.23638916015625,-0.33013916015625,0.90899658203125
1629797541348,-0.231201171875,-0.3182373046875,0.91107177734375
1629797541379,-0.23138427734375,-0.30804443359375,0.92974853515625
1629797541379,-0.23193359375,-0.307861328125,0.921142578125
1629797541379,-0.2310791015625,-0.3099365234375,0.93414306640625
1629797541426,-0.22674560546875,-0.3126220703125,0.93896484375
1629797541426,-0.2315673828125,-0.3153076171875,0.933837890625
1629797541426,-0.2288818359375,-0.31060791015625,0.92352294921875
1629797541489,-0.22955322265625,-0.31829833984375,0.91668701171875
1629797541489,-0.23077392578125,-0.32733154296875,0.89617919921875
1629797541489,-0.23065185546875,-0.32684326171875,0.90167236328125
1629797541614,-0.230224609375,-0.30181884765625,0.87506103515625
1629797541614,-0.234375,-0.31591796875,0.88189697265625
1629797541614,-0.2340087890625,-0.32452392578125,0.89080810546875
1629797541629,-0.22625732421875,-0.2982177734375,0.86102294921875
1629797541629,-0.22723388671875,-0.29833984375,0.8643798828125
1629797541629,-0.21563720703125,-0.308349609375,0.8570556640625
1629797541723,-0.20465087890625,-0.30938720703125,0.86566162109375
1629797541723,-0.209716796875,-0.31085205078125,0.8560791015625
1629797541723,-0.18646240234375,-0.30621337890625,0.86383056640625
1629797541739,-0.137451171875,-0.295654296875,0.89215087890625
1629797541754,-0.17486572265625,-0.3028564453125,0.885498046875
1629797541754,-0.1622314453125,-0.2991943359375,0.88848876953125
1629797541801,-0.11077880859375,-0.28314208984375,0.888427734375
1629797541801,-0.0616455078125,-0.272705078125,0.92889404296875
1629797541864,0.0096435546875,-0.24554443359375,0.99066162109375
1629797541879,-0.03289794921875,-0.270751953125,0.94403076171875
1629797541879,-0.00579833984375,-0.2535400390625,0.967041015625
1629797541926,0.04296875,-0.23895263671875,1.01043701171875
1629797541926,0.05645751953125,-0.23974609375,1.02490234375
1629797541926,0.02679443359375,-0.24273681640625,1.001708984375
1629797541989,0.07275390625,-0.2188720703125,1.02685546875
1629797541989,0.064453125,-0.23394775390625,1.0345458984375
1629797541989,0.0679931640625,-0.2269287109375,1.035888671875
1629797542004,0.0758056640625,-0.212890625,1.01666259765625
1629797542004,0.0830078125,-0.2071533203125,1.0028076171875
1629797542004,0.0836181640625,-0.19732666015625,0.995849609375
1629797542114,0.087890625,-0.182861328125,0.987548828125
1629797542129,0.10748291015625,-0.16729736328125,0.9921875
1629797542129,0.09771728515625,-0.17034912109375,0.9886474609375
1629797542160,0.1273193359375,-0.1575927734375,1.01226806640625
1629797542160,0.1199951171875,-0.16265869140625,1.0145263671875
1629797542160,0.11224365234375,-0.16412353515625,1.00982666015625
1629797542272,0.1290283203125,-0.16204833984375,1.00628662109375
1629797542272,0.12872314453125,-0.177490234375,0.98992919921875
1629797542272,0.12701416015625,-0.16961669921875,1.001953125
1629797542288,0.125,-0.18670654296875,0.9373779296875
1629797542288,0.125244140625,-0.1805419921875,0.9698486328125
1629797542288,0.1282958984375,-0.17816162109375,0.951904296875
1629797542335,0.110595703125,-0.20050048828125,0.9459228515625
1629797542335,0.117431640625,-0.19189453125,0.9495849609375
1629797542335,0.11053466796875,-0.20562744140625,0.95477294921875
1629797542413,0.11187744140625,-0.2083740234375,0.95574951171875
1629797542428,0.1129150390625,-0.22607421875,0.9432373046875
1629797542428,0.11334228515625,-0.23101806640625,0.9349365234375
1629797542460,0.12786865234375,-0.19122314453125,0.91162109375
1629797542460,0.11859130859375,-0.20880126953125,0.93511962890625
1629797542460,0.11590576171875,-0.2252197265625,0.933837890625
1629797542553,0.1422119140625,-0.1669921875,0.91455078125
1629797542553,0.1551513671875,-0.15899658203125,0.926025390625
1629797542553,0.13067626953125,-0.178955078125,0.90533447265625
1629797542585,0.183349609375,-0.14892578125,0.9405517578125
1629797542585,0.23870849609375,-0.14068603515625,0.9739990234375
1629797542585,0.211181640625,-0.147216796875,0.9654541015625
1629797542600,0.28302001953125,-0.1224365234375,0.989990234375
1629797542600,0.26666259765625,-0.13275146484375,0.97589111328125
1629797542616,0.3004150390625,-0.10137939453125,1.00274658203125
1629797542710,0.33447265625,-0.07025146484375,1.02197265625
1629797542710,0.32672119140625,-0.08099365234375,1.018798828125
1629797542710,0.31756591796875,-0.09222412109375,1.01361083984375
1629797542788,0.3426513671875,-0.0582275390625,1.01043701171875
1629797542788,0.33721923828125,-0.0389404296875,0.996337890625
1629797542788,0.3385009765625,-0.030029296875,0.982177734375
1629797542819,0.33642578125,-0.01470947265625,0.96142578125
1629797542819,0.3363037109375,-0.0108642578125,0.98876953125
1629797542819,0.3336181640625,-0.00970458984375,0.974609375
1629797542897,0.34259033203125,-0.0277099609375,0.9683837890625
1629797542897,0.3446044921875,-0.02056884765625,0.96478271484375
1629797542897,0.33935546875,-0.02496337890625,0.957275390625
1629797542962,0.3466796875,-0.00738525390625,0.9609375
1629797542962,0.35882568359375,0.0118408203125,0.94598388671875
1629797542962,0.3572998046875,0.00054931640625,0.9503173828125
1629797542978,0.364990234375,0.02630615234375,0.9488525390625
1629797542978,0.36590576171875,0.031982421875,0.9422607421875
1629797542978,0.37054443359375,0.031982421875,0.944091796875
1629797543040,0.3814697265625,0.02899169921875,0.94677734375
1629797543040,0.3740234375,0.0338134765625,0.93914794921875
1629797543040,0.3807373046875,0.022216796875,0.9505615234375
1629797543087,0.3818359375,0.00347900390625,0.95184326171875
1629797543087,0.38604736328125,0.004638671875,0.9527587890625
1629797543134,0.37506103515625,0.00067138671875,0.9464111328125
1629797543134,0.3741455078125,0.00091552734375,0.946533203125
1629797543150,0.3792724609375,0.00213623046875,0.94390869140625
1629797543259,0.3619384765625,-0.00921630859375,0.93475341796875
1629797543259,0.36395263671875,-0.0086669921875,0.9346923828125
1629797543259,0.36590576171875,-0.00439453125,0.94000244140625
1629797543306,0.3587646484375,-0.0137939453125,0.9439697265625
1629797543306,0.35546875,-0.01544189453125,0.93865966796875
1629797543306,0.36016845703125,-0.01361083984375,0.9407958984375
1629797543353,0.3602294921875,-0.0157470703125,0.9488525390625
1629797543353,0.3614501953125,-0.0191650390625,0.953857421875
1629797543353,0.3602294921875,-0.0186767578125,0.96051025390625
1629797543384,0.3408203125,-0.02947998046875,0.95880126953125
1629797543384,0.349365234375,-0.0330810546875,0.9622802734375
1629797543556,0.33294677734375,-0.0230712890625,0.95172119140625
1629797543556,0.32958984375,-0.0335693359375,0.95208740234375
1629797543556,0.33392333984375,-0.01904296875,0.9453125
1629797543556,0.3309326171875,-0.02288818359375,0.94287109375
1629797543556,0.33685302734375,-0.02410888671875,0.9476318359375
1629797543556,0.33087158203125,-0.02264404296875,0.94244384765625
1629797543587,0.325927734375,-0.05419921875,0.95013427734375
1629797543603,0.3302001953125,-0.04693603515625,0.953369140625
1629797543603,0.32769775390625,-0.05859375,0.9520263671875
1629797543634,0.32940673828125,-0.06890869140625,0.94384765625
1629797543634,0.32757568359375,-0.0626220703125,0.946044921875
1629797543649,0.32891845703125,-0.07855224609375,0.94696044921875
1629797543665,0.3370361328125,-0.08831787109375,0.95025634765625
1629797543665,0.33428955078125,-0.07879638671875,0.95086669921875
1629797543665,0.33935546875,-0.09185791015625,0.9423828125
1629797543728,0.34234619140625,-0.09771728515625,0.9439697265625
1629797543728,0.338623046875,-0.0980224609375,0.94317626953125
1629797543728,0.3377685546875,-0.09619140625,0.944580078125
1629797543806,0.3421630859375,-0.10009765625,0.948486328125
1629797543806,0.3431396484375,-0.10626220703125,0.94647216796875
1629797543806,0.3411865234375,-0.10687255859375,0.94268798828125
1629797543925,0.34051513671875,-0.10565185546875,0.94122314453125
1629797543925,0.34515380859375,-0.09906005859375,0.9443359375
1629797543925,0.34765625,-0.1082763671875,0.939453125
1629797543941,0.341796875,-0.10205078125,0.9439697265625
1629797543941,0.3443603515625,-0.100830078125,0.9429931640625
1629797543941,0.343505859375,-0.09710693359375,0.9425048828125
1629797543972,0.347412109375,-0.1046142578125,0.9453125
1629797543972,0.34417724609375,-0.107177734375,0.9443359375
1629797544099,0.3443603515625,-0.10870361328125,0.94830322265625
1629797544099,0.3377685546875,-0.10174560546875,0.9427490234375
1629797544099,0.34503173828125,-0.1063232421875,0.94671630859375
1629797544131,0.33837890625,-0.0908203125,0.94427490234375
1629797544131,0.3387451171875,-0.09747314453125,0.9442138671875
1629797544131,0.3397216796875,-0.08685302734375,0.9451904296875
1629797544178,0.33880615234375,-0.07940673828125,0.94708251953125
1629797544178,0.34033203125,-0.07281494140625,0.94964599609375
1629797544178,0.342041015625,-0.07049560546875,0.9527587890625
1629797544240,0.339599609375,-0.0650634765625,0.95062255859375
1629797544240,0.33642578125,-0.0594482421875,0.95452880859375
1629797544240,0.339599609375,-0.056884765625,0.9525146484375
1629797544302,0.33270263671875,-0.05224609375,0.95086669921875
1629797544302,0.33441162109375,-0.05377197265625,0.95489501953125
1629797544302,0.3365478515625,-0.048828125,0.952880859375
1629797544318,0.33282470703125,-0.05255126953125,0.9453125
1629797544318,0.3275146484375,-0.04071044921875,0.9478759765625
1629797544318,0.32855224609375,-0.041748046875,0.94830322265625
1629797544396,0.3280029296875,-0.0341796875,0.9451904296875
1629797544396,0.328369140625,-0.0260009765625,0.9464111328125
1629797544396,0.33367919921875,-0.020751953125,0.94482421875
1629797544459,0.33148193359375,-0.00335693359375,0.94427490234375
1629797544459,0.33770751953125,0.003662109375,0.9500732421875
1629797544459,0.3311767578125,-0.01318359375,0.94580078125
1629797544537,0.33734130859375,0.00933837890625,0.95037841796875
1629797544537,0.34027099609375,0.01849365234375,0.9534912109375
1629797544537,0.3382568359375,0.02191162109375,0.95538330078125
1629797544568,0.33941650390625,0.0367431640625,0.956787109375
1629797544568,0.3419189453125,0.0272216796875,0.9571533203125
1629797544568,0.34039306640625,0.04449462890625,0.95074462890625
1629797544662,0.33709716796875,0.04931640625,0.9493408203125
1629797544662,0.3311767578125,0.05487060546875,0.94903564453125
1629797544662,0.33770751953125,0.05059814453125,0.94537353515625
1629797544677,0.334228515625,0.06109619140625,0.9522705078125
1629797544677,0.3389892578125,0.05914306640625,0.95245361328125
1629797544693,0.3338623046875,0.06207275390625,0.950927734375
1629797544755,0.33203125,0.06658935546875,0.950439453125
1629797544755,0.33416748046875,0.068603515625,0.94879150390625
1629797544755,0.328857421875,0.0670166015625,0.95166015625
1629797544818,0.33001708984375,0.0684814453125,0.951416015625
1629797544818,0.33123779296875,0.0699462890625,0.95147705078125
1629797544818,0.33319091796875,0.06707763671875,0.9539794921875
1629797544865,0.32958984375,0.07373046875,0.94793701171875
1629797544865,0.3287353515625,0.07305908203125,0.9527587890625
1629797544865,0.33514404296875,0.074462890625,0.94964599609375
1629797544943,0.3350830078125,0.07275390625,0.94976806640625
1629797544943,0.338134765625,0.074462890625,0.95660400390625
1629797544943,0.33349609375,0.07452392578125,0.9542236328125
1629797545024,0.3426513671875,0.0821533203125,0.95269775390625
1629797545024,0.338134765625,0.0726318359375,0.95379638671875
1629797545024,0.339111328125,0.07745361328125,0.953125
1629797545024,0.33514404296875,0.07183837890625,0.95404052734375
1629797545024,0.3363037109375,0.07183837890625,0.95709228515625
1629797545024,0.34033203125,0.072265625,0.954345703125
1629797545133,0.34161376953125,0.08551025390625,0.94976806640625
1629797545133,0.340087890625,0.0816650390625,0.95159912109375
1629797545133,0.34478759765625,0.083984375,0.95220947265625
1629797545195,0.34234619140625,0.0782470703125,0.94921875
1629797545195,0.33935546875,0.0712890625,0.94793701171875
1629797545195,0.3385009765625,0.08172607421875,0.952392578125
1629797545273,0.34149169921875,0.064697265625,0.9468994140625
1629797545273,0.34051513671875,0.0684814453125,0.9459228515625
1629797545273,0.33990478515625,0.0567626953125,0.94873046875
1629797545336,0.3402099609375,0.02294921875,0.94549560546875
1629797545336,0.34130859375,0.01397705078125,0.94635009765625
1629797545336,0.34136962890625,0.04742431640625,0.95025634765625
1629797545336,0.3392333984375,0.03106689453125,0.94293212890625
1629797545336,0.33782958984375,0.04364013671875,0.95098876953125
1629797545336,0.342529296875,0.0380859375,0.94659423828125
1629797545414,0.34112548828125,0.00885009765625,0.9501953125
1629797545414,0.34539794921875,0.00372314453125,0.95196533203125
1629797545414,0.34161376953125,0.00634765625,0.9578857421875
1629797545492,0.341552734375,-0.002685546875,0.95574951171875
1629797545492,0.34112548828125,0.00177001953125,0.9578857421875
1629797545492,0.34161376953125,-0.00433349609375,0.9552001953125
1629797545554,0.336669921875,-0.00091552734375,0.95477294921875
1629797545554,0.337158203125,-0.00372314453125,0.95623779296875
1629797545586,0.33197021484375,-6.103515625e-05,0.9554443359375
1629797545586,0.33026123046875,-0.00152587890625,0.9521484375
1629797545586,0.3287353515625,0.00054931640625,0.95501708984375
1629797545648,0.32806396484375,-0.00201416015625,0.95477294921875
1629797545648,0.326904296875,-0.0015869140625,0.951904296875
1629797545648,0.325927734375,0.00048828125,0.9510498046875
1629797545664,0.3287353515625,-0.00299072265625,0.95013427734375
1629797545664,0.3280029296875,-0.001220703125,0.94976806640625
1629797545680,0.3271484375,-0.00140380859375,0.951171875
1629797545773,0.33099365234375,-0.0013427734375,0.9549560546875
1629797545773,0.33123779296875,-0.00677490234375,0.9556884765625
1629797545773,0.32562255859375,-0.00299072265625,0.95281982421875
1629797545805,0.3299560546875,-0.00592041015625,0.95233154296875
1629797545805,0.33203125,-0.01116943359375,0.95526123046875
1629797545805,0.33428955078125,-0.00885009765625,0.95318603515625
1629797545914,0.3375244140625,-0.01092529296875,0.95721435546875
1629797545914,0.33660888671875,-0.01092529296875,0.95330810546875
1629797545914,0.333251953125,-0.0115966796875,0.95184326171875
1629797545914,0.3388671875,-0.00787353515625,0.95623779296875
1629797545930,0.33837890625,-0.0084228515625,0.95703125
1629797545930,0.338134765625,-0.0086669921875,0.956787109375
1629797546030,0.33685302734375,0.0107421875,0.95220947265625
1629797546030,0.3416748046875,0.0101318359375,0.94940185546875
1629797546030,0.3382568359375,-0.0030517578125,0.95440673828125
1629797546030,0.33795166015625,0.01922607421875,0.95452880859375
1629797546030,0.3363037109375,0.01690673828125,0.957763671875
1629797546030,0.33935546875,0.001708984375,0.95343017578125
1629797546139,0.33758544921875,0.01959228515625,0.94830322265625
1629797546139,0.33929443359375,0.02130126953125,0.94720458984375
1629797546139,0.3402099609375,0.017333984375,0.95062255859375
1629797546186,0.33526611328125,0.019287109375,0.94805908203125
1629797546186,0.33477783203125,0.01922607421875,0.95361328125
1629797546186,0.33477783203125,0.01861572265625,0.950927734375
1629797546201,0.33660888671875,0.02801513671875,0.95172119140625
1629797546217,0.33892822265625,0.02166748046875,0.949951171875
1629797546217,0.33868408203125,0.02777099609375,0.9481201171875
1629797546295,0.34124755859375,0.029052734375,0.9541015625
1629797546295,0.339599609375,0.0301513671875,0.95428466796875
1629797546311,0.34295654296875,0.02862548828125,0.9542236328125
1629797546358,0.33758544921875,0.029541015625,0.95635986328125
1629797546358,0.3323974609375,0.0303955078125,0.95953369140625
1629797546358,0.33697509765625,0.0318603515625,0.9586181640625
1629797546420,0.33062744140625,0.02801513671875,0.9544677734375
1629797546420,0.32684326171875,0.02777099609375,0.95257568359375
1629797546420,0.33251953125,0.02581787109375,0.956787109375
1629797546451,0.3314208984375,0.02484130859375,0.9541015625
1629797546451,0.32501220703125,0.02392578125,0.959716796875
1629797546451,0.32928466796875,0.023681640625,0.9547119140625
1629797546514,0.32415771484375,0.0234375,0.9527587890625
1629797546514,0.3250732421875,0.02459716796875,0.95355224609375
1629797546514,0.32513427734375,0.0228271484375,0.951416015625
1629797546606,0.32403564453125,0.02593994140625,0.9522705078125
1629797546607,0.32574462890625,0.0224609375,0.95147705078125
1629797546621,0.33184814453125,0.02496337890625,0.953857421875
1629797546621,0.33013916015625,0.02362060546875,0.9571533203125
1629797546621,0.3287353515625,0.0235595703125,0.9576416015625
1629797546641,0.33026123046875,0.02508544921875,0.95587158203125
1629797546688,0.33392333984375,0.0186767578125,0.953125
1629797546703,0.3370361328125,0.02166748046875,0.953857421875
1629797546703,0.33740234375,0.01824951171875,0.95562744140625
1629797546781,0.336669921875,0.0135498046875,0.952392578125
1629797546781,0.33197021484375,0.0150146484375,0.95465087890625
1629797546781,0.3365478515625,0.015625,0.95147705078125
1629797546813,0.33770751953125,0.01556396484375,0.95001220703125
1629797546813,0.337158203125,0.01348876953125,0.9505615234375
1629797546828,0.3380126953125,0.013916015625,0.95184326171875
1629797546891,0.33978271484375,0.013916015625,0.9515380859375
1629797546891,0.338134765625,0.01275634765625,0.94970703125
1629797546891,0.33868408203125,0.0133056640625,0.94952392578125
1629797546953,0.34039306640625,0.01806640625,0.95196533203125
1629797546953,0.3375244140625,0.0162353515625,0.95379638671875
1629797546953,0.34124755859375,0.02008056640625,0.9571533203125
1629797547003,0.336181640625,0.01995849609375,0.95245361328125
1629797547003,0.33551025390625,0.01824951171875,0.95233154296875
1629797547003,0.33966064453125,0.017578125,0.95452880859375
1629797547097,0.33404541015625,0.018798828125,0.95013427734375
1629797547097,0.34051513671875,0.01763916015625,0.95819091796875
1629797547112,0.33709716796875,0.0194091796875,0.94952392578125
1629797547175,0.33843994140625,0.0169677734375,0.95587158203125
1629797547175,0.3350830078125,0.01739501953125,0.959716796875
1629797547175,0.3399658203125,0.0169677734375,0.95751953125
1629797547190,0.328857421875,0.01995849609375,0.95623779296875
1629797547190,0.3321533203125,0.02032470703125,0.95184326171875
1629797547190,0.3387451171875,0.01971435546875,0.95233154296875
1629797547237,0.32977294921875,0.01898193359375,0.95452880859375
1629797547237,0.3275146484375,0.0206298828125,0.95526123046875
1629797547237,0.3267822265625,0.02471923828125,0.95635986328125
1629797547300,0.317626953125,0.01922607421875,0.9556884765625
1629797547315,0.3232421875,0.02020263671875,0.95458984375
1629797547315,0.32525634765625,0.02587890625,0.9564208984375
1629797547347,0.31414794921875,0.016845703125,0.9495849609375
1629797547347,0.3184814453125,0.02008056640625,0.9505615234375
1629797547347,0.318115234375,0.01812744140625,0.9522705078125
1629797547456,0.32098388671875,0.01788330078125,0.9541015625
1629797547456,0.31939697265625,0.0238037109375,0.9564208984375
1629797547456,0.3197021484375,0.01654052734375,0.9591064453125
1629797547456,0.3187255859375,0.01812744140625,0.95672607421875
1629797547456,0.3179931640625,0.0233154296875,0.9569091796875
1629797547456,0.31939697265625,0.02227783203125,0.9591064453125
1629797547550,0.31915283203125,0.0242919921875,0.95904541015625
1629797547550,0.3170166015625,0.0198974609375,0.9581298828125
1629797547550,0.32098388671875,0.02386474609375,0.95751953125
1629797547596,0.32086181640625,0.0223388671875,0.95574951171875
1629797547612,0.31640625,0.02130126953125,0.95440673828125
1629797547612,0.31768798828125,0.0211181640625,0.9522705078125
1629797547643,0.32135009765625,0.02410888671875,0.95526123046875
1629797547643,0.32220458984375,0.02301025390625,0.9560546875
1629797547643,0.32379150390625,0.02471923828125,0.954345703125
1629797547754,0.32513427734375,0.02459716796875,0.95635986328125
1629797547767,0.3253173828125,0.0244140625,0.9537353515625
1629797547768,0.32891845703125,0.02410888671875,0.96038818359375
1629797547768,0.328857421875,0.0218505859375,0.95770263671875
1629797547769,0.326171875,0.02520751953125,0.960205078125
1629797547769,0.33135986328125,0.02349853515625,0.9564208984375
1629797547799,0.3262939453125,0.0228271484375,0.9515380859375
1629797547799,0.32855224609375,0.02081298828125,0.9500732421875
1629797547799,0.326171875,0.02099609375,0.9512939453125
1629797547846,0.33319091796875,0.01654052734375,0.9542236328125
1629797547846,0.33099365234375,0.0181884765625,0.9561767578125
1629797547954,0.32421875,0.01898193359375,0.9586181640625
1629797547954,0.3306884765625,0.02069091796875,0.9541015625
1629797547955,0.32598876953125,0.02197265625,0.95477294921875
1629797548017,0.32781982421875,0.0189208984375,0.9522705078125
1629797548017,0.3294677734375,0.02301025390625,0.95416259765625
1629797548017,0.3304443359375,0.0235595703125,0.958984375
1629797548042,0.3271484375,0.02191162109375,0.9609375
1629797548042,0.33001708984375,0.01702880859375,0.95745849609375
1629797548042,0.32879638671875,0.0196533203125,0.9581298828125
1629797548151,0.324951171875,0.01715087890625,0.9599609375
1629797548151,0.3275146484375,0.01849365234375,0.959716796875
1629797548151,0.32659912109375,0.021484375,0.9571533203125
1629797548167,0.32440185546875,0.01806640625,0.95806884765625
1629797548167,0.3199462890625,0.017333984375,0.95086669921875
1629797548167,0.319580078125,0.01654052734375,0.9549560546875
1629797548278,0.31341552734375,0.0147705078125,0.95513916015625
1629797548281,0.31744384765625,0.015625,0.94818115234375
1629797548281,0.31158447265625,0.01983642578125,0.9534912109375
1629797548324,0.3162841796875,0.01715087890625,0.9549560546875
1629797548324,0.3170166015625,0.0157470703125,0.95123291015625
1629797548324,0.3135986328125,0.01409912109375,0.95428466796875
1629797548357,0.32281494140625,0.01373291015625,0.9644775390625
1629797548359,0.32110595703125,0.009521484375,0.96051025390625
1629797548362,0.3206787109375,0.01544189453125,0.9583740234375
1629797548458,0.32159423828125,0.0150146484375,0.9603271484375
1629797548458,0.3223876953125,0.01806640625,0.95843505859375
1629797548458,0.32000732421875,0.01617431640625,0.957275390625
1629797548473,0.31988525390625,0.0196533203125,0.9561767578125
1629797548473,0.3258056640625,0.01708984375,0.95526123046875
1629797548473,0.3206787109375,0.019287109375,0.95794677734375
1629797548551,0.3206787109375,0.01849365234375,0.9544677734375
1629797548567,0.3214111328125,0.01922607421875,0.95343017578125
1629797548567,0.3187255859375,0.0169677734375,0.95428466796875
1629797548614,0.321044921875,0.01849365234375,0.95281982421875
1629797548614,0.32012939453125,0.017578125,0.95245361328125
1629797548615,0.322265625,0.01580810546875,0.94976806640625
1629797548629,0.32928466796875,0.0164794921875,0.956787109375
1629797548629,0.32427978515625,0.017333984375,0.95361328125
1629797548629,0.322265625,0.01788330078125,0.950439453125
1629797548740,0.330322265625,0.0147705078125,0.95648193359375
1629797548740,0.32989501953125,0.0,0.95941162109375
1629797548758,0.33380126953125,0.0177001953125,0.96099853515625
1629797548763,0.33111572265625,0.0189208984375,0.958740234375
1629797548763,0.329833984375,0.01849365234375,0.9600830078125
1629797548763,0.3316650390625,0.01910400390625,0.95794677734375
1629797548805,0.32904052734375,0.018798828125,0.95977783203125
1629797548805,0.32769775390625,0.02056884765625,0.95770263671875
1629797548805,0.329345703125,0.01904296875,0.95379638671875
1629797548899,0.32720947265625,0.0201416015625,0.9566650390625
1629797548900,0.3212890625,0.01788330078125,0.95562744140625
1629797548900,0.32415771484375,0.0198974609375,0.9569091796875
1629797548944,0.31915283203125,0.01416015625,0.9495849609375
1629797548944,0.3201904296875,0.0174560546875,0.95025634765625
1629797548960,0.3209228515625,0.01849365234375,0.9521484375
1629797549007,0.32562255859375,0.01458740234375,0.9580078125
1629797549007,0.32244873046875,0.01568603515625,0.95465087890625
1629797549007,0.32757568359375,0.01495361328125,0.955078125
1629797549073,0.3277587890625,0.01995849609375,0.9571533203125
1629797549073,0.32891845703125,0.0164794921875,0.9610595703125
1629797549073,0.3253173828125,0.0211181640625,0.95916748046875
1629797549183,0.32293701171875,0.01739501953125,0.95703125
1629797549183,0.3231201171875,0.01873779296875,0.95751953125
1629797549184,0.32476806640625,0.01544189453125,0.953369140625
1629797549185,0.32452392578125,0.018798828125,0.9541015625
1629797549185,0.3271484375,0.019287109375,0.9566650390625
1629797549185,0.3248291015625,0.0211181640625,0.95452880859375
1629797549247,0.3206787109375,0.021240234375,0.9554443359375
1629797549247,0.321533203125,0.01788330078125,0.95635986328125
1629797549247,0.32000732421875,0.01898193359375,0.95758056640625
1629797549293,0.32342529296875,0.01837158203125,0.9569091796875
1629797549293,0.322998046875,0.01995849609375,0.95318603515625
1629797549294,0.322021484375,0.019287109375,0.95635986328125
1629797549370,0.32568359375,0.0223388671875,0.955810546875
1629797549371,0.32281494140625,0.01898193359375,0.95758056640625
1629797549372,0.323486328125,0.0225830078125,0.95538330078125
1629797549433,0.32489013671875,0.02105712890625,0.95416259765625
1629797549433,0.32659912109375,0.02203369140625,0.9560546875
1629797549433,0.32574462890625,0.02105712890625,0.95550537109375
1629797549480,0.32318115234375,0.01971435546875,0.95562744140625
1629797549481,0.328125,0.02166748046875,0.9580078125
1629797549481,0.32501220703125,0.01910400390625,0.9544677734375
1629797549637,0.3277587890625,0.022216796875,0.9554443359375
1629797549637,0.3248291015625,0.019287109375,0.956787109375
1629797549637,0.325927734375,0.0216064453125,0.95709228515625
1629797549668,0.32635498046875,0.02197265625,0.95458984375
1629797549669,0.3284912109375,0.017333984375,0.9552001953125
1629797549669,0.32861328125,0.0186767578125,0.95269775390625
1629797549685,0.3280029296875,0.01898193359375,0.95654296875
1629797549685,0.3294677734375,0.017822265625,0.95745849609375
1629797549685,0.3272705078125,0.01861572265625,0.9554443359375
1629797549714,0.32891845703125,0.0181884765625,0.95721435546875
1629797549714,0.32855224609375,0.01617431640625,0.9593505859375
1629797549714,0.32855224609375,0.01800537109375,0.955322265625
1629797549761,0.32794189453125,0.0196533203125,0.95672607421875
1629797549762,0.3277587890625,0.01788330078125,0.95611572265625
1629797549762,0.32696533203125,0.02117919921875,0.95611572265625
1629797549822,0.32708740234375,0.0184326171875,0.95831298828125
1629797549822,0.330078125,0.01812744140625,0.95367431640625
1629797549822,0.32611083984375,0.017333984375,0.9586181640625
1629797549901,0.32666015625,0.020263671875,0.9603271484375
1629797549901,0.3299560546875,0.01861572265625,0.96002197265625
1629797549902,0.32366943359375,0.02313232421875,0.96002197265625
1629797549916,0.3226318359375,0.019775390625,0.953857421875
1629797549920,0.32037353515625,0.01556396484375,0.95001220703125
1629797549920,0.3223876953125,0.01556396484375,0.95343017578125
1629797550042,0.321533203125,0.0142822265625,0.95355224609375
1629797550045,0.3221435546875,0.01416015625,0.95587158203125
1629797550046,0.32086181640625,0.01104736328125,0.95733642578125
1629797550061,0.322265625,0.020263671875,0.95660400390625
1629797550064,0.32281494140625,0.01470947265625,0.95330810546875
1629797550065,0.32415771484375,0.013427734375,0.95526123046875
1629797550168,0.32244873046875,0.02166748046875,0.95428466796875
1629797550168,0.320068359375,0.0240478515625,0.95697021484375
1629797550169,0.321044921875,0.02349853515625,0.9549560546875
1629797550195,0.32183837890625,0.0218505859375,0.9537353515625
1629797550219,0.31793212890625,0.01904296875,0.9598388671875
1629797550219,0.3197021484375,0.018798828125,0.95977783203125
1629797550255,0.32208251953125,0.01556396484375,0.9547119140625
1629797550256,0.3212890625,0.0194091796875,0.95831298828125
1629797550256,0.3228759765625,0.01824951171875,0.95733642578125
1629797550302,0.32366943359375,0.014892578125,0.9556884765625
1629797550302,0.321533203125,0.01251220703125,0.9591064453125
1629797550302,0.32171630859375,0.01788330078125,0.95733642578125
1629797550381,0.32373046875,0.0167236328125,0.95953369140625
1629797550381,0.3228759765625,0.01983642578125,0.9595947265625
1629797550381,0.3211669921875,0.0179443359375,0.958984375
1629797550397,0.3155517578125,0.0203857421875,0.957275390625
1629797550397,0.32183837890625,0.0211181640625,0.953369140625
1629797550397,0.31854248046875,0.02215576171875,0.9560546875
1629797550495,0.3179931640625,0.02069091796875,0.95697021484375
1629797550495,0.32073974609375,0.02197265625,0.95660400390625
1629797550495,0.31671142578125,0.02093505859375,0.95318603515625
1629797550524,0.3221435546875,0.02178955078125,0.9560546875
1629797550524,0.32086181640625,0.0213623046875,0.95306396484375
1629797550529,0.31951904296875,0.020751953125,0.95623779296875
1629797550585,0.31854248046875,0.019775390625,0.95355224609375
1629797550585,0.3233642578125,0.02105712890625,0.95770263671875
1629797550585,0.3218994140625,0.0223388671875,0.95452880859375
1629797550647,0.32183837890625,0.01715087890625,0.9559326171875
1629797550647,0.32037353515625,0.0172119140625,0.956298828125
1629797550647,0.320556640625,0.01806640625,0.953857421875
1629797550677,0.32550048828125,0.01593017578125,0.9635009765625
1629797550677,0.328857421875,0.01611328125,0.96209716796875
1629797550678,0.32818603515625,0.0179443359375,0.95928955078125
1629797550884,0.32391357421875,0.0167236328125,0.95654296875
1629797550884,0.325927734375,0.01641845703125,0.9571533203125
1629797550884,0.32611083984375,0.01544189453125,0.95977783203125
1629797550900,0.3258056640625,0.0157470703125,0.9564208984375
1629797550900,0.3233642578125,0.01702880859375,0.95709228515625
1629797550900,0.32574462890625,0.01513671875,0.9581298828125
1629797550916,0.32525634765625,0.0174560546875,0.95526123046875
1629797550916,0.318603515625,0.02392578125,0.9581298828125
1629797550916,0.322509765625,0.01904296875,0.9554443359375
1629797550931,0.3228759765625,0.01812744140625,0.9510498046875
1629797550931,0.324951171875,0.02166748046875,0.953369140625
1629797550931,0.32171630859375,0.013916015625,0.9486083984375
1629797550978,0.32952880859375,0.01617431640625,0.9547119140625
1629797550978,0.32818603515625,0.01409912109375,0.9581298828125
1629797550978,0.326171875,0.01715087890625,0.9542236328125
1629797551090,0.3253173828125,0.0177001953125,0.9569091796875
1629797551090,0.3297119140625,0.02410888671875,0.95330810546875
1629797551090,0.326171875,0.01995849609375,0.95501708984375
1629797551121,0.3353271484375,0.0220947265625,0.9560546875
1629797551121,0.33404541015625,0.02215576171875,0.954345703125
1629797551121,0.32666015625,0.019287109375,0.95660400390625
1629797551184,0.33026123046875,0.0196533203125,0.952392578125
1629797551184,0.3309326171875,0.0181884765625,0.95703125
1629797551184,0.3253173828125,0.01715087890625,0.9583740234375
1629797551262,0.32635498046875,0.02044677734375,0.9580078125
1629797551262,0.326171875,0.016845703125,0.95159912109375
1629797551262,0.3270263671875,0.0194091796875,0.9530029296875
1629797551340,0.3284912109375,0.01910400390625,0.95513916015625
1629797551340,0.32171630859375,0.01959228515625,0.952392578125
1629797551340,0.3238525390625,0.0172119140625,0.9564208984375
1629797551378,0.32708740234375,0.01580810546875,0.95733642578125
1629797551378,0.32855224609375,0.0150146484375,0.95892333984375
1629797551378,0.32952880859375,0.0167236328125,0.957763671875
1629797551441,0.3251953125,0.0159912109375,0.95611572265625
1629797551441,0.32843017578125,0.01812744140625,0.95654296875
1629797551441,0.322998046875,0.01690673828125,0.959716796875
1629797551503,0.326171875,0.01727294921875,0.9569091796875
1629797551503,0.32183837890625,0.0185546875,0.95440673828125
1629797551503,0.32586669921875,0.01318359375,0.95562744140625
1629797551535,0.32037353515625,0.015625,0.95318603515625
1629797551535,0.325439453125,0.0157470703125,0.95465087890625
1629797551535,0.32354736328125,0.01800537109375,0.9542236328125
1629797551597,0.32061767578125,0.01470947265625,0.95623779296875
1629797551597,0.3251953125,0.0,0.9527587890625
1629797551597,0.32073974609375,0.01434326171875,0.95379638671875
1629797551660,0.32525634765625,0.01678466796875,0.95635986328125
1629797551660,0.32464599609375,0.015380859375,0.955810546875
1629797551660,0.3271484375,0.01690673828125,0.9559326171875
1629797551691,0.3262939453125,0.0150146484375,0.9559326171875
1629797551691,0.32513427734375,0.018310546875,0.95733642578125
1629797551691,0.33056640625,0.01373291015625,0.9552001953125
1629797551774,0.33087158203125,0.0155029296875,0.95123291015625
1629797551774,0.3291015625,0.0111083984375,0.95477294921875
1629797551774,0.33135986328125,0.01263427734375,0.95703125
1629797551837,0.3382568359375,0.01239013671875,0.9525146484375
1629797551837,0.3336181640625,0.01287841796875,0.9547119140625
1629797551837,0.33135986328125,0.012451171875,0.95709228515625
1629797551884,0.334716796875,0.0128173828125,0.95849609375
1629797551884,0.3365478515625,0.01318359375,0.956298828125
1629797551884,0.33355712890625,0.01312255859375,0.960205078125
1629797551978,0.33935546875,0.0142822265625,0.9578857421875
1629797551978,0.333984375,0.01007080078125,0.9527587890625
1629797551978,0.33782958984375,0.00775146484375,0.95294189453125
1629797551993,0.336181640625,0.011474609375,0.9566650390625
1629797551993,0.33447265625,0.01422119140625,0.9561767578125
1629797552009,0.33770751953125,0.01007080078125,0.9521484375
1629797552087,0.3311767578125,0.0159912109375,0.95648193359375
1629797552105,0.3270263671875,0.0174560546875,0.95440673828125
1629797552151,0.32061767578125,0.01763916015625,0.95361328125
1629797552151,0.327392578125,0.0,0.95330810546875
1629797552230,0.321533203125,0.018798828125,0.954833984375
1629797552230,0.32098388671875,0.01861572265625,0.95355224609375
1629797552230,0.32672119140625,0.01446533203125,0.9508056640625
1629797552261,0.32080078125,0.0166015625,0.95306396484375
1629797552261,0.32330322265625,0.01904296875,0.956787109375
1629797552261,0.322265625,0.0186767578125,0.95458984375
1629797552401,0.32452392578125,0.0152587890625,0.96044921875
1629797552401,0.32476806640625,0.01617431640625,0.9605712890625
1629797552401,0.326416015625,0.0164794921875,0.959228515625
1629797552401,0.32403564453125,0.01116943359375,0.96380615234375
1629797552401,0.32073974609375,0.021728515625,0.95660400390625
1629797552401,0.322998046875,0.01251220703125,0.96142578125
1629797552417,0.32049560546875,0.01849365234375,0.9564208984375
1629797552417,0.32354736328125,0.01556396484375,0.958984375
1629797552417,0.3216552734375,0.01690673828125,0.958251953125
1629797552495,0.31927490234375,0.02044677734375,0.9542236328125
1629797552495,0.322265625,0.0240478515625,0.95574951171875
1629797552495,0.32000732421875,0.0234375,0.953369140625
1629797552604,0.322021484375,0.0216064453125,0.9534912109375
1629797552604,0.3189697265625,0.02349853515625,0.95465087890625
1629797552604,0.31695556640625,0.0234375,0.9534912109375
1629797552636,0.320556640625,0.02166748046875,0.95709228515625
1629797552636,0.32562255859375,0.0194091796875,0.95330810546875
1629797552636,0.3240966796875,0.022216796875,0.95166015625
1629797552698,0.3267822265625,0.01715087890625,0.9556884765625
1629797552698,0.3270263671875,0.0164794921875,0.95745849609375
1629797552714,0.32745361328125,0.017578125,0.95672607421875
1629797552761,0.32940673828125,0.01507568359375,0.95709228515625
1629797552761,0.332275390625,0.01953125,0.95440673828125
1629797552761,0.32763671875,0.016357421875,0.95697021484375
1629797552824,0.33203125,0.016845703125,0.95574951171875
1629797552824,0.33477783203125,0.01763916015625,0.95538330078125
1629797552824,0.33197021484375,0.016845703125,0.95697021484375
1629797552839,0.33514404296875,0.0191650390625,0.9566650390625
1629797552839,0.3311767578125,0.02032470703125,0.95526123046875
1629797552839,0.33184814453125,0.02130126953125,0.95404052734375
1629797552870,0.32568359375,0.02001953125,0.954345703125
1629797552870,0.32366943359375,0.018798828125,0.95721435546875
1629797552870,0.32550048828125,0.015869140625,0.95343017578125
1629797552936,0.3271484375,0.01409912109375,0.952880859375
1629797552936,0.32696533203125,0.01141357421875,0.955810546875
1629797552936,0.32470703125,0.013916015625,0.95037841796875
1629797553014,0.329833984375,0.0113525390625,0.9560546875
1629797553014,0.32647705078125,0.01025390625,0.9571533203125
1629797553014,0.330078125,0.01318359375,0.9610595703125
1629797553107,0.328857421875,0.01641845703125,0.95196533203125
1629797553107,0.32666015625,0.0103759765625,0.9564208984375
1629797553107,0.3306884765625,0.01531982421875,0.95721435546875
1629797553123,0.33050537109375,0.015625,0.95379638671875
1629797553123,0.32794189453125,0.015869140625,0.95550537109375
1629797553123,0.3271484375,0.01422119140625,0.954833984375
1629797553216,0.32452392578125,0.012451171875,0.95513916015625
1629797553216,0.32562255859375,0.01220703125,0.9554443359375
1629797553216,0.3260498046875,0.0125732421875,0.95587158203125
1629797553248,0.3243408203125,0.0106201171875,0.95391845703125
1629797553248,0.32427978515625,0.0128173828125,0.9525146484375
1629797553248,0.32635498046875,0.00927734375,0.9542236328125
1629797553326,0.3248291015625,0.01666259765625,0.95538330078125
1629797553326,0.3267822265625,0.01171875,0.9566650390625
1629797553326,0.32574462890625,0.01641845703125,0.9547119140625
1629797553326,0.32720947265625,0.0111083984375,0.9552001953125
1629797553326,0.32623291015625,0.01190185546875,0.9561767578125
1629797553326,0.326416015625,0.01165771484375,0.95660400390625
1629797553513,0.329345703125,0.01531982421875,0.95623779296875
1629797553513,0.32977294921875,0.01666259765625,0.9569091796875
1629797553513,0.3289794921875,0.017578125,0.95556640625
1629797553545,0.33056640625,0.0145263671875,0.95281982421875
1629797553545,0.3314208984375,0.015380859375,0.951416015625
1629797553545,0.3284912109375,0.019775390625,0.9520263671875
1629797553545,0.32879638671875,0.0184326171875,0.95135498046875
1629797553545,0.32733154296875,0.0142822265625,0.95458984375
1629797553545,0.33135986328125,0.01873779296875,0.95263671875
1629797553623,0.332275390625,0.01446533203125,0.9530029296875
1629797553623,0.33319091796875,0.015869140625,0.9541015625
1629797553623,0.33135986328125,0.0162353515625,0.9532470703125
1629797553654,0.33367919921875,0.01483154296875,0.95672607421875
1629797553654,0.33282470703125,0.01666259765625,0.95635986328125
1629797553654,0.3323974609375,0.015869140625,0.95635986328125
1629797553748,0.33258056640625,0.01837158203125,0.95697021484375
1629797553763,0.3382568359375,0.01611328125,0.95550537109375
1629797553763,0.33319091796875,0.01739501953125,0.9534912109375
1629797553794,0.3331298828125,0.02056884765625,0.95697021484375
1629797553794,0.33135986328125,0.01904296875,0.9534912109375
1629797553794,0.331298828125,0.01641845703125,0.95074462890625
1629797553826,0.3291015625,0.01959228515625,0.95562744140625
1629797553826,0.33197021484375,0.020263671875,0.95361328125
1629797553826,0.3330078125,0.01934814453125,0.95745849609375
1629797553920,0.33197021484375,0.02105712890625,0.95477294921875
1629797553920,0.33154296875,0.01953125,0.95477294921875
1629797553922,0.32977294921875,0.02099609375,0.955810546875
1629797554079,0.3255615234375,0.01507568359375,0.95306396484375
1629797554079,0.33331298828125,0.01434326171875,0.9564208984375
1629797554079,0.3297119140625,0.02215576171875,0.95648193359375
1629797554079,0.32342529296875,0.01165771484375,0.95404052734375
1629797554079,0.3255615234375,0.01177978515625,0.95709228515625
1629797554079,0.32586669921875,0.01470947265625,0.9498291015625
1629797554094,0.328857421875,0.01531982421875,0.95428466796875
1629797554094,0.3251953125,0.0162353515625,0.9493408203125
1629797554094,0.33135986328125,0.01605224609375,0.956787109375
1629797554172,0.33123779296875,0.01959228515625,0.95343017578125
1629797554172,0.32574462890625,0.022216796875,0.95147705078125
1629797554172,0.33056640625,0.0201416015625,0.95562744140625
1629797554188,0.32379150390625,0.0174560546875,0.95416259765625
1629797554188,0.32342529296875,0.0208740234375,0.951171875
1629797554203,0.3228759765625,0.01580810546875,0.954345703125
1629797554240,0.326904296875,0.01678466796875,0.95556640625
1629797554240,0.327880859375,0.02001953125,0.9554443359375
1629797554240,0.3280029296875,0.014404296875,0.95367431640625
1629797554287,0.3294677734375,0.01666259765625,0.95947265625
1629797554287,0.327880859375,0.01483154296875,0.9581298828125
1629797554287,0.3292236328125,0.01611328125,0.95281982421875
1629797554365,0.32989501953125,0.01519775390625,0.95330810546875
1629797554365,0.329345703125,0.01885986328125,0.95599365234375
1629797554365,0.329345703125,0.01904296875,0.95538330078125
1629797554427,0.32867431640625,0.014892578125,0.95745849609375
1629797554443,0.3277587890625,0.02008056640625,0.95709228515625
1629797554443,0.33251953125,0.01898193359375,0.95733642578125
1629797554537,0.33203125,0.0179443359375,0.95513916015625
1629797554537,0.33062744140625,0.0147705078125,0.954833984375
1629797554537,0.3309326171875,0.01788330078125,0.958984375
1629797554537,0.32562255859375,0.01300048828125,0.95623779296875
1629797554552,0.33099365234375,0.01788330078125,0.9508056640625
1629797554568,0.331298828125,0.01483154296875,0.95556640625
1629797554693,0.32977294921875,0.0135498046875,0.9569091796875
1629797554708,0.32989501953125,0.0155029296875,0.9561767578125
1629797554708,0.325927734375,0.017333984375,0.95452880859375
1629797554708,0.32794189453125,0.018798828125,0.95440673828125
1629797554708,0.3314208984375,0.01568603515625,0.95465087890625
1629797554708,0.330078125,0.0185546875,0.95819091796875
1629797554708,0.3323974609375,0.0146484375,0.955078125
1629797554708,0.328125,0.0167236328125,0.955078125
1629797554708,0.3267822265625,0.015869140625,0.95654296875
1629797554818,0.32989501953125,0.0177001953125,0.9527587890625
1629797554818,0.3299560546875,0.0162353515625,0.95526123046875
1629797554818,0.33038330078125,0.0177001953125,0.95318603515625
1629797554849,0.3309326171875,0.0179443359375,0.95880126953125
1629797554849,0.33135986328125,0.018310546875,0.9576416015625
1629797554849,0.32818603515625,0.01690673828125,0.95703125
1629797554911,0.32586669921875,0.015380859375,0.95855712890625
1629797554911,0.32830810546875,0.0164794921875,0.9564208984375
1629797554911,0.3294677734375,0.01885986328125,0.9586181640625
1629797554943,0.31787109375,0.010986328125,0.948974609375
1629797554943,0.32342529296875,0.015625,0.9515380859375
1629797554943,0.32110595703125,0.0177001953125,0.95660400390625
1629797555024,0.32403564453125,0.017822265625,0.95623779296875
1629797555024,0.32672119140625,0.015625,0.9603271484375
1629797555024,0.32061767578125,0.01513671875,0.95513916015625
1629797555134,0.32562255859375,0.0181884765625,0.9627685546875
1629797555134,0.3284912109375,0.0184326171875,0.95501708984375
1629797555134,0.326171875,0.01446533203125,0.9598388671875
1629797555165,0.32196044921875,0.01934814453125,0.9539794921875
1629797555165,0.321533203125,0.02239990234375,0.95745849609375
1629797555180,0.32208251953125,0.02056884765625,0.95623779296875
1629797555180,0.32183837890625,0.0216064453125,0.95697021484375
1629797555180,0.32220458984375,0.0205078125,0.9552001953125
1629797555180,0.3214111328125,0.021240234375,0.95208740234375
1629797555368,0.32098388671875,0.0198974609375,0.95794677734375
1629797555384,0.3184814453125,0.01904296875,0.95770263671875
1629797555384,0.32061767578125,0.01556396484375,0.9580078125
1629797555446,0.32275390625,0.01934814453125,0.95880126953125
1629797555446,0.32037353515625,0.01885986328125,0.95489501953125
1629797555446,0.32147216796875,0.0177001953125,0.957275390625
1629797555462,0.32440185546875,0.01605224609375,0.957763671875
1629797555462,0.3232421875,0.01483154296875,0.9593505859375
1629797555462,0.32318115234375,0.01556396484375,0.959716796875
1629797555493,0.32220458984375,0.01861572265625,0.956298828125
1629797555493,0.3245849609375,0.0166015625,0.95928955078125
1629797555493,0.32354736328125,0.017333984375,0.958740234375
1629797555524,0.32122802734375,0.0135498046875,0.956787109375
1629797555524,0.31964111328125,0.01507568359375,0.9580078125
1629797555524,0.32403564453125,0.01507568359375,0.95819091796875
1629797555555,0.32769775390625,0.0157470703125,0.95355224609375
1629797555555,0.32159423828125,0.015869140625,0.9578857421875
1629797555571,0.32440185546875,0.01544189453125,0.9512939453125
1629797555618,0.32403564453125,0.01495361328125,0.950927734375
1629797555633,0.31768798828125,0.01702880859375,0.9501953125
1629797555633,0.3214111328125,0.017822265625,0.951171875
1629797555665,0.3221435546875,0.01416015625,0.95611572265625
1629797555665,0.3232421875,0.0174560546875,0.9539794921875
1629797555680,0.3255615234375,0.01708984375,0.9552001953125
1629797555774,0.3270263671875,0.01470947265625,0.9576416015625
1629797555774,0.3275146484375,0.0162353515625,0.958251953125
1629797555774,0.32867431640625,0.0157470703125,0.9573974609375
1629797555789,0.32733154296875,0.01751708984375,0.95574951171875
1629797555789,0.3289794921875,0.0185546875,0.95770263671875
1629797555789,0.326904296875,0.014892578125,0.959716796875
1629797555821,0.32427978515625,0.016845703125,0.9541015625
1629797555821,0.32989501953125,0.01763916015625,0.95684814453125
1629797555821,0.32501220703125,0.0157470703125,0.9512939453125
1629797555977,0.3238525390625,0.01629638671875,0.95367431640625
1629797555977,0.3236083984375,0.01861572265625,0.95416259765625
1629797555977,0.32196044921875,0.0166015625,0.956298828125
1629797555992,0.32666015625,0.0166015625,0.9498291015625
1629797555992,0.3251953125,0.01605224609375,0.95635986328125
1629797555992,0.3232421875,0.01666259765625,0.95654296875
1629797556011,0.327392578125,0.0147705078125,0.96038818359375
1629797556026,0.329345703125,0.0115966796875,0.9573974609375
1629797556026,0.332763671875,0.01666259765625,0.95880126953125
1629797556104,0.32818603515625,0.0186767578125,0.958740234375
1629797556104,0.33294677734375,0.01739501953125,0.95587158203125
1629797556104,0.33221435546875,0.0135498046875,0.96148681640625
1629797556120,0.32818603515625,0.0194091796875,0.95654296875
1629797556120,0.32366943359375,0.0234375,0.95343017578125
1629797556120,0.324951171875,0.02044677734375,0.95465087890625
1629797556261,0.31890869140625,0.01544189453125,0.952392578125
1629797556261,0.3201904296875,0.01708984375,0.95196533203125
1629797556261,0.32086181640625,0.01971435546875,0.9537353515625
1629797556261,0.32171630859375,0.0130615234375,0.954345703125
1629797556261,0.32025146484375,0.01849365234375,0.95318603515625
1629797556261,0.32000732421875,0.01580810546875,0.95263671875
1629797556323,0.32513427734375,0.01519775390625,0.95416259765625
1629797556323,0.32147216796875,0.01080322265625,0.9527587890625
1629797556323,0.32952880859375,0.0103759765625,0.96014404296875
1629797556354,0.33001708984375,0.015625,0.96002197265625
1629797556354,0.3267822265625,0.02044677734375,0.96099853515625
1629797556354,0.328369140625,0.013671875,0.963134765625
1629797556448,0.3262939453125,0.02081298828125,0.959228515625
1629797556464,0.32550048828125,0.02294921875,0.9576416015625
1629797556464,0.32373046875,0.01922607421875,0.95611572265625
1629797556495,0.32415771484375,0.01812744140625,0.95428466796875
1629797556495,0.32135009765625,0.01751708984375,0.95599365234375
1629797556495,0.3260498046875,0.019287109375,0.95367431640625
1629797556557,0.31964111328125,0.019775390625,0.95379638671875
1629797556557,0.3258056640625,0.01812744140625,0.9566650390625
1629797556557,0.3204345703125,0.021484375,0.9527587890625
1629797556588,0.3243408203125,0.018798828125,0.955810546875
1629797556588,0.32818603515625,0.01910400390625,0.95733642578125
1629797556588,0.32562255859375,0.02325439453125,0.95654296875
1629797556723,0.32501220703125,0.015869140625,0.9569091796875
1629797556723,0.324462890625,0.017333984375,0.9571533203125
1629797556723,0.33062744140625,0.0166015625,0.960205078125
1629797556833,0.32763671875,0.0164794921875,0.957275390625
1629797556833,0.329833984375,0.01483154296875,0.9573974609375
1629797556833,0.32666015625,0.01690673828125,0.9576416015625
1629797556833,0.33001708984375,0.0174560546875,0.9554443359375
1629797556833,0.33001708984375,0.013916015625,0.9561767578125
1629797556833,0.32904052734375,0.014892578125,0.95648193359375
1629797556848,0.327392578125,0.01348876953125,0.95538330078125
1629797556848,0.328125,0.0142822265625,0.9566650390625
1629797556848,0.32769775390625,0.01458740234375,0.95751953125
1629797556911,0.32049560546875,0.01519775390625,0.95635986328125
1629797556911,0.32403564453125,0.021240234375,0.954345703125
1629797556911,0.32373046875,0.01519775390625,0.95404052734375
1629797556989,0.3236083984375,0.01654052734375,0.95245361328125
1629797556989,0.3240966796875,0.0133056640625,0.95172119140625
1629797557004,0.32464599609375,0.01336669921875,0.9547119140625
1629797557023,0.32806396484375,0.01611328125,0.9569091796875
1629797557023,0.3262939453125,0.01361083984375,0.9559326171875
1629797557023,0.33087158203125,0.01446533203125,0.95501708984375
1629797557086,0.32861328125,0.01470947265625,0.954833984375
1629797557086,0.33099365234375,0.01617431640625,0.95782470703125
1629797557086,0.32879638671875,0.01739501953125,0.955322265625
1629797557179,0.32763671875,0.020751953125,0.958251953125
1629797557179,0.3221435546875,0.016845703125,0.9544677734375
1629797557179,0.32611083984375,0.019775390625,0.95465087890625
1629797557211,0.32159423828125,0.01849365234375,0.95269775390625
1629797557211,0.32342529296875,0.0157470703125,0.95623779296875
1629797557211,0.3214111328125,0.01507568359375,0.9541015625
1629797557242,0.3243408203125,0.0133056640625,0.95147705078125
1629797557242,0.322265625,0.01165771484375,0.95367431640625
1629797557242,0.323486328125,0.017333984375,0.95428466796875
1629797557336,0.322265625,0.01202392578125,0.95867919921875
1629797557336,0.3243408203125,0.01300048828125,0.95709228515625
1629797557336,0.327392578125,0.0130615234375,0.96044921875
1629797557429,0.3255615234375,0.01678466796875,0.9552001953125
1629797557429,0.32635498046875,0.01226806640625,0.9586181640625
1629797557445,0.3260498046875,0.01885986328125,0.96002197265625
1629797557445,0.323974609375,0.01556396484375,0.9522705078125
1629797557445,0.32305908203125,0.01666259765625,0.951416015625
1629797557445,0.323486328125,0.021728515625,0.95556640625
1629797557570,0.3248291015625,0.01837158203125,0.95648193359375
1629797557570,0.32537841796875,0.01690673828125,0.9564208984375
1629797557570,0.32696533203125,0.01495361328125,0.95477294921875
1629797557632,0.32489013671875,0.0150146484375,0.95269775390625
1629797557632,0.32647705078125,0.01849365234375,0.95501708984375
1629797557632,0.32623291015625,0.01702880859375,0.95013427734375
1629797557632,0.3265380859375,0.01806640625,0.95538330078125
1629797557632,0.3251953125,0.0196533203125,0.95367431640625
1629797557632,0.32427978515625,0.01885986328125,0.95489501953125
1629797557742,0.33209228515625,0.015869140625,0.955078125
1629797557742,0.3316650390625,0.015869140625,0.95538330078125
1629797557742,0.3291015625,0.0162353515625,0.95623779296875
1629797557742,0.330810546875,0.019287109375,0.9576416015625
1629797557742,0.33245849609375,0.01556396484375,0.95623779296875
1629797557742,0.33258056640625,0.0142822265625,0.95654296875
1629797557773,0.3309326171875,0.01629638671875,0.9544677734375
1629797557789,0.33001708984375,0.01953125,0.95294189453125
1629797557789,0.33343505859375,0.01617431640625,0.95220947265625
1629797557867,0.33038330078125,0.016845703125,0.95831298828125
1629797557867,0.3282470703125,0.01666259765625,0.95574951171875
1629797557867,0.32830810546875,0.01678466796875,0.9539794921875
1629797557914,0.327392578125,0.0174560546875,0.95703125
1629797557914,0.32568359375,0.018798828125,0.955810546875
1629797557914,0.3310546875,0.017822265625,0.9549560546875
1629797557992,0.3232421875,0.01019287109375,0.950927734375
1629797557992,0.32354736328125,0.01544189453125,0.953125
1629797558007,0.32861328125,0.016357421875,0.95147705078125
1629797558039,0.3267822265625,0.01226806640625,0.9571533203125
1629797558039,0.33160400390625,0.01373291015625,0.96044921875
1629797558039,0.326416015625,0.01385498046875,0.955322265625
1629797558134,0.3291015625,0.01727294921875,0.95819091796875
1629797558134,0.33026123046875,0.01861572265625,0.95770263671875
1629797558134,0.3284912109375,0.0172119140625,0.9599609375
1629797558228,0.32366943359375,0.01910400390625,0.95196533203125
1629797558228,0.32086181640625,0.01580810546875,0.95037841796875
1629797558228,0.3233642578125,0.0206298828125,0.95391845703125
1629797558259,0.321533203125,0.014892578125,0.95379638671875
1629797558259,0.32464599609375,0.01776123046875,0.9554443359375
1629797558259,0.32476806640625,0.01885986328125,0.9510498046875
1629797558275,0.32659912109375,0.01385498046875,0.95458984375
1629797558290,0.3262939453125,0.0155029296875,0.956787109375
1629797558290,0.3233642578125,0.01507568359375,0.95428466796875
1629797558373,0.32745361328125,0.01385498046875,0.95855712890625
1629797558373,0.32403564453125,0.01318359375,0.95831298828125
1629797558373,0.3275146484375,0.01678466796875,0.95587158203125
1629797558420,0.32623291015625,0.01904296875,0.95672607421875
1629797558420,0.32635498046875,0.015869140625,0.95684814453125
1629797558420,0.3236083984375,0.0177001953125,0.95587158203125
1629797558498,0.326171875,0.01849365234375,0.95465087890625
1629797558498,0.3271484375,0.01739501953125,0.95361328125
1629797558498,0.3231201171875,0.01885986328125,0.95758056640625
1629797558592,0.32537841796875,0.01812744140625,0.95172119140625
1629797558592,0.3258056640625,0.0157470703125,0.95074462890625
1629797558592,0.32464599609375,0.01812744140625,0.95452880859375
1629797558654,0.3284912109375,0.01593017578125,0.9544677734375
1629797558654,0.32550048828125,0.014404296875,0.954345703125
1629797558654,0.3260498046875,0.01666259765625,0.95599365234375
1629797558686,0.3311767578125,0.0169677734375,0.9583740234375
1629797558686,0.32647705078125,0.013427734375,0.9541015625
1629797558686,0.32977294921875,0.0174560546875,0.95721435546875
1629797558701,0.3297119140625,0.0,0.95703125
1629797558701,0.3289794921875,0.01605224609375,0.9561767578125
1629797558701,0.33013916015625,0.01751708984375,0.9583740234375
1629797558732,0.3314208984375,0.01507568359375,0.957275390625
1629797558732,0.33062744140625,0.01666259765625,0.9559326171875
1629797558732,0.33087158203125,0.017578125,0.95770263671875
1629797558764,0.32843017578125,0.01470947265625,0.95281982421875
1629797558764,0.32867431640625,0.016357421875,0.9552001953125
1629797558764,0.33013916015625,0.01092529296875,0.95416259765625
1629797558904,0.32794189453125,0.01531982421875,0.95697021484375
1629797558904,0.32940673828125,0.01849365234375,0.9549560546875
1629797558904,0.32989501953125,0.01898193359375,0.958740234375
1629797558904,0.3297119140625,0.01422119140625,0.95697021484375
1629797558904,0.3272705078125,0.01593017578125,0.95745849609375
1629797558920,0.32806396484375,0.01617431640625,0.96209716796875
1629797559029,0.3280029296875,0.0113525390625,0.952880859375
1629797559029,0.32867431640625,0.0146484375,0.95660400390625
1629797559045,0.3287353515625,0.01824951171875,0.96044921875
1629797559076,0.3270263671875,0.0142822265625,0.95733642578125
1629797559076,0.326416015625,0.01910400390625,0.9541015625
1629797559076,0.3270263671875,0.013916015625,0.95745849609375
1629797559076,0.323486328125,0.01385498046875,0.9532470703125
1629797559076,0.3243408203125,0.01373291015625,0.9566650390625
1629797559076,0.3253173828125,0.0155029296875,0.95745849609375
1629797559143,0.3177490234375,0.0198974609375,0.953857421875
1629797559143,0.32147216796875,0.01953125,0.9559326171875
1629797559143,0.31549072265625,0.01446533203125,0.9530029296875
1629797559252,0.32025146484375,0.01873779296875,0.958251953125
1629797559252,0.31524658203125,0.0179443359375,0.9542236328125
1629797559252,0.31378173828125,0.01702880859375,0.9559326171875
1629797559299,0.31317138671875,0.01995849609375,0.95703125
1629797559299,0.3121337890625,0.01312255859375,0.955810546875
1629797559299,0.3133544921875,0.0208740234375,0.9561767578125
1629797559330,0.31842041015625,0.01812744140625,0.96087646484375
1629797559330,0.3121337890625,0.016357421875,0.959228515625
1629797559330,0.31463623046875,0.01629638671875,0.95501708984375
1629797559377,0.3170166015625,0.015869140625,0.959716796875
1629797559377,0.31646728515625,0.01483154296875,0.9605712890625
1629797559393,0.31610107421875,0.01629638671875,0.96087646484375
1629797559439,0.31817626953125,0.01715087890625,0.9620361328125
1629797559439,0.3150634765625,0.0179443359375,0.961181640625
1629797559439,0.31353759765625,0.017333984375,0.95989990234375
1629797559533,0.308837890625,0.014892578125,0.95703125
1629797559533,0.31341552734375,0.0167236328125,0.95660400390625
1629797559627,0.31451416015625,0.0216064453125,0.9560546875
1629797559627,0.31103515625,0.02362060546875,0.956298828125
1629797559643,0.31024169921875,0.0191650390625,0.9556884765625
1629797559643,0.318115234375,0.02227783203125,0.95367431640625
1629797559643,0.3153076171875,0.02001953125,0.95672607421875
1629797559643,0.314208984375,0.0213623046875,0.954833984375
1629797559736,0.3223876953125,0.02154541015625,0.959716796875
1629797559736,0.31982421875,0.01959228515625,0.95751953125
1629797559736,0.3240966796875,0.0208740234375,0.9598388671875
1629797559736,0.32305908203125,0.019775390625,0.9619140625
1629797559752,0.318115234375,0.02008056640625,0.95697021484375
1629797559752,0.31903076171875,0.01910400390625,0.95574951171875
1629797559783,0.32598876953125,0.02032470703125,0.95697021484375
1629797559783,0.324462890625,0.02545166015625,0.9609375
1629797559783,0.3236083984375,0.0218505859375,0.9564208984375
1629797559830,0.32275390625,0.0233154296875,0.9586181640625
1629797559830,0.31976318359375,0.02423095703125,0.9559326171875
1629797559846,0.3218994140625,0.021484375,0.95892333984375
1629797559959,0.31927490234375,0.02606201171875,0.95294189453125
1629797559959,0.322998046875,0.02532958984375,0.9527587890625
1629797559959,0.3179931640625,0.02423095703125,0.95416259765625
1629797560022,0.31829833984375,0.02459716796875,0.95361328125
1629797560022,0.32745361328125,0.01971435546875,0.95831298828125
1629797560022,0.3199462890625,0.0250244140625,0.95452880859375
1629797560022,0.32598876953125,0.02288818359375,0.95977783203125
1629797560022,0.32464599609375,0.02142333984375,0.9610595703125
1629797560022,0.32000732421875,0.02117919921875,0.953857421875
1629797560053,0.32427978515625,0.02484130859375,0.9613037109375
1629797560053,0.325439453125,0.02685546875,0.9576416015625
1629797560068,0.3255615234375,0.0233154296875,0.9632568359375
1629797560195,0.3214111328125,0.02685546875,0.956787109375
1629797560195,0.32257080078125,0.0235595703125,0.95947265625
1629797560195,0.3189697265625,0.020263671875,0.9561767578125
1629797560258,0.315673828125,0.02459716796875,0.9544677734375
1629797560258,0.31256103515625,0.02032470703125,0.95941162109375
1629797560258,0.3138427734375,0.0198974609375,0.95501708984375
1629797560273,0.31317138671875,0.01837158203125,0.9542236328125
1629797560273,0.31298828125,0.0159912109375,0.95794677734375
1629797560273,0.3135986328125,0.01788330078125,0.956787109375
1629797560445,0.3140869140625,0.0189208984375,0.95477294921875
1629797560445,0.31451416015625,0.0140380859375,0.95806884765625
1629797560445,0.310302734375,0.01544189453125,0.95465087890625
1629797560633,0.31976318359375,0.0152587890625,0.95904541015625
1629797560633,0.32275390625,0.01348876953125,0.95953369140625
1629797560633,0.31890869140625,0.018310546875,0.96380615234375
1629797560633,0.31707763671875,0.01416015625,0.9573974609375
1629797560633,0.31707763671875,0.0130615234375,0.9610595703125
1629797560648,0.32177734375,0.015625,0.96002197265625
1629797560883,0.3170166015625,0.01416015625,0.958251953125
1629797560883,0.3155517578125,0.01312255859375,0.9603271484375
1629797560883,0.31793212890625,0.013916015625,0.9591064453125
1629797560976,0.31573486328125,0.01312255859375,0.95684814453125
1629797560976,0.31591796875,0.011474609375,0.9560546875
1629797560992,0.31683349609375,0.01177978515625,0.95294189453125
1629797561023,0.31793212890625,0.009765625,0.95465087890625
1629797561023,0.31939697265625,0.01190185546875,0.95452880859375
1629797561023,0.32244873046875,0.00885009765625,0.955078125
1629797561039,0.32354736328125,0.0068359375,0.9571533203125
1629797561055,0.32513427734375,0.00909423828125,0.96044921875
1629797561055,0.323974609375,0.0091552734375,0.96026611328125
1629797561086,0.328125,0.00927734375,0.95660400390625
1629797561086,0.32257080078125,0.00677490234375,0.9552001953125
1629797561086,0.32757568359375,0.005859375,0.9564208984375
1629797561195,0.325439453125,0.00457763671875,0.95611572265625
1629797561195,0.3275146484375,0.00634765625,0.95556640625
1629797561211,0.32763671875,0.00604248046875,0.9598388671875
1629797561242,0.32672119140625,0.006591796875,0.95672607421875
1629797561242,0.32366943359375,0.00408935546875,0.9586181640625
1629797561242,0.326416015625,0.00567626953125,0.96051025390625
1629797561242,0.32208251953125,0.00457763671875,0.95916748046875
1629797561258,0.32061767578125,0.00518798828125,0.95428466796875
1629797561258,0.32012939453125,0.00579833984375,0.95782470703125
1629797561304,0.31829833984375,0.00360107421875,0.9530029296875
1629797561304,0.31744384765625,0.00067138671875,0.95208740234375
1629797561304,0.31640625,0.00408935546875,0.94818115234375
1629797561336,0.31854248046875,0.0028076171875,0.95538330078125
1629797561336,0.31939697265625,0.0032958984375,0.95794677734375
1629797561351,0.32318115234375,0.0057373046875,0.96099853515625
1629797561367,0.32403564453125,0.00762939453125,0.95623779296875
1629797561367,0.32061767578125,0.0068359375,0.96112060546875
1629797561367,0.32080078125,0.0079345703125,0.95855712890625
1629797561383,0.31744384765625,0.00775146484375,0.95672607421875
1629797561398,0.31915283203125,0.0074462890625,0.95751953125
1629797561398,0.31732177734375,0.010498046875,0.95513916015625
1629797561414,0.312744140625,0.0045166015625,0.96112060546875
1629797561414,0.315185546875,0.01190185546875,0.95721435546875
1629797561414,0.3157958984375,0.00653076171875,0.9591064453125
1629797561492,0.31884765625,0.0064697265625,0.95751953125
1629797561492,0.3165283203125,0.0108642578125,0.95770263671875
1629797561492,0.31805419921875,0.005615234375,0.95849609375
1629797561492,0.31610107421875,0.008056640625,0.95806884765625
1629797561492,0.31951904296875,0.00860595703125,0.9600830078125
1629797561508,0.3162841796875,0.01019287109375,0.95574951171875
1629797561523,0.322509765625,0.0125732421875,0.9578857421875
1629797561523,0.317138671875,0.0133056640625,0.9580078125
1629797561523,0.3199462890625,0.0152587890625,0.9591064453125
1629797561617,0.3212890625,0.0106201171875,0.95947265625
1629797561617,0.32220458984375,0.0146484375,0.95684814453125
1629797561617,0.322265625,0.0115966796875,0.9569091796875
1629797561633,0.32391357421875,0.0111083984375,0.9580078125
1629797561648,0.32061767578125,0.01300048828125,0.95880126953125
1629797561648,0.320068359375,0.01324462890625,0.96258544921875
1629797561726,0.321044921875,0.0147705078125,0.9561767578125
1629797561726,0.3197021484375,0.01019287109375,0.9564208984375
1629797561726,0.32537841796875,0.01177978515625,0.95599365234375
1629797561851,0.32073974609375,0.01080322265625,0.95794677734375
1629797561851,0.32098388671875,0.013427734375,0.954833984375
1629797561851,0.322998046875,0.01153564453125,0.95513916015625
1629797562007,0.3236083984375,0.01324462890625,0.958740234375
1629797562007,0.3232421875,0.00946044921875,0.95391845703125
1629797562007,0.32421875,0.010986328125,0.957275390625
1629797562086,0.32012939453125,0.007568359375,0.9581298828125
1629797562086,0.32037353515625,0.01031494140625,0.95892333984375
1629797562086,0.32647705078125,0.010986328125,0.9595947265625
1629797562101,0.32427978515625,0.00634765625,0.95538330078125
1629797562101,0.3233642578125,0.00994873046875,0.957275390625
1629797562101,0.31982421875,0.008544921875,0.959716796875
1629797562148,0.32049560546875,0.01434326171875,0.95880126953125
1629797562148,0.321533203125,0.01226806640625,0.9569091796875
1629797562148,0.321044921875,0.01275634765625,0.95904541015625
1629797562148,0.32598876953125,0.00946044921875,0.9588623046875
1629797562148,0.32244873046875,0.01324462890625,0.9600830078125
1629797562148,0.31890869140625,0.01165771484375,0.95977783203125
1629797562320,0.31689453125,0.003662109375,0.95465087890625
1629797562320,0.31689453125,0.0068359375,0.95477294921875
1629797562320,0.318115234375,0.0074462890625,0.955322265625
1629797562539,0.322265625,0.00341796875,0.96075439453125
1629797562539,0.31854248046875,0.0050048828125,0.95458984375
1629797562539,0.32080078125,0.005126953125,0.958251953125
1629797562570,0.32415771484375,0.0059814453125,0.9627685546875
1629797562570,0.3218994140625,0.01080322265625,0.95965576171875
1629797562570,0.322998046875,0.0107421875,0.96453857421875
1629797562648,0.32476806640625,0.00909423828125,0.9578857421875
1629797562648,0.32470703125,0.0126953125,0.958740234375
1629797562664,0.3218994140625,0.01092529296875,0.956298828125
1629797562695,0.31805419921875,0.006591796875,0.95257568359375
1629797562695,0.3175048828125,0.00775146484375,0.9591064453125
1629797562695,0.31793212890625,0.00616455078125,0.95611572265625
1629797562695,0.3179931640625,0.00787353515625,0.95965576171875
1629797562695,0.31982421875,0.00714111328125,0.956787109375
1629797562695,0.3184814453125,0.00775146484375,0.95904541015625
1629797562695,0.31658935546875,0.0087890625,0.957763671875
1629797562695,0.31915283203125,0.00848388671875,0.95941162109375
1629797562695,0.31744384765625,0.009033203125,0.95465087890625
1629797562773,0.31524658203125,0.00946044921875,0.95501708984375
1629797562773,0.31573486328125,0.00885009765625,0.9576416015625
1629797562773,0.31500244140625,0.01153564453125,0.95550537109375
1629797563054,0.31488037109375,0.00726318359375,0.95672607421875
1629797563054,0.31829833984375,0.01422119140625,0.956787109375
1629797563054,0.3175048828125,0.01397705078125,0.9561767578125
1629797563135,0.3170166015625,0.01422119140625,0.95782470703125
1629797563135,0.31658935546875,0.01080322265625,0.9598388671875
1629797563135,0.314453125,0.0135498046875,0.95928955078125
1629797563150,0.3165283203125,0.010009765625,0.9569091796875
1629797563150,0.31500244140625,0.014892578125,0.9593505859375
1629797563150,0.319580078125,0.01171875,0.9603271484375
1629797563166,0.31793212890625,0.0108642578125,0.9578857421875
1629797563166,0.31878662109375,0.01409912109375,0.96099853515625
1629797563166,0.3187255859375,0.01361083984375,0.958740234375
1629797563166,0.320556640625,0.014892578125,0.95843505859375
1629797563166,0.31988525390625,0.01513671875,0.95880126953125
1629797563166,0.31689453125,0.01409912109375,0.9591064453125
1629797563197,0.32171630859375,0.01123046875,0.95892333984375
1629797563197,0.31689453125,0.0135498046875,0.959716796875
1629797563213,0.31549072265625,0.01300048828125,0.95849609375
1629797563244,0.31829833984375,0.01202392578125,0.96124267578125
1629797563260,0.31219482421875,0.007568359375,0.95062255859375
1629797563260,0.313720703125,0.01043701171875,0.9583740234375
1629797563369,0.31671142578125,0.0062255859375,0.9505615234375
1629797563369,0.31610107421875,0.00732421875,0.9588623046875
1629797563369,0.31964111328125,0.00555419921875,0.96063232421875
1629797563463,0.31658935546875,0.00726318359375,0.9554443359375
1629797563479,0.31549072265625,0.00982666015625,0.95843505859375
1629797563479,0.31451416015625,0.0091552734375,0.95843505859375
1629797563510,0.314697265625,0.00787353515625,0.95782470703125
1629797563510,0.31146240234375,0.01116943359375,0.9559326171875
1629797563510,0.312744140625,0.00994873046875,0.95343017578125
1629797563619,0.31146240234375,0.0086669921875,0.95513916015625
1629797563619,0.31610107421875,0.01092529296875,0.962646484375
1629797563619,0.31103515625,0.01300048828125,0.95709228515625
1629797563650,0.3179931640625,0.00469970703125,0.96148681640625
1629797563650,0.31805419921875,0.010498046875,0.96307373046875
1629797563650,0.31884765625,0.0087890625,0.96075439453125
1629797563713,0.317138671875,0.000244140625,0.95947265625
1629797563713,0.31719970703125,0.00604248046875,0.9617919921875
1629797563713,0.31787109375,0.0064697265625,0.95867919921875
1629797563744,0.3128662109375,0.005126953125,0.95599365234375
1629797563744,0.32025146484375,0.00177001953125,0.95989990234375
1629797563744,0.3148193359375,0.0035400390625,0.96026611328125
1629797563744,0.31695556640625,0.00140380859375,0.96514892578125
1629797563744,0.3150634765625,0.0047607421875,0.95294189453125
1629797563744,0.31610107421875,0.00250244140625,0.95758056640625
1629797563806,0.3150634765625,0.0087890625,0.95855712890625
1629797563806,0.31439208984375,0.005126953125,0.95306396484375
1629797563822,0.31512451171875,0.01068115234375,0.95361328125
1629797563822,0.31195068359375,0.01275634765625,0.956298828125
1629797563822,0.31591796875,0.01141357421875,0.9573974609375
1629797563822,0.31890869140625,0.0150146484375,0.96112060546875
1629797563963,0.3194580078125,0.01153564453125,0.962158203125
1629797563963,0.320556640625,0.0091552734375,0.9593505859375
1629797563963,0.32086181640625,0.00433349609375,0.95947265625
1629797564041,0.32080078125,-0.0045166015625,0.9561767578125
1629797564056,0.31842041015625,-0.00018310546875,0.959716796875
1629797564056,0.31842041015625,0.0028076171875,0.957763671875
1629797564181,0.31768798828125,-0.00836181640625,0.9576416015625
1629797564181,0.32147216796875,-0.0093994140625,0.960205078125
1629797564181,0.3173828125,-0.00537109375,0.9588623046875
1629797564197,0.31427001953125,-0.00933837890625,0.9566650390625
1629797564197,0.3173828125,-0.01141357421875,0.95574951171875
1629797564197,0.3165283203125,-0.0147705078125,0.9522705078125
1629797564197,0.312255859375,-0.010986328125,0.95697021484375
1629797564197,0.3154296875,-0.01043701171875,0.95654296875
1629797564197,0.3138427734375,-0.00946044921875,0.95660400390625
1629797564244,0.31781005859375,-0.01361083984375,0.953125
1629797564244,0.318115234375,-0.01007080078125,0.958740234375
1629797564244,0.32293701171875,-0.013916015625,0.96295166015625
1629797564291,0.326171875,-0.01220703125,0.96087646484375
1629797564291,0.3267822265625,-0.01763916015625,0.9625244140625
1629797564291,0.32666015625,-0.015380859375,0.9591064453125
1629797564306,0.32098388671875,-0.01739501953125,0.96142578125
1629797564306,0.3211669921875,-0.02471923828125,0.95562744140625
1629797564306,0.31256103515625,-0.02935791015625,0.95086669921875
1629797564306,0.318359375,-0.0272216796875,0.95477294921875
1629797564306,0.32537841796875,-0.01605224609375,0.95867919921875
1629797564306,0.31866455078125,-0.02325439453125,0.95880126953125
1629797564400,0.31109619140625,-0.03118896484375,0.94964599609375
1629797564400,0.311767578125,-0.03094482421875,0.95355224609375
1629797564400,0.31561279296875,-0.031494140625,0.9490966796875
1629797564416,0.3155517578125,-0.0364990234375,0.95794677734375
1629797564416,0.31689453125,-0.0367431640625,0.956787109375
1629797564416,0.31610107421875,-0.0350341796875,0.9578857421875
1629797564431,0.31988525390625,-0.037109375,0.9566650390625
1629797564431,0.3197021484375,-0.0394287109375,0.9578857421875
1629797564431,0.3204345703125,-0.0390625,0.9591064453125
1629797564525,0.32220458984375,-0.03790283203125,0.956298828125
1629797564525,0.3211669921875,-0.036865234375,0.95751953125
1629797564525,0.32135009765625,-0.040771484375,0.95489501953125
1629797564541,0.3214111328125,-0.0406494140625,0.95721435546875
1629797564541,0.31866455078125,-0.0455322265625,0.958740234375
1629797564541,0.31884765625,-0.04345703125,0.95465087890625
1629797564603,0.32025146484375,-0.0526123046875,0.95477294921875
1629797564619,0.314453125,-0.05157470703125,0.951171875
1629797564619,0.31964111328125,-0.05010986328125,0.9586181640625
1629797564650,0.316650390625,-0.05999755859375,0.9503173828125
1629797564650,0.313720703125,-0.05413818359375,0.95330810546875
1629797564650,0.31610107421875,-0.059326171875,0.95257568359375
1629797564697,0.318603515625,-0.0621337890625,0.95074462890625
1629797564713,0.3204345703125,-0.07080078125,0.9517822265625
1629797564713,0.32135009765625,-0.06829833984375,0.95269775390625
1629797564728,0.32550048828125,-0.07952880859375,0.956298828125
1629797564744,0.32354736328125,-0.0726318359375,0.9549560546875
1629797564744,0.32427978515625,-0.0736083984375,0.9554443359375
1629797564869,0.32586669921875,-0.07745361328125,0.953125
1629797564869,0.3251953125,-0.0809326171875,0.95257568359375
1629797564869,0.325927734375,-0.07659912109375,0.95635986328125
1629797564918,0.3240966796875,-0.0806884765625,0.95318603515625
1629797564918,0.31878662109375,-0.0804443359375,0.95233154296875
1629797564918,0.32623291015625,-0.0816650390625,0.95599365234375
1629797564934,0.32025146484375,-0.0791015625,0.9517822265625
1629797564950,0.32000732421875,-0.084716796875,0.953125
1629797564950,0.323486328125,-0.07623291015625,0.9522705078125
1629797564981,0.3173828125,-0.08477783203125,0.95654296875
1629797564981,0.31646728515625,-0.08807373046875,0.95050048828125
1629797564981,0.31854248046875,-0.08551025390625,0.95355224609375
1629797564996,0.32000732421875,-0.0909423828125,0.9503173828125
1629797564996,0.3206787109375,-0.09027099609375,0.9515380859375
1629797565012,0.318603515625,-0.09381103515625,0.95526123046875
1629797565153,0.3211669921875,-0.09326171875,0.952880859375
1629797565153,0.32293701171875,-0.0927734375,0.95269775390625
1629797565153,0.32452392578125,-0.0963134765625,0.95245361328125
1629797565200,0.3209228515625,-0.09088134765625,0.95416259765625
1629797565200,0.32366943359375,-0.0877685546875,0.9508056640625
1629797565200,0.32183837890625,-0.08929443359375,0.951904296875
1629797565231,0.31787109375,-0.086669921875,0.95458984375
1629797565231,0.31927490234375,-0.08843994140625,0.95550537109375
1629797565246,0.31719970703125,-0.08538818359375,0.95074462890625
1629797565278,0.3194580078125,-0.0826416015625,0.95245361328125
1629797565278,0.31524658203125,-0.08599853515625,0.95245361328125
1629797565278,0.31610107421875,-0.0877685546875,0.9537353515625
1629797565293,0.31524658203125,-0.08758544921875,0.9508056640625
1629797565293,0.3170166015625,-0.085205078125,0.95220947265625
1629797565293,0.31768798828125,-0.089111328125,0.9517822265625
1629797565403,0.32177734375,-0.08612060546875,0.9525146484375
1629797565403,0.318115234375,-0.0877685546875,0.9544677734375
1629797565403,0.32073974609375,-0.08990478515625,0.9534912109375
1629797565434,0.31878662109375,-0.08392333984375,0.9542236328125
1629797565434,0.32208251953125,-0.08544921875,0.95062255859375
1629797565434,0.31878662109375,-0.0821533203125,0.9541015625
1629797565512,0.318359375,-0.09600830078125,0.95172119140625
1629797565512,0.3197021484375,-0.0872802734375,0.953857421875
1629797565512,0.32037353515625,-0.0892333984375,0.95086669921875
1629797565574,0.3172607421875,-0.09521484375,0.95074462890625
1629797565574,0.31976318359375,-0.0921630859375,0.94964599609375
1629797565574,0.31903076171875,-0.09454345703125,0.95159912109375
1629797565715,0.3175048828125,-0.0941162109375,0.954345703125
1629797565715,0.3172607421875,-0.0950927734375,0.95379638671875
1629797565715,0.3201904296875,-0.09149169921875,0.95135498046875
1629797565793,0.3212890625,-0.08465576171875,0.95037841796875
1629797565809,0.32073974609375,-0.08831787109375,0.95086669921875
1629797565809,0.32196044921875,-0.08447265625,0.949951171875
1629797565840,0.322509765625,-0.07501220703125,0.95501708984375
1629797565840,0.32318115234375,-0.07794189453125,0.95257568359375
1629797565840,0.3228759765625,-0.08111572265625,0.9515380859375
1629797565918,0.32574462890625,-0.06512451171875,0.95068359375
1629797565918,0.32427978515625,-0.06866455078125,0.95062255859375
1629797565918,0.3238525390625,-0.06622314453125,0.953857421875
1629797566000,0.32781982421875,-0.06134033203125,0.9554443359375
1629797566000,0.3291015625,-0.064697265625,0.9508056640625
1629797566000,0.32525634765625,-0.060791015625,0.95367431640625
1629797566031,0.32965087890625,-0.0570068359375,0.95513916015625
1629797566031,0.3326416015625,-0.053466796875,0.95196533203125
1629797566031,0.33013916015625,-0.055419921875,0.9532470703125
1629797566062,0.32696533203125,-0.04736328125,0.958740234375
1629797566062,0.32879638671875,-0.050048828125,0.95513916015625
1629797566062,0.32513427734375,-0.04833984375,0.9549560546875
1629797566156,0.323486328125,-0.04681396484375,0.9481201171875
1629797566156,0.32867431640625,-0.04559326171875,0.94970703125
1629797566156,0.32440185546875,-0.04296875,0.95245361328125
1629797566344,0.33026123046875,-0.038330078125,0.95343017578125
1629797566344,0.3267822265625,-0.043701171875,0.9505615234375
1629797566344,0.33056640625,-0.04656982421875,0.9525146484375
1629797566359,0.3309326171875,-0.0400390625,0.9569091796875
1629797566359,0.3309326171875,-0.0313720703125,0.9556884765625
1629797566359,0.32952880859375,-0.0377197265625,0.95404052734375
1629797566374,0.3299560546875,-0.021484375,0.9552001953125
1629797566374,0.3267822265625,-0.01922607421875,0.9534912109375
1629797566374,0.327880859375,-0.02874755859375,0.9544677734375
1629797566453,0.3243408203125,-0.01776123046875,0.95733642578125
1629797566453,0.3284912109375,-0.019287109375,0.9522705078125
