timestamp,ax,ay,az
1629880721641,-0.35443115234375,0.1243896484375,0.929931640625
1629880721657,-0.34649658203125,0.12225341796875,0.94854736328125
1629880721657,-0.3499755859375,0.12481689453125,0.9339599609375
1629880721673,-0.36846923828125,0.121826171875,0.9151611328125
1629880721673,-0.3720703125,0.11724853515625,0.90618896484375
1629880721673,-0.36505126953125,0.12506103515625,0.92559814453125
1629880721751,-0.38128662109375,0.1151123046875,0.9124755859375
1629880721766,-0.3865966796875,0.115966796875,0.9163818359375
1629880721766,-0.38348388671875,0.11248779296875,0.91009521484375
1629880721798,-0.39166259765625,0.12799072265625,0.907958984375
1629880721798,-0.3916015625,0.1221923828125,0.9097900390625
1629880721798,-0.39617919921875,0.1312255859375,0.89569091796875
1629880721891,-0.4083251953125,0.0982666015625,0.88519287109375
1629880721891,-0.4058837890625,0.1141357421875,0.88824462890625
1629880721891,-0.40838623046875,0.0975341796875,0.87835693359375
1629880721907,-0.4046630859375,0.1270751953125,0.8935546875
1629880721907,-0.39898681640625,0.13287353515625,0.89654541015625
1629880721907,-0.39923095703125,0.077880859375,0.87213134765625
1629880722001,-0.40460205078125,0.04339599609375,0.872314453125
1629880722001,-0.42333984375,0.0023193359375,0.89068603515625
1629880722001,-0.41162109375,0.02020263671875,0.88568115234375
1629880722032,-0.43109130859375,-0.0064697265625,0.89825439453125
1629880722032,-0.43133544921875,0.00909423828125,0.88604736328125
1629880722032,-0.43359375,0.00701904296875,0.89007568359375
1629880722141,-0.43341064453125,0.0206298828125,0.8922119140625
1629880722157,-0.43218994140625,0.0396728515625,0.90576171875
1629880722157,-0.4388427734375,0.0330810546875,0.903076171875
1629880722173,-0.43341064453125,0.04022216796875,0.90081787109375
1629880722188,-0.42333984375,0.05450439453125,0.88470458984375
1629880722188,-0.42718505859375,0.044921875,0.8948974609375
1629880722219,-0.4193115234375,0.060546875,0.8896484375
1629880722219,-0.4208984375,0.05438232421875,0.88067626953125
1629880722235,-0.42047119140625,0.06427001953125,0.89215087890625
1629880722266,-0.42071533203125,0.06158447265625,0.884033203125
1629880722282,-0.419189453125,0.0517578125,0.881591796875
1629880722282,-0.42266845703125,0.05572509765625,0.8834228515625
1629880722360,-0.412841796875,0.05340576171875,0.8819580078125
1629880722376,-0.41119384765625,0.0750732421875,0.88153076171875
1629880722376,-0.41326904296875,0.05670166015625,0.8760986328125
1629880722407,-0.40765380859375,0.1651611328125,0.890625
1629880722407,-0.40838623046875,0.10791015625,0.88800048828125
1629880722407,-0.40924072265625,0.14044189453125,0.89178466796875
1629880722438,-0.3980712890625,0.18060302734375,0.89056396484375
1629880722438,-0.394775390625,0.16632080078125,0.8935546875
1629880722454,-0.402099609375,0.17669677734375,0.89080810546875
1629880722501,-0.3740234375,0.12225341796875,0.902099609375
1629880722501,-0.3883056640625,0.15606689453125,0.89691162109375
1629880722501,-0.3782958984375,0.1422119140625,0.89556884765625
1629880722563,-0.35943603515625,0.08782958984375,0.90765380859375
1629880722563,-0.35546875,0.0830078125,0.913330078125
1629880722579,-0.3651123046875,0.10394287109375,0.902099609375
1629880722647,-0.35577392578125,0.0587158203125,0.9442138671875
1629880722663,-0.35430908203125,0.0682373046875,0.93914794921875
1629880722663,-0.3529052734375,0.07421875,0.92840576171875
1629880722725,-0.34637451171875,0.0548095703125,0.9613037109375
1629880722725,-0.345458984375,0.05322265625,0.93756103515625
1629880722725,-0.34228515625,0.05584716796875,0.95074462890625
1629880722756,-0.3489990234375,0.05462646484375,0.97357177734375
1629880722756,-0.3536376953125,0.049072265625,0.97528076171875
1629880722756,-0.35723876953125,0.04803466796875,0.96734619140625
1629880722788,-0.36566162109375,0.0406494140625,0.94549560546875
1629880722788,-0.357421875,0.044677734375,0.957275390625
1629880722788,-0.365234375,0.04241943359375,0.9349365234375
1629880722835,-0.369384765625,0.04241943359375,0.9232177734375
1629880722835,-0.37200927734375,0.03857421875,0.9100341796875
1629880722850,-0.3741455078125,0.03546142578125,0.90521240234375
1629880722913,-0.37652587890625,0.0494384765625,0.89276123046875
1629880722913,-0.3812255859375,0.0572509765625,0.89208984375
1629880722913,-0.37603759765625,0.0426025390625,0.89581298828125
1629880722991,-0.36962890625,0.06988525390625,0.88726806640625
1629880722991,-0.3775634765625,0.06085205078125,0.89532470703125
1629880722991,-0.379638671875,0.0606689453125,0.89813232421875
1629880723069,-0.3619384765625,0.0775146484375,0.893310546875
1629880723069,-0.35052490234375,0.09490966796875,0.9014892578125
1629880723084,-0.35919189453125,0.08331298828125,0.89898681640625
1629880723100,-0.343017578125,0.10443115234375,0.90032958984375
1629880723100,-0.33648681640625,0.10443115234375,0.90325927734375
1629880723100,-0.328857421875,0.1016845703125,0.9195556640625
1629880723225,-0.34661865234375,0.09002685546875,0.98162841796875
1629880723225,-0.35162353515625,0.0858154296875,0.9986572265625
1629880723225,-0.3309326171875,0.0985107421875,0.95037841796875
1629880723256,-0.34710693359375,0.082763671875,0.983154296875
1629880723256,-0.3309326171875,0.0504150390625,0.9398193359375
1629880723256,-0.3336181640625,0.0721435546875,0.9476318359375
1629880723272,-0.358642578125,0.01708984375,0.954833984375
1629880723272,-0.35186767578125,0.02191162109375,0.95550537109375
1629880723272,-0.3389892578125,0.02996826171875,0.944580078125
1629880723350,-0.3583984375,0.01715087890625,0.94769287109375
1629880723350,-0.358642578125,0.011962890625,0.929931640625
1629880723366,-0.36688232421875,0.0225830078125,0.9259033203125
1629880723381,-0.3773193359375,0.0516357421875,0.904052734375
1629880723397,-0.37481689453125,0.0419921875,0.91168212890625
1629880723397,-0.36968994140625,0.02789306640625,0.92108154296875
1629880723491,-0.37939453125,0.06085205078125,0.8931884765625
1629880723491,-0.3883056640625,0.0711669921875,0.895751953125
1629880723491,-0.39166259765625,0.07769775390625,0.89398193359375
1629880723522,-0.390869140625,0.09515380859375,0.8837890625
1629880723522,-0.3896484375,0.08209228515625,0.8839111328125
1629880723522,-0.39227294921875,0.0921630859375,0.880126953125
1629880723569,-0.38232421875,0.08868408203125,0.89593505859375
1629880723569,-0.37725830078125,0.08428955078125,0.8988037109375
1629880723584,-0.38720703125,0.09857177734375,0.8883056640625
1629880723647,-0.36956787109375,0.07257080078125,0.90655517578125
1629880723647,-0.37298583984375,0.06915283203125,0.92144775390625
1629880723648,-0.3739013671875,0.06365966796875,0.9327392578125
1629880723669,-0.36407470703125,0.05487060546875,0.93267822265625
1629880723669,-0.36480712890625,0.05291748046875,0.94085693359375
1629880723685,-0.36798095703125,0.059326171875,0.92706298828125
1629880723779,-0.3580322265625,0.04486083984375,0.93743896484375
1629880723794,-0.362548828125,0.04901123046875,0.94171142578125
1629880723794,-0.3583984375,0.04376220703125,0.94146728515625
1629880723810,-0.36065673828125,0.04559326171875,0.93389892578125
1629880723810,-0.3587646484375,0.04339599609375,0.92608642578125
1629880723826,-0.35955810546875,0.0445556640625,0.92083740234375
1629880723872,-0.3670654296875,0.04583740234375,0.91986083984375
1629880723872,-0.370849609375,0.04901123046875,0.9154052734375
1629880723872,-0.36151123046875,0.0472412109375,0.91864013671875
1629880723935,-0.364013671875,0.05267333984375,0.9102783203125
1629880723935,-0.365966796875,0.05572509765625,0.90777587890625
1629880723935,-0.3616943359375,0.0550537109375,0.90826416015625
1629880723997,-0.36614990234375,0.05584716796875,0.91619873046875
1629880723997,-0.36688232421875,0.05145263671875,0.91595458984375
1629880723997,-0.3629150390625,0.05609130859375,0.91851806640625
1629880724091,-0.3642578125,0.0606689453125,0.921142578125
1629880724107,-0.36407470703125,0.0634765625,0.92791748046875
1629880724107,-0.35906982421875,0.0616455078125,0.92218017578125
1629880724138,-0.35888671875,0.0640869140625,0.93658447265625
1629880724154,-0.35498046875,0.06268310546875,0.93170166015625
1629880724154,-0.36212158203125,0.06793212890625,0.93438720703125
1629880724185,-0.35845947265625,0.0579833984375,0.92633056640625
1629880724185,-0.35693359375,0.0618896484375,0.93145751953125
1629880724185,-0.3565673828125,0.06304931640625,0.93792724609375
1629880724247,-0.359375,0.055908203125,0.92596435546875
1629880724263,-0.35809326171875,0.05584716796875,0.920654296875
1629880724263,-0.36248779296875,0.05133056640625,0.918701171875
1629880724294,-0.36102294921875,0.05206298828125,0.91168212890625
1629880724294,-0.3651123046875,0.0499267578125,0.91705322265625
1629880724310,-0.35699462890625,0.0487060546875,0.91046142578125
1629880724372,-0.35882568359375,0.05181884765625,0.92608642578125
1629880724372,-0.360595703125,0.0523681640625,0.921875
1629880724372,-0.3582763671875,0.05242919921875,0.91607666015625
1629880724404,-0.35308837890625,0.06170654296875,0.92706298828125
1629880724404,-0.3570556640625,0.0594482421875,0.92071533203125
1629880724419,-0.3607177734375,0.051513671875,0.92327880859375
1629880724450,-0.35345458984375,0.06298828125,0.9296875
1629880724466,-0.35321044921875,0.0631103515625,0.93017578125
1629880724466,-0.35528564453125,0.06683349609375,0.93206787109375
1629880724513,-0.35394287109375,0.0615234375,0.929443359375
1629880724529,-0.35516357421875,0.06219482421875,0.931640625
1629880724529,-0.35369873046875,0.0552978515625,0.93121337890625
1629880724591,-0.35760498046875,0.0489501953125,0.92926025390625
1629880724591,-0.36138916015625,0.04827880859375,0.9342041015625
1629880724607,-0.35693359375,0.05364990234375,0.93341064453125
1629880724622,-0.36041259765625,0.04656982421875,0.9228515625
1629880724622,-0.35772705078125,0.0528564453125,0.92291259765625
1629880724622,-0.35968017578125,0.04443359375,0.9154052734375
1629880724735,-0.366455078125,0.05035400390625,0.91802978515625
1629880724735,-0.36224365234375,0.045654296875,0.91851806640625
1629880724735,-0.3641357421875,0.04583740234375,0.91778564453125
1629880724766,-0.35894775390625,0.049072265625,0.916015625
1629880724782,-0.36322021484375,0.054443359375,0.92138671875
1629880724782,-0.36358642578125,0.0584716796875,0.926025390625
1629880724829,-0.35931396484375,0.066162109375,0.92529296875
1629880724829,-0.36102294921875,0.063720703125,0.92340087890625
1629880724829,-0.35845947265625,0.06475830078125,0.92083740234375
1629880724860,-0.35791015625,0.0654296875,0.92706298828125
1629880724860,-0.36236572265625,0.0684814453125,0.92767333984375
1629880724876,-0.35626220703125,0.06634521484375,0.92645263671875
1629880724922,-0.35858154296875,0.05621337890625,0.93048095703125
1629880724922,-0.35693359375,0.0567626953125,0.93121337890625
1629880724938,-0.357666015625,0.06005859375,0.92852783203125
1629880724985,-0.3597412109375,0.05364990234375,0.92340087890625
1629880725001,-0.35736083984375,0.05218505859375,0.92144775390625
1629880725001,-0.36358642578125,0.0511474609375,0.9232177734375
1629880725063,-0.36309814453125,0.05596923828125,0.91876220703125
1629880725063,-0.3643798828125,0.05462646484375,0.9234619140625
1629880725063,-0.363037109375,0.0513916015625,0.92535400390625
1629880725126,-0.36737060546875,0.05816650390625,0.91717529296875
1629880725126,-0.36688232421875,0.05230712890625,0.915771484375
1629880725126,-0.36553955078125,0.05718994140625,0.91693115234375
1629880725157,-0.36834716796875,0.0614013671875,0.9185791015625
1629880725157,-0.36895751953125,0.06451416015625,0.92523193359375
1629880725157,-0.36749267578125,0.0692138671875,0.91424560546875
1629880725251,-0.36602783203125,0.0711669921875,0.9124755859375
1629880725266,-0.37109375,0.068603515625,0.912841796875
1629880725266,-0.367919921875,0.067626953125,0.913330078125
1629880725329,-0.36370849609375,0.06390380859375,0.9210205078125
1629880725329,-0.36712646484375,0.06243896484375,0.927978515625
1629880725329,-0.3638916015625,0.0655517578125,0.9136962890625
1629880725360,-0.3624267578125,0.0595703125,0.92974853515625
1629880725360,-0.36309814453125,0.0531005859375,0.92877197265625
1629880725360,-0.36376953125,0.0567626953125,0.92474365234375
1629880725422,-0.3609619140625,0.04608154296875,0.92608642578125
1629880725422,-0.3636474609375,0.04400634765625,0.9227294921875
1629880725422,-0.365966796875,0.05047607421875,0.92645263671875
1629880725500,-0.36505126953125,0.045654296875,0.9163818359375
1629880725500,-0.36419677734375,0.056884765625,0.918212890625
1629880725500,-0.36407470703125,0.0518798828125,0.91485595703125
1629880725516,-0.36566162109375,0.0718994140625,0.9234619140625
1629880725516,-0.3665771484375,0.0653076171875,0.92352294921875
1629880725516,-0.36651611328125,0.0633544921875,0.92059326171875
1629880725579,-0.36749267578125,0.06805419921875,0.9239501953125
1629880725579,-0.3668212890625,0.0704345703125,0.926513671875
1629880725579,-0.3670654296875,0.06243896484375,0.9207763671875
1629880725657,-0.36920166015625,0.05841064453125,0.92059326171875
1629880725657,-0.36993408203125,0.0565185546875,0.9200439453125
1629880725657,-0.36651611328125,0.04925537109375,0.91943359375
1629880725689,-0.366455078125,0.0501708984375,0.91021728515625
1629880725704,-0.36962890625,0.0589599609375,0.91412353515625
1629880725704,-0.3719482421875,0.0531005859375,0.91015625
1629880725784,-0.36346435546875,0.06610107421875,0.9200439453125
1629880725784,-0.36883544921875,0.06207275390625,0.91949462890625
1629880725784,-0.3702392578125,0.06231689453125,0.918701171875
1629880725800,-0.36785888671875,0.06390380859375,0.9193115234375
1629880725800,-0.370361328125,0.0560302734375,0.9200439453125
1629880725800,-0.3662109375,0.06268310546875,0.91949462890625
1629880725925,-0.3680419921875,0.04913330078125,0.92205810546875
1629880725925,-0.36962890625,0.051025390625,0.9224853515625
1629880725925,-0.36749267578125,0.052001953125,0.921630859375
1629880725940,-0.36236572265625,0.047119140625,0.91778564453125
1629880725956,-0.3680419921875,0.04412841796875,0.9195556640625
1629880725956,-0.36700439453125,0.0458984375,0.92071533203125
1629880725987,-0.363525390625,0.053955078125,0.92041015625
1629880725987,-0.3648681640625,0.05157470703125,0.91900634765625
1629880725987,-0.367919921875,0.0469970703125,0.92156982421875
1629880726050,-0.36627197265625,0.0582275390625,0.92559814453125
1629880726050,-0.37103271484375,0.05328369140625,0.92218017578125
1629880726065,-0.369384765625,0.0535888671875,0.9227294921875
1629880726081,-0.365966796875,0.056640625,0.9178466796875
1629880726096,-0.363525390625,0.0587158203125,0.9139404296875
1629880726096,-0.36578369140625,0.05816650390625,0.9163818359375
1629880726159,-0.36651611328125,0.06817626953125,0.91925048828125
1629880726159,-0.3687744140625,0.062255859375,0.919189453125
1629880726175,-0.36663818359375,0.06072998046875,0.91851806640625
1629880726206,-0.362548828125,0.0677490234375,0.924560546875
1629880726221,-0.36724853515625,0.06488037109375,0.92364501953125
1629880726221,-0.36578369140625,0.0655517578125,0.9212646484375
1629880726268,-0.36700439453125,0.06488037109375,0.9215087890625
1629880726284,-0.36444091796875,0.0634765625,0.92266845703125
1629880726284,-0.36761474609375,0.0635986328125,0.9215087890625
1629880726378,-0.3665771484375,0.06207275390625,0.92230224609375
1629880726378,-0.36822509765625,0.06280517578125,0.920654296875
1629880726378,-0.3687744140625,0.06109619140625,0.9217529296875
1629880726378,-0.37060546875,0.06842041015625,0.9229736328125
1629880726393,-0.3729248046875,0.0657958984375,0.9189453125
1629880726393,-0.36676025390625,0.06494140625,0.91790771484375
1629880726440,-0.37261962890625,0.0657958984375,0.91607666015625
1629880726456,-0.37060546875,0.06829833984375,0.9171142578125
1629880726456,-0.37103271484375,0.066650390625,0.91876220703125
1629880726529,-0.370361328125,0.07110595703125,0.91180419921875
1629880726529,-0.37432861328125,0.06915283203125,0.91552734375
1629880726529,-0.37432861328125,0.068603515625,0.9141845703125
1629880726576,-0.37103271484375,0.0711669921875,0.91534423828125
1629880726576,-0.37457275390625,0.07037353515625,0.9151611328125
1629880726591,-0.37322998046875,0.06573486328125,0.9173583984375
1629880726638,-0.373291015625,0.0755615234375,0.914306640625
1629880726654,-0.37371826171875,0.07366943359375,0.917236328125
1629880726654,-0.3734130859375,0.0721435546875,0.91180419921875
1629880726734,-0.3743896484375,0.0750732421875,0.919921875
1629880726750,-0.37347412109375,0.07757568359375,0.91943359375
1629880726750,-0.376220703125,0.0784912109375,0.918212890625
1629880726780,-0.375732421875,0.07373046875,0.9163818359375
1629880726781,-0.37200927734375,0.07098388671875,0.91888427734375
1629880726781,-0.37066650390625,0.07379150390625,0.9166259765625
1629880726858,-0.37054443359375,0.066162109375,0.9185791015625
1629880726858,-0.370849609375,0.0701904296875,0.91424560546875
1629880726858,-0.3717041015625,0.06817626953125,0.913330078125
1629880726904,-0.37164306640625,0.0635986328125,0.91497802734375
1629880726921,-0.37420654296875,0.067138671875,0.91845703125
1629880726921,-0.36944580078125,0.06689453125,0.91815185546875
1629880726937,-0.37091064453125,0.07171630859375,0.91778564453125
1629880726937,-0.37066650390625,0.06170654296875,0.91888427734375
1629880726937,-0.37139892578125,0.06591796875,0.91802978515625
1629880727015,-0.3616943359375,0.058837890625,0.9163818359375
1629880727015,-0.3690185546875,0.056640625,0.92059326171875
1629880727015,-0.3709716796875,0.05908203125,0.91729736328125
1629880727076,-0.363525390625,0.0521240234375,0.91552734375
1629880727091,-0.36212158203125,0.05255126953125,0.917236328125
1629880727093,-0.36492919921875,0.05206298828125,0.9188232421875
1629880727107,-0.359619140625,0.06005859375,0.92486572265625
1629880727107,-0.361328125,0.05706787109375,0.92779541015625
1629880727122,-0.36065673828125,0.062744140625,0.93218994140625
1629880727140,-0.36181640625,0.06158447265625,0.92816162109375
1629880727152,-0.3609619140625,0.06011962890625,0.92913818359375
1629880727152,-0.36297607421875,0.0621337890625,0.93115234375
1629880727230,-0.36260986328125,0.05914306640625,0.92724609375
1629880727230,-0.36480712890625,0.06591796875,0.921875
1629880727230,-0.3634033203125,0.06573486328125,0.921630859375
1629880727296,-0.35699462890625,0.0623779296875,0.9161376953125
1629880727296,-0.36224365234375,0.06689453125,0.91705322265625
1629880727296,-0.36065673828125,0.053955078125,0.918701171875
1629880727339,-0.3623046875,0.04095458984375,0.935546875
1629880727339,-0.35528564453125,0.04644775390625,0.92529296875
1629880727339,-0.359619140625,0.045654296875,0.92919921875
1629880727405,-0.3631591796875,0.04571533203125,0.93658447265625
1629880727420,-0.36016845703125,0.041259765625,0.93499755859375
1629880727421,-0.361328125,0.04034423828125,0.930908203125
1629880727466,-0.36053466796875,0.0379638671875,0.9222412109375
1629880727466,-0.36236572265625,0.03955078125,0.92547607421875
1629880727484,-0.36260986328125,0.046142578125,0.91754150390625
1629880727514,-0.36517333984375,0.04925537109375,0.91619873046875
1629880727515,-0.36627197265625,0.049560546875,0.91192626953125
1629880727515,-0.3685302734375,0.05596923828125,0.91455078125
1629880727575,-0.36871337890625,0.0616455078125,0.9141845703125
1629880727575,-0.36993408203125,0.0595703125,0.9122314453125
1629880727575,-0.36932373046875,0.057373046875,0.91314697265625
1629880727651,-0.374267578125,0.05670166015625,0.9169921875
1629880727651,-0.37078857421875,0.0572509765625,0.91693115234375
1629880727668,-0.37030029296875,0.06005859375,0.91558837890625
1629880727774,-0.3699951171875,0.05755615234375,0.9202880859375
1629880727774,-0.368896484375,0.060302734375,0.92266845703125
1629880727774,-0.3681640625,0.05706787109375,0.919677734375
1629880727774,-0.3719482421875,0.05792236328125,0.91595458984375
1629880727774,-0.37030029296875,0.05841064453125,0.92547607421875
1629880727774,-0.36883544921875,0.05810546875,0.91943359375
1629880727806,-0.36773681640625,0.0616455078125,0.9178466796875
1629880727806,-0.36956787109375,0.0577392578125,0.92095947265625
1629880727819,-0.36627197265625,0.057373046875,0.92236328125
1629880727851,-0.3673095703125,0.0672607421875,0.91827392578125
1629880727866,-0.36920166015625,0.06500244140625,0.91937255859375
1629880727866,-0.36578369140625,0.06488037109375,0.92010498046875
1629880727960,-0.3636474609375,0.07073974609375,0.91973876953125
1629880727961,-0.36505126953125,0.0645751953125,0.921630859375
1629880727961,-0.36358642578125,0.06756591796875,0.91839599609375
1629880727991,-0.3663330078125,0.07177734375,0.92279052734375
1629880727991,-0.36724853515625,0.07379150390625,0.9183349609375
1629880727991,-0.36773681640625,0.0733642578125,0.92266845703125
1629880728022,-0.3656005859375,0.06927490234375,0.919921875
1629880728040,-0.369384765625,0.0738525390625,0.91839599609375
1629880728040,-0.3675537109375,0.069580078125,0.919189453125
1629880728103,-0.36676025390625,0.067626953125,0.92327880859375
1629880728104,-0.36627197265625,0.06964111328125,0.92022705078125
1629880728104,-0.3704833984375,0.06787109375,0.92169189453125
1629880728199,-0.3677978515625,0.07342529296875,0.92144775390625
1629880728217,-0.36700439453125,0.07470703125,0.92388916015625
1629880728217,-0.3677978515625,0.07269287109375,0.92169189453125
1629880728233,-0.370849609375,0.070068359375,0.92510986328125
1629880728233,-0.3720703125,0.0721435546875,0.91845703125
1629880728247,-0.37115478515625,0.073974609375,0.92169189453125
1629880728306,-0.3734130859375,0.0689697265625,0.91851806640625
1629880728309,-0.37353515625,0.074462890625,0.91961669921875
1629880728325,-0.37225341796875,0.0711669921875,0.91705322265625
1629880728369,-0.3739013671875,0.07135009765625,0.913818359375
1629880728385,-0.37640380859375,0.07525634765625,0.91119384765625
1629880728386,-0.3751220703125,0.07318115234375,0.9146728515625
1629880728403,-0.37823486328125,0.08154296875,0.91571044921875
1629880728403,-0.3748779296875,0.07696533203125,0.91485595703125
1629880728405,-0.3778076171875,0.08026123046875,0.91339111328125
1629880728449,-0.380859375,0.0831298828125,0.9146728515625
1629880728449,-0.383056640625,0.08026123046875,0.9124755859375
1629880728465,-0.38311767578125,0.07794189453125,0.9100341796875
1629880728531,-0.38299560546875,0.07635498046875,0.90667724609375
1629880728531,-0.38232421875,0.06854248046875,0.92108154296875
1629880728531,-0.3800048828125,0.07232666015625,0.91632080078125
1629880728576,-0.38262939453125,0.06640625,0.91925048828125
1629880728577,-0.38153076171875,0.06207275390625,0.9178466796875
1629880728577,-0.385986328125,0.06317138671875,0.91796875
1629880728670,-0.385986328125,0.05718994140625,0.9136962890625
1629880728670,-0.3858642578125,0.05908203125,0.91497802734375
1629880728670,-0.3880615234375,0.05743408203125,0.9144287109375
1629880728716,-0.3892822265625,0.0621337890625,0.9061279296875
1629880728716,-0.3907470703125,0.06573486328125,0.9033203125
1629880728717,-0.38916015625,0.05767822265625,0.91058349609375
1629880728748,-0.3917236328125,0.0703125,0.90521240234375
1629880728748,-0.3934326171875,0.062744140625,0.902099609375
1629880728764,-0.39276123046875,0.07147216796875,0.9058837890625
1629880728826,-0.39739990234375,0.0799560546875,0.90826416015625
1629880728826,-0.3931884765625,0.077392578125,0.9056396484375
1629880728826,-0.3951416015625,0.075927734375,0.90667724609375
1629880728873,-0.39666748046875,0.07806396484375,0.9066162109375
1629880728873,-0.39947509765625,0.073486328125,0.90118408203125
1629880728873,-0.39996337890625,0.0703125,0.90130615234375
1629880728941,-0.401611328125,0.06756591796875,0.90472412109375
1629880728941,-0.40155029296875,0.06640625,0.90753173828125
1629880728941,-0.402587890625,0.0623779296875,0.9036865234375
1629880728987,-0.40576171875,0.0672607421875,0.9036865234375
1629880728987,-0.40423583984375,0.07159423828125,0.90032958984375
1629880728987,-0.4027099609375,0.06884765625,0.90106201171875
1629880729034,-0.40283203125,0.07464599609375,0.90557861328125
1629880729034,-0.403076171875,0.07623291015625,0.9071044921875
1629880729034,-0.40545654296875,0.07830810546875,0.90631103515625
1629880729115,-0.40283203125,0.08050537109375,0.9014892578125
1629880729117,-0.40313720703125,0.0794677734375,0.9017333984375
1629880729117,-0.404052734375,0.0789794921875,0.90057373046875
1629880729176,-0.40509033203125,0.07916259765625,0.89593505859375
1629880729176,-0.4053955078125,0.07904052734375,0.8992919921875
1629880729176,-0.4056396484375,0.0765380859375,0.90325927734375
1629880729254,-0.40325927734375,0.0753173828125,0.898193359375
1629880729254,-0.40234375,0.080078125,0.89764404296875
1629880729254,-0.406982421875,0.08154296875,0.89642333984375
1629880729286,-0.40716552734375,0.07379150390625,0.89654541015625
1629880729286,-0.40887451171875,0.0723876953125,0.90155029296875
1629880729286,-0.403076171875,0.071533203125,0.898193359375
1629880729381,-0.40582275390625,0.0684814453125,0.89788818359375
1629880729382,-0.40478515625,0.067138671875,0.90130615234375
1629880729382,-0.40380859375,0.06744384765625,0.9017333984375
1629880729413,-0.40228271484375,0.063720703125,0.9097900390625
1629880729413,-0.40374755859375,0.07183837890625,0.9083251953125
1629880729414,-0.40557861328125,0.07135009765625,0.90673828125
1629880729444,-0.40020751953125,0.06402587890625,0.9052734375
1629880729444,-0.4013671875,0.05841064453125,0.90777587890625
1629880729444,-0.40228271484375,0.05975341796875,0.90625
1629880729522,-0.4005126953125,0.06524658203125,0.90045166015625
1629880729522,-0.4036865234375,0.06378173828125,0.90093994140625
1629880729527,-0.40234375,0.0621337890625,0.89898681640625
1629880729608,-0.396728515625,0.07025146484375,0.89678955078125
1629880729608,-0.40191650390625,0.0726318359375,0.90252685546875
1629880729608,-0.401123046875,0.0684814453125,0.89666748046875
1629880729655,-0.4007568359375,0.0616455078125,0.9052734375
1629880729655,-0.40081787109375,0.0616455078125,0.9061279296875
1629880729655,-0.39990234375,0.0601806640625,0.9019775390625
1629880729717,-0.40179443359375,0.05609130859375,0.90283203125
1629880729717,-0.39947509765625,0.05499267578125,0.90252685546875
1629880729717,-0.395263671875,0.05078125,0.90606689453125
1629880729799,-0.39581298828125,0.06072998046875,0.90814208984375
1629880729799,-0.39923095703125,0.05706787109375,0.90576171875
1629880729800,-0.39691162109375,0.05328369140625,0.90875244140625
1629880729859,-0.39801025390625,0.06561279296875,0.91119384765625
1629880729859,-0.39703369140625,0.06488037109375,0.91192626953125
1629880729859,-0.39556884765625,0.0648193359375,0.90936279296875
1629880729892,-0.39666748046875,0.07080078125,0.908447265625
1629880729892,-0.3990478515625,0.069580078125,0.9080810546875
1629880729892,-0.3955078125,0.069091796875,0.91107177734375
1629880729970,-0.3992919921875,0.0699462890625,0.90399169921875
1629880729970,-0.39910888671875,0.06964111328125,0.9000244140625
1629880729970,-0.39752197265625,0.06689453125,0.90557861328125
1629880730017,-0.400390625,0.067138671875,0.900390625
1629880730017,-0.40155029296875,0.066650390625,0.89801025390625
1629880730017,-0.4027099609375,0.06683349609375,0.8988037109375
1629880730049,-0.40185546875,0.06842041015625,0.904052734375
1629880730049,-0.39959716796875,0.07086181640625,0.90069580078125
1629880730077,-0.4034423828125,0.0667724609375,0.9029541015625
1629880730139,-0.40069580078125,0.065673828125,0.9056396484375
1629880730139,-0.39776611328125,0.06231689453125,0.90399169921875
1629880730139,-0.40008544921875,0.0703125,0.90338134765625
1629880730186,-0.39605712890625,0.0723876953125,0.90972900390625
1629880730186,-0.39398193359375,0.07080078125,0.9095458984375
1629880730186,-0.3978271484375,0.06146240234375,0.90948486328125
1629880730233,-0.39581298828125,0.069091796875,0.909423828125
1629880730233,-0.3968505859375,0.06903076171875,0.91229248046875
1629880730233,-0.39630126953125,0.07086181640625,0.91009521484375
1629880730264,-0.39569091796875,0.07110595703125,0.90679931640625
1629880730264,-0.3955078125,0.07025146484375,0.90570068359375
1629880730264,-0.39263916015625,0.0677490234375,0.90423583984375
1629880730343,-0.3900146484375,0.068115234375,0.90753173828125
1629880730343,-0.394775390625,0.06524658203125,0.904296875
1629880730343,-0.392333984375,0.0645751953125,0.90655517578125
1629880730421,-0.39337158203125,0.06768798828125,0.90850830078125
1629880730421,-0.3951416015625,0.063232421875,0.9063720703125
1629880730421,-0.39324951171875,0.06683349609375,0.90704345703125
1629880730483,-0.3953857421875,0.05908203125,0.904541015625
1629880730483,-0.39410400390625,0.06280517578125,0.908203125
1629880730483,-0.395751953125,0.06488037109375,0.906982421875
1629880730514,-0.39453125,0.06396484375,0.90673828125
1629880730514,-0.39068603515625,0.06182861328125,0.90899658203125
1629880730514,-0.3944091796875,0.06329345703125,0.9119873046875
1629880730577,-0.38983154296875,0.06219482421875,0.915283203125
1629880730577,-0.3897705078125,0.06231689453125,0.91265869140625
1629880730577,-0.3931884765625,0.065673828125,0.909912109375
1629880730624,-0.38958740234375,0.0555419921875,0.914794921875
1629880730642,-0.3922119140625,0.05792236328125,0.91156005859375
1629880730642,-0.3863525390625,0.056396484375,0.90887451171875
1629880730704,-0.39337158203125,0.0582275390625,0.9102783203125
1629880730704,-0.39080810546875,0.056640625,0.90997314453125
1629880730704,-0.3935546875,0.059814453125,0.91015625
1629880730798,-0.3902587890625,0.05987548828125,0.90643310546875
1629880730798,-0.392822265625,0.0548095703125,0.90716552734375
1629880730798,-0.39166259765625,0.056884765625,0.90679931640625
1629880730829,-0.392822265625,0.056884765625,0.90863037109375
1629880730829,-0.39202880859375,0.0582275390625,0.90997314453125
1629880730829,-0.39105224609375,0.0615234375,0.9068603515625
1629880730892,-0.39361572265625,0.060546875,0.908935546875
1629880730892,-0.38946533203125,0.0631103515625,0.90374755859375
1629880730892,-0.390625,0.0577392578125,0.90399169921875
1629880730954,-0.38616943359375,0.0650634765625,0.90789794921875
1629880730954,-0.39019775390625,0.06646728515625,0.9058837890625
1629880730970,-0.384521484375,0.06268310546875,0.91693115234375
1629880731001,-0.38604736328125,0.05267333984375,0.9163818359375
1629880731001,-0.38763427734375,0.058349609375,0.92095947265625
1629880731001,-0.38665771484375,0.064453125,0.920166015625
1629880731032,-0.38336181640625,0.053466796875,0.91607666015625
1629880731048,-0.38604736328125,0.04730224609375,0.9168701171875
1629880731048,-0.384765625,0.050537109375,0.91815185546875
1629880731111,-0.3829345703125,0.0537109375,0.9180908203125
1629880731111,-0.38427734375,0.05609130859375,0.9111328125
1629880731111,-0.37884521484375,0.056396484375,0.90960693359375
1629880731173,-0.377685546875,0.05743408203125,0.9146728515625
1629880731173,-0.37567138671875,0.05609130859375,0.90740966796875
1629880731173,-0.37847900390625,0.05181884765625,0.9189453125
1629880731236,-0.3753662109375,0.04754638671875,0.9189453125
1629880731236,-0.37615966796875,0.048095703125,0.9215087890625
1629880731236,-0.3739013671875,0.0458984375,0.91986083984375
1629880731267,-0.375,0.0433349609375,0.9178466796875
1629880731267,-0.3731689453125,0.04376220703125,0.92059326171875
1629880731267,-0.37158203125,0.044677734375,0.9210205078125
1629880731361,-0.37603759765625,0.04754638671875,0.9156494140625
1629880731361,-0.37298583984375,0.0413818359375,0.91375732421875
1629880731361,-0.3758544921875,0.05029296875,0.91827392578125
1629880731407,-0.37347412109375,0.0560302734375,0.92132568359375
1629880731407,-0.37451171875,0.050537109375,0.91705322265625
1629880731407,-0.37225341796875,0.05120849609375,0.91839599609375
1629880731470,-0.36846923828125,0.05023193359375,0.92413330078125
1629880731470,-0.3739013671875,0.0531005859375,0.9200439453125
1629880731470,-0.37158203125,0.0465087890625,0.9259033203125
1629880731548,-0.37628173828125,0.0423583984375,0.9156494140625
1629880731548,-0.3760986328125,0.04522705078125,0.9190673828125
1629880731564,-0.3741455078125,0.0428466796875,0.9229736328125
1629880731610,-0.377197265625,0.04486083984375,0.917236328125
1629880731610,-0.3758544921875,0.0452880859375,0.916015625
1629880731610,-0.3740234375,0.0443115234375,0.91790771484375
1629880731657,-0.377685546875,0.05047607421875,0.914306640625
1629880731657,-0.3797607421875,0.048583984375,0.9127197265625
1629880731673,-0.3751220703125,0.046630859375,0.913818359375
1629880731707,-0.37750244140625,0.048828125,0.9154052734375
1629880731707,-0.3779296875,0.052978515625,0.9127197265625
1629880731707,-0.378662109375,0.0491943359375,0.91571044921875
1629880731801,-0.376220703125,0.05426025390625,0.91497802734375
1629880731801,-0.376708984375,0.0546875,0.9169921875
1629880731801,-0.37860107421875,0.0504150390625,0.91693115234375
1629880731863,-0.3758544921875,0.05615234375,0.91497802734375
1629880731863,-0.379638671875,0.05084228515625,0.91510009765625
1629880731863,-0.37823486328125,0.049560546875,0.91802978515625
1629880731879,-0.37451171875,0.05401611328125,0.91705322265625
1629880731879,-0.37457275390625,0.05511474609375,0.914794921875
1629880731879,-0.3768310546875,0.0565185546875,0.91748046875
1629880731910,-0.37591552734375,0.052734375,0.91937255859375
1629880731926,-0.37152099609375,0.05596923828125,0.91925048828125
1629880731926,-0.37310791015625,0.05535888671875,0.91961669921875
1629880731988,-0.373046875,0.05499267578125,0.91796875
1629880732004,-0.37261962890625,0.0516357421875,0.91845703125
1629880732004,-0.37445068359375,0.0540771484375,0.92120361328125
1629880732097,-0.37127685546875,0.05340576171875,0.91680908203125
1629880732097,-0.3714599609375,0.04901123046875,0.917724609375
1629880732097,-0.37353515625,0.0555419921875,0.91436767578125
1629880732129,-0.3707275390625,0.0518798828125,0.91650390625
1629880732144,-0.36944580078125,0.0579833984375,0.91607666015625
1629880732144,-0.3721923828125,0.05474853515625,0.916259765625
1629880732176,-0.36590576171875,0.05413818359375,0.91650390625
1629880732176,-0.36993408203125,0.05267333984375,0.9200439453125
1629880732191,-0.37109375,0.05169677734375,0.9176025390625
1629880732222,-0.37103271484375,0.054443359375,0.923828125
1629880732242,-0.36602783203125,0.0540771484375,0.92218017578125
1629880732242,-0.37078857421875,0.0521240234375,0.92236328125
1629880732322,-0.36639404296875,0.0615234375,0.92230224609375
1629880732338,-0.36968994140625,0.05548095703125,0.91912841796875
1629880732338,-0.365478515625,0.0550537109375,0.92266845703125
1629880732385,-0.36798095703125,0.052978515625,0.920166015625
1629880732385,-0.36724853515625,0.05364990234375,0.92352294921875
1629880732400,-0.36822509765625,0.05401611328125,0.91839599609375
1629880732416,-0.36651611328125,0.049072265625,0.9190673828125
1629880732416,-0.3651123046875,0.052978515625,0.919921875
1629880732416,-0.36505126953125,0.0528564453125,0.91973876953125
1629880732463,-0.36370849609375,0.05108642578125,0.9210205078125
1629880732463,-0.369384765625,0.04583740234375,0.924072265625
1629880732463,-0.3680419921875,0.05029296875,0.9207763671875
1629880732525,-0.3656005859375,0.0494384765625,0.9234619140625
1629880732525,-0.3624267578125,0.05206298828125,0.92266845703125
1629880732541,-0.3642578125,0.05364990234375,0.921630859375
1629880732635,-0.362548828125,0.04986572265625,0.92047119140625
1629880732635,-0.36334228515625,0.04656982421875,0.9197998046875
1629880732650,-0.3648681640625,0.04840087890625,0.92041015625
1629880732700,-0.359619140625,0.05401611328125,0.9215087890625
1629880732700,-0.36279296875,0.0548095703125,0.92572021484375
1629880732700,-0.35968017578125,0.049072265625,0.9239501953125
1629880732732,-0.359130859375,0.056640625,0.92108154296875
1629880732732,-0.3631591796875,0.05584716796875,0.92498779296875
1629880732732,-0.35919189453125,0.05718994140625,0.926025390625
1629880732778,-0.35992431640625,0.05352783203125,0.92242431640625
1629880732778,-0.36199951171875,0.0543212890625,0.9207763671875
1629880732778,-0.36163330078125,0.05804443359375,0.92315673828125
1629880732841,-0.3607177734375,0.05145263671875,0.92572021484375
1629880732841,-0.36004638671875,0.06134033203125,0.9249267578125
1629880732841,-0.3583984375,0.06036376953125,0.927978515625
1629880732857,-0.36181640625,0.05999755859375,0.92529296875
1629880732872,-0.36395263671875,0.0545654296875,0.92437744140625
1629880732872,-0.35931396484375,0.0531005859375,0.92254638671875
1629880732935,-0.364990234375,0.05438232421875,0.9251708984375
1629880732935,-0.3623046875,0.05145263671875,0.923828125
1629880732935,-0.36248779296875,0.05615234375,0.92413330078125
1629880732997,-0.36138916015625,0.0557861328125,0.9190673828125
1629880733013,-0.36224365234375,0.05474853515625,0.92413330078125
1629880733013,-0.363525390625,0.0552978515625,0.9219970703125
1629880733060,-0.36328125,0.0545654296875,0.92010498046875
1629880733075,-0.36846923828125,0.0587158203125,0.91925048828125
1629880733075,-0.36285400390625,0.05389404296875,0.92181396484375
1629880733138,-0.36285400390625,0.05596923828125,0.91888427734375
1629880733153,-0.36767578125,0.058349609375,0.924072265625
1629880733153,-0.366455078125,0.0557861328125,0.92083740234375
1629880733185,-0.3656005859375,0.05804443359375,0.92181396484375
1629880733200,-0.364013671875,0.05609130859375,0.91717529296875
1629880733200,-0.36627197265625,0.05413818359375,0.91864013671875
1629880733232,-0.36688232421875,0.05120849609375,0.9228515625
1629880733247,-0.3641357421875,0.05450439453125,0.92071533203125
1629880733247,-0.3642578125,0.05316162109375,0.918701171875
1629880733325,-0.36090087890625,0.0562744140625,0.92193603515625
1629880733341,-0.36431884765625,0.05523681640625,0.92987060546875
1629880733341,-0.36700439453125,0.05670166015625,0.9210205078125
1629880733372,-0.3643798828125,0.0538330078125,0.9244384765625
1629880733372,-0.36163330078125,0.0555419921875,0.9251708984375
1629880733372,-0.3656005859375,0.052490234375,0.9171142578125
1629880733419,-0.365234375,0.04986572265625,0.91851806640625
1629880733419,-0.36309814453125,0.04998779296875,0.920166015625
1629880733419,-0.3621826171875,0.05047607421875,0.92083740234375
1629880733497,-0.3638916015625,0.04901123046875,0.92242431640625
1629880733497,-0.3631591796875,0.05120849609375,0.92462158203125
1629880733497,-0.3656005859375,0.05145263671875,0.92608642578125
1629880733513,-0.3662109375,0.045654296875,0.92010498046875
1629880733528,-0.36669921875,0.050048828125,0.92120361328125
1629880733528,-0.36334228515625,0.05035400390625,0.92535400390625
1629880733606,-0.36627197265625,0.04803466796875,0.92138671875
1629880733606,-0.36639404296875,0.04296875,0.91754150390625
1629880733606,-0.36566162109375,0.045654296875,0.919189453125
1629880733731,-0.36126708984375,0.04913330078125,0.9210205078125
1629880733731,-0.3658447265625,0.04180908203125,0.9224853515625
1629880733731,-0.365234375,0.0426025390625,0.92608642578125
1629880733731,-0.3670654296875,0.04852294921875,0.92095947265625
1629880733749,-0.365966796875,0.04791259765625,0.92218017578125
1629880733749,-0.3646240234375,0.0413818359375,0.92181396484375
1629880733781,-0.36578369140625,0.0447998046875,0.91973876953125
1629880733781,-0.36285400390625,0.04705810546875,0.91717529296875
1629880733781,-0.36297607421875,0.0467529296875,0.92156982421875
1629880733843,-0.3660888671875,0.04791259765625,0.9183349609375
1629880733843,-0.3712158203125,0.04852294921875,0.91949462890625
1629880733843,-0.369873046875,0.04461669921875,0.91943359375
1629880733906,-0.3670654296875,0.0462646484375,0.919189453125
1629880733921,-0.37042236328125,0.04534912109375,0.91741943359375
1629880733921,-0.366943359375,0.0460205078125,0.91925048828125
1629880733937,-0.36944580078125,0.04522705078125,0.91937255859375
1629880733937,-0.36749267578125,0.04766845703125,0.91839599609375
1629880733937,-0.36932373046875,0.0460205078125,0.92144775390625
1629880734031,-0.369873046875,0.0435791015625,0.9219970703125
1629880734031,-0.36785888671875,0.043701171875,0.9228515625
1629880734031,-0.36578369140625,0.04095458984375,0.92340087890625
1629880734062,-0.36456298828125,0.03955078125,0.91937255859375
1629880734062,-0.3681640625,0.04351806640625,0.92034912109375
1629880734062,-0.36334228515625,0.04180908203125,0.92242431640625
1629880734124,-0.36322021484375,0.04827880859375,0.92340087890625
1629880734124,-0.3663330078125,0.04742431640625,0.92291259765625
1629880734124,-0.36138916015625,0.0435791015625,0.9207763671875
1629880734203,-0.366943359375,0.045166015625,0.91827392578125
1629880734203,-0.3660888671875,0.04534912109375,0.9173583984375
1629880734203,-0.363037109375,0.0460205078125,0.9183349609375
1629880734218,-0.3631591796875,0.04364013671875,0.92022705078125
1629880734234,-0.3626708984375,0.041015625,0.92822265625
1629880734234,-0.3631591796875,0.04443359375,0.91961669921875
1629880734296,-0.36285400390625,0.04522705078125,0.9267578125
1629880734296,-0.35675048828125,0.04949951171875,0.924072265625
1629880734312,-0.35821533203125,0.0457763671875,0.9261474609375
1629880734406,-0.36328125,0.048095703125,0.92803955078125
1629880734406,-0.36370849609375,0.04400634765625,0.92327880859375
1629880734406,-0.3599853515625,0.04559326171875,0.92803955078125
1629880734421,-0.36236572265625,0.04400634765625,0.92156982421875
1629880734421,-0.36700439453125,0.04302978515625,0.924560546875
1629880734421,-0.36309814453125,0.044189453125,0.92474365234375
1629880734468,-0.36358642578125,0.04486083984375,0.91748046875
1629880734468,-0.36669921875,0.04541015625,0.91998291015625
1629880734468,-0.3668212890625,0.0467529296875,0.92022705078125
1629880734595,-0.3677978515625,0.046630859375,0.921142578125
1629880734611,-0.36627197265625,0.04388427734375,0.9161376953125
1629880734611,-0.36627197265625,0.04815673828125,0.92156982421875
1629880734658,-0.36773681640625,0.04638671875,0.9205322265625
1629880734658,-0.36761474609375,0.04766845703125,0.9207763671875
1629880734658,-0.36883544921875,0.046875,0.91668701171875
1629880734658,-0.36895751953125,0.0433349609375,0.91839599609375
1629880734658,-0.36669921875,0.04376220703125,0.9197998046875
1629880734658,-0.367431640625,0.046142578125,0.91973876953125
1629880734767,-0.36761474609375,0.050537109375,0.9207763671875
1629880734767,-0.3673095703125,0.0484619140625,0.92169189453125
1629880734767,-0.36712646484375,0.04608154296875,0.92254638671875
1629880734783,-0.36541748046875,0.04656982421875,0.91552734375
1629880734783,-0.3656005859375,0.044677734375,0.9178466796875
1629880734798,-0.36968994140625,0.04888916015625,0.9185791015625
1629880734845,-0.368408203125,0.0443115234375,0.92291259765625
1629880734845,-0.36590576171875,0.04351806640625,0.91943359375
1629880734861,-0.3658447265625,0.044677734375,0.9210205078125
1629880734939,-0.36865234375,0.044677734375,0.92138671875
1629880734939,-0.36907958984375,0.04168701171875,0.91925048828125
1629880734939,-0.36822509765625,0.04351806640625,0.91937255859375
1629880734970,-0.36932373046875,0.04541015625,0.920166015625
1629880734970,-0.37017822265625,0.04571533203125,0.9185791015625
1629880734986,-0.36480712890625,0.044677734375,0.922119140625
1629880735017,-0.36676025390625,0.04571533203125,0.9205322265625
1629880735017,-0.3658447265625,0.04913330078125,0.91729736328125
1629880735017,-0.3697509765625,0.0479736328125,0.92291259765625
1629880735064,-0.3656005859375,0.04595947265625,0.92120361328125
1629880735064,-0.36737060546875,0.0482177734375,0.91998291015625
1629880735079,-0.36627197265625,0.05230712890625,0.9154052734375
1629880735111,-0.36737060546875,0.043212890625,0.9202880859375
1629880735111,-0.36474609375,0.046630859375,0.92181396484375
1629880735111,-0.365478515625,0.04620361328125,0.9210205078125
1629880735158,-0.36676025390625,0.04388427734375,0.9195556640625
1629880735173,-0.3677978515625,0.0438232421875,0.923828125
1629880735173,-0.36688232421875,0.04278564453125,0.92205810546875
1629880735267,-0.36700439453125,0.044189453125,0.923828125
1629880735267,-0.3665771484375,0.04345703125,0.9212646484375
1629880735267,-0.367431640625,0.04437255859375,0.92333984375
1629880735298,-0.36981201171875,0.0457763671875,0.9189453125
1629880735298,-0.3677978515625,0.04803466796875,0.91839599609375
1629880735298,-0.37109375,0.046630859375,0.92120361328125
1629880735361,-0.37200927734375,0.0491943359375,0.92193603515625
1629880735361,-0.3682861328125,0.046630859375,0.91522216796875
1629880735361,-0.36895751953125,0.051513671875,0.9156494140625
1629880735423,-0.372314453125,0.0556640625,0.9169921875
1629880735423,-0.36785888671875,0.05621337890625,0.91705322265625
1629880735439,-0.3681640625,0.0391845703125,0.91778564453125
1629880735439,-0.3731689453125,0.05413818359375,0.9197998046875
1629880735454,-0.3692626953125,0.04571533203125,0.91802978515625
1629880735454,-0.3704833984375,0.041015625,0.91778564453125
1629880735564,-0.36566162109375,0.04132080078125,0.9217529296875
1629880735564,-0.366455078125,0.04119873046875,0.921630859375
1629880735579,-0.37060546875,0.043212890625,0.92022705078125
1629880735618,-0.3665771484375,0.04754638671875,0.92401123046875
1629880735618,-0.36614990234375,0.03955078125,0.9212646484375
1629880735618,-0.36376953125,0.04449462890625,0.92510986328125
1629880735680,-0.3626708984375,0.04974365234375,0.9228515625
1629880735680,-0.36346435546875,0.04730224609375,0.92388916015625
1629880735680,-0.3670654296875,0.04779052734375,0.9237060546875
1629880735712,-0.36517333984375,0.04754638671875,0.92144775390625
1629880735712,-0.364013671875,0.04644775390625,0.920654296875
1629880735712,-0.36212158203125,0.04937744140625,0.9193115234375
1629880735743,-0.36529541015625,0.039794921875,0.9241943359375
1629880735743,-0.3651123046875,0.03790283203125,0.91925048828125
1629880735743,-0.36761474609375,0.04638671875,0.92218017578125
1629880735837,-0.36566162109375,0.03900146484375,0.92401123046875
1629880735837,-0.36236572265625,0.04034423828125,0.92047119140625
1629880735837,-0.36395263671875,0.0399169921875,0.91705322265625
1629880735883,-0.36358642578125,0.0426025390625,0.9268798828125
1629880735883,-0.362060546875,0.0406494140625,0.92523193359375
1629880735883,-0.36383056640625,0.04095458984375,0.92401123046875
1629880735946,-0.36407470703125,0.03961181640625,0.92095947265625
1629880735962,-0.36529541015625,0.0411376953125,0.92657470703125
1629880735962,-0.36187744140625,0.04412841796875,0.924560546875
1629880736008,-0.3702392578125,0.0430908203125,0.91754150390625
1629880736008,-0.36798095703125,0.0458984375,0.91925048828125
1629880736008,-0.37042236328125,0.041748046875,0.9217529296875
1629880736071,-0.37200927734375,0.04736328125,0.91552734375
1629880736087,-0.37115478515625,0.0469970703125,0.9171142578125
1629880736087,-0.37103271484375,0.04718017578125,0.91607666015625
1629880736110,-0.3704833984375,0.0509033203125,0.916259765625
1629880736110,-0.37237548828125,0.04620361328125,0.9163818359375
1629880736126,-0.3687744140625,0.0421142578125,0.91632080078125
1629880736210,-0.37176513671875,0.03955078125,0.9200439453125
1629880736210,-0.37091064453125,0.039306640625,0.920166015625
1629880736210,-0.369384765625,0.041748046875,0.91845703125
1629880736242,-0.36932373046875,0.03851318359375,0.91900634765625
1629880736242,-0.36956787109375,0.04034423828125,0.9197998046875
1629880736242,-0.37091064453125,0.04168701171875,0.92010498046875
1629880736306,-0.369873046875,0.05059814453125,0.91729736328125
1629880736322,-0.36920166015625,0.0440673828125,0.91925048828125
1629880736322,-0.367431640625,0.0478515625,0.922607421875
1629880736358,-0.37005615234375,0.0516357421875,0.92022705078125
1629880736361,-0.37091064453125,0.0565185546875,0.92034912109375
1629880736373,-0.3690185546875,0.0504150390625,0.91961669921875
1629880736441,-0.37060546875,0.0457763671875,0.91961669921875
1629880736441,-0.36773681640625,0.04827880859375,0.91973876953125
1629880736441,-0.367919921875,0.05401611328125,0.91748046875
1629880736473,-0.3677978515625,0.04400634765625,0.91973876953125
1629880736473,-0.37005615234375,0.04010009765625,0.91888427734375
1629880736473,-0.37109375,0.03912353515625,0.91778564453125
1629880736524,-0.3717041015625,0.04083251953125,0.91656494140625
1629880736524,-0.36920166015625,0.04473876953125,0.91619873046875
1629880736524,-0.37237548828125,0.0491943359375,0.9140625
1629880736621,-0.37115478515625,0.05230712890625,0.91705322265625
1629880736639,-0.37408447265625,0.04754638671875,0.9189453125
1629880736639,-0.371826171875,0.05230712890625,0.91583251953125
1629880736671,-0.37274169921875,0.0433349609375,0.91961669921875
1629880736671,-0.369873046875,0.05096435546875,0.92352294921875
1629880736671,-0.37005615234375,0.03826904296875,0.9215087890625
1629880736725,-0.37298583984375,0.03851318359375,0.9193115234375
1629880736725,-0.36846923828125,0.03558349609375,0.91790771484375
1629880736741,-0.37103271484375,0.03485107421875,0.9210205078125
1629880736760,-0.3695068359375,0.03509521484375,0.92108154296875
1629880736776,-0.37493896484375,0.04248046875,0.920166015625
1629880736776,-0.36865234375,0.03564453125,0.9195556640625
1629880736842,-0.37255859375,0.049072265625,0.91705322265625
1629880736842,-0.3741455078125,0.0526123046875,0.9168701171875
1629880736842,-0.3740234375,0.04754638671875,0.91937255859375
1629880736905,-0.37615966796875,0.04510498046875,0.91314697265625
1629880736905,-0.377685546875,0.04736328125,0.913818359375
1629880736920,-0.3748779296875,0.03533935546875,0.91455078125
1629880736936,-0.3734130859375,0.034423828125,0.91748046875
1629880736952,-0.37384033203125,0.0325927734375,0.9185791015625
1629880736952,-0.37188720703125,0.03204345703125,0.92034912109375
1629880737030,-0.37359619140625,0.0408935546875,0.92083740234375
1629880737045,-0.37359619140625,0.03717041015625,0.92041015625
1629880737045,-0.37347412109375,0.03515625,0.92022705078125
1629880737076,-0.375244140625,0.042724609375,0.91796875
1629880737092,-0.37335205078125,0.04425048828125,0.92083740234375
1629880737092,-0.37896728515625,0.04388427734375,0.91827392578125
1629880737123,-0.3721923828125,0.04638671875,0.91668701171875
1629880737123,-0.3782958984375,0.04412841796875,0.91839599609375
1629880737123,-0.372802734375,0.04241943359375,0.91705322265625
1629880737170,-0.3759765625,0.03778076171875,0.9173583984375
1629880737177,-0.37567138671875,0.0360107421875,0.91522216796875
1629880737192,-0.373291015625,0.04095458984375,0.919677734375
1629880737277,-0.3768310546875,0.0421142578125,0.91558837890625
1629880737277,-0.37841796875,0.04248046875,0.91461181640625
1629880737278,-0.37274169921875,0.03619384765625,0.914306640625
1629880737292,-0.3770751953125,0.0440673828125,0.91253662109375
1629880737307,-0.37713623046875,0.04449462890625,0.91290283203125
1629880737309,-0.37579345703125,0.04449462890625,0.916259765625
1629880737400,-0.37493896484375,0.0479736328125,0.9146728515625
1629880737401,-0.3758544921875,0.04412841796875,0.9178466796875
1629880737401,-0.376708984375,0.04345703125,0.9183349609375
1629880737433,-0.379638671875,0.04132080078125,0.91827392578125
1629880737433,-0.37359619140625,0.03582763671875,0.91961669921875
1629880737433,-0.3785400390625,0.0374755859375,0.91973876953125
1629880737495,-0.37744140625,0.03411865234375,0.916015625
1629880737496,-0.37701416015625,0.03802490234375,0.9158935546875
1629880737496,-0.37567138671875,0.0390625,0.9193115234375
1629880737542,-0.3798828125,0.04718017578125,0.914306640625
1629880737557,-0.37738037109375,0.0406494140625,0.9171142578125
1629880737557,-0.3790283203125,0.0469970703125,0.91650390625
1629880737641,-0.37884521484375,0.04718017578125,0.912353515625
1629880737657,-0.375,0.04290771484375,0.915283203125
1629880737657,-0.378173828125,0.0469970703125,0.91015625
1629880737659,-0.38116455078125,0.04949951171875,0.91485595703125
1629880737672,-0.38006591796875,0.042724609375,0.9151611328125
1629880737672,-0.37652587890625,0.04156494140625,0.91900634765625
1629880737737,-0.3734130859375,0.04119873046875,0.9190673828125
1629880737752,-0.37896728515625,0.04034423828125,0.91729736328125
1629880737752,-0.376220703125,0.040283203125,0.917724609375
1629880737784,-0.37774658203125,0.034912109375,0.918701171875
1629880737784,-0.3721923828125,0.0360107421875,0.920166015625
1629880737784,-0.372314453125,0.0404052734375,0.92205810546875
1629880737847,-0.3687744140625,0.0421142578125,0.9185791015625
1629880737847,-0.37432861328125,0.03924560546875,0.92236328125
1629880737847,-0.37158203125,0.04083251953125,0.92279052734375
1629880737910,-0.3775634765625,0.0472412109375,0.9229736328125
1629880737924,-0.370361328125,0.04803466796875,0.92010498046875
1629880737924,-0.3690185546875,0.047607421875,0.920166015625
1629880737953,-0.37347412109375,0.04656982421875,0.91973876953125
1629880737955,-0.377197265625,0.04132080078125,0.917236328125
1629880737969,-0.37664794921875,0.0406494140625,0.91436767578125
1629880738031,-0.3804931640625,0.0418701171875,0.917236328125
1629880738032,-0.37725830078125,0.0411376953125,0.9150390625
1629880738032,-0.3759765625,0.0391845703125,0.91192626953125
1629880738077,-0.37420654296875,0.0379638671875,0.91888427734375
1629880738077,-0.376220703125,0.0421142578125,0.9180908203125
1629880738077,-0.377685546875,0.04132080078125,0.916259765625
1629880738124,-0.377197265625,0.04034423828125,0.9217529296875
1629880738139,-0.37457275390625,0.03857421875,0.91632080078125
1629880738139,-0.38006591796875,0.04052734375,0.9150390625
1629880738253,-0.37823486328125,0.047607421875,0.91766357421875
1629880738277,-0.37725830078125,0.04620361328125,0.91644287109375
1629880738277,-0.3790283203125,0.04864501953125,0.91632080078125
1629880738308,-0.379638671875,0.04840087890625,0.91534423828125
1629880738308,-0.37811279296875,0.04815673828125,0.91729736328125
1629880738308,-0.37957763671875,0.0469970703125,0.91229248046875
1629880738308,-0.38006591796875,0.04388427734375,0.9136962890625
1629880738308,-0.37646484375,0.048583984375,0.91748046875
1629880738308,-0.37823486328125,0.04632568359375,0.91229248046875
1629880738355,-0.3787841796875,0.04925537109375,0.9127197265625
1629880738355,-0.37884521484375,0.04547119140625,0.9141845703125
1629880738355,-0.37982177734375,0.04974365234375,0.91326904296875
1629880738433,-0.3818359375,0.04388427734375,0.912353515625
1629880738433,-0.379150390625,0.0400390625,0.9156494140625
1629880738433,-0.37957763671875,0.04437255859375,0.9122314453125
1629880738468,-0.3758544921875,0.0433349609375,0.91766357421875
1629880738468,-0.3782958984375,0.04345703125,0.91259765625
1629880738469,-0.377685546875,0.0438232421875,0.9171142578125
1629880738540,-0.376953125,0.03759765625,0.91693115234375
1629880738540,-0.3759765625,0.04132080078125,0.91961669921875
1629880738540,-0.37994384765625,0.0379638671875,0.9158935546875
1629880738571,-0.37860107421875,0.04498291015625,0.91473388671875
1629880738571,-0.37847900390625,0.0418701171875,0.9144287109375
1629880738571,-0.379150390625,0.04644775390625,0.9156494140625
1629880738681,-0.37799072265625,0.046875,0.91650390625
1629880738681,-0.3773193359375,0.05047607421875,0.91802978515625
1629880738681,-0.3765869140625,0.0550537109375,0.9140625
1629880738727,-0.3759765625,0.0537109375,0.91534423828125
1629880738727,-0.37847900390625,0.04443359375,0.91412353515625
1629880738727,-0.3778076171875,0.04754638671875,0.915771484375
1629880738790,-0.37646484375,0.0390625,0.915283203125
1629880738790,-0.37457275390625,0.03826904296875,0.9132080078125
1629880738790,-0.3779296875,0.04345703125,0.91717529296875
1629880738837,-0.37451171875,0.04022216796875,0.9151611328125
1629880738837,-0.3756103515625,0.03955078125,0.91668701171875
1629880738837,-0.37603759765625,0.04620361328125,0.916259765625
1629880738993,-0.37060546875,0.04742431640625,0.9188232421875
1629880738993,-0.37542724609375,0.0543212890625,0.92181396484375
1629880738993,-0.37359619140625,0.05377197265625,0.91998291015625
1629880739009,-0.37591552734375,0.04949951171875,0.9168701171875
1629880739009,-0.37420654296875,0.05255126953125,0.9180908203125
1629880739009,-0.37371826171875,0.0477294921875,0.91497802734375
1629880739055,-0.3740234375,0.05072021484375,0.921142578125
1629880739055,-0.37615966796875,0.05145263671875,0.91796875
1629880739055,-0.371826171875,0.05267333984375,0.91412353515625
1629880739102,-0.3734130859375,0.04510498046875,0.92291259765625
1629880739118,-0.37371826171875,0.046875,0.9195556640625
1629880739118,-0.3697509765625,0.04327392578125,0.9195556640625
1629880739149,-0.37066650390625,0.05322265625,0.9180908203125
1629880739149,-0.37371826171875,0.04901123046875,0.91668701171875
1629880739149,-0.37164306640625,0.050537109375,0.91986083984375
1629880739180,-0.3714599609375,0.0560302734375,0.91973876953125
1629880739180,-0.37054443359375,0.05523681640625,0.91748046875
1629880739180,-0.36767578125,0.05615234375,0.91741943359375
1629880739263,-0.37030029296875,0.05419921875,0.9200439453125
1629880739263,-0.3712158203125,0.056396484375,0.91845703125
1629880739263,-0.37103271484375,0.0572509765625,0.917724609375
1629880739294,-0.37322998046875,0.055419921875,0.916015625
1629880739294,-0.37628173828125,0.05389404296875,0.9141845703125
1629880739294,-0.37298583984375,0.05828857421875,0.9205322265625
1629880739388,-0.3734130859375,0.05426025390625,0.91644287109375
1629880739388,-0.37384033203125,0.05755615234375,0.91241455078125
1629880739388,-0.3741455078125,0.05853271484375,0.9169921875
1629880739435,-0.36932373046875,0.06402587890625,0.92034912109375
1629880739435,-0.369873046875,0.06072998046875,0.9169921875
1629880739435,-0.3729248046875,0.0584716796875,0.91717529296875
1629880739497,-0.36798095703125,0.06451416015625,0.9200439453125
1629880739497,-0.373779296875,0.06158447265625,0.92529296875
1629880739497,-0.36773681640625,0.06475830078125,0.9215087890625
1629880739544,-0.3701171875,0.05743408203125,0.92041015625
1629880739544,-0.36993408203125,0.06170654296875,0.915771484375
1629880739544,-0.36688232421875,0.05706787109375,0.922607421875
1629880739607,-0.3681640625,0.06475830078125,0.9178466796875
1629880739607,-0.3690185546875,0.0693359375,0.91436767578125
1629880739607,-0.373046875,0.0650634765625,0.91766357421875
1629880739653,-0.3714599609375,0.06683349609375,0.9166259765625
1629880739653,-0.37066650390625,0.068115234375,0.91278076171875
1629880739653,-0.373046875,0.0660400390625,0.91015625
1629880739732,-0.36871337890625,0.06036376953125,0.9158935546875
1629880739732,-0.365478515625,0.062744140625,0.9195556640625
1629880739732,-0.3692626953125,0.06744384765625,0.9200439453125
1629880739812,-0.36724853515625,0.06427001953125,0.9244384765625
1629880739812,-0.3653564453125,0.0625,0.9205322265625
1629880739812,-0.36651611328125,0.0650634765625,0.91949462890625
1629880739828,-0.37371826171875,0.061279296875,0.922607421875
1629880739843,-0.36578369140625,0.06109619140625,0.92431640625
1629880739843,-0.36456298828125,0.06005859375,0.92431640625
1629880739953,-0.36883544921875,0.0592041015625,0.9246826171875
1629880739953,-0.373779296875,0.06134033203125,0.92108154296875
1629880739953,-0.37109375,0.0556640625,0.92254638671875
1629880739984,-0.3720703125,0.06732177734375,0.91595458984375
1629880739984,-0.36993408203125,0.06707763671875,0.9124755859375
1629880739984,-0.371337890625,0.0653076171875,0.91680908203125
1629880739999,-0.3741455078125,0.06451416015625,0.9129638671875
1629880739999,-0.3719482421875,0.0611572265625,0.915283203125
1629880739999,-0.37286376953125,0.06060791015625,0.91290283203125
1629880740082,-0.371337890625,0.0560302734375,0.91705322265625
1629880740085,-0.36773681640625,0.0601806640625,0.9161376953125
1629880740086,-0.37420654296875,0.06280517578125,0.914794921875
1629880740124,-0.37384033203125,0.05633544921875,0.9183349609375
1629880740124,-0.3702392578125,0.0567626953125,0.916015625
1629880740124,-0.3720703125,0.05255126953125,0.92108154296875
1629880740201,-0.371337890625,0.0491943359375,0.922119140625
1629880740201,-0.36871337890625,0.0538330078125,0.9202880859375
1629880740202,-0.37322998046875,0.0501708984375,0.92303466796875
1629880740248,-0.3704833984375,0.052978515625,0.9207763671875
1629880740248,-0.37005615234375,0.0482177734375,0.91998291015625
1629880740249,-0.37042236328125,0.0516357421875,0.921142578125
1629880740309,-0.36712646484375,0.05413818359375,0.92193603515625
1629880740309,-0.36798095703125,0.05487060546875,0.91845703125
1629880740309,-0.3668212890625,0.0526123046875,0.919921875
1629880740375,-0.36676025390625,0.05657958984375,0.92364501953125
1629880740390,-0.369873046875,0.05816650390625,0.920654296875
1629880740390,-0.36981201171875,0.0538330078125,0.92291259765625
1629880740422,-0.36932373046875,0.05499267578125,0.9193115234375
1629880740422,-0.36810302734375,0.05596923828125,0.9189453125
1629880740422,-0.36944580078125,0.05767822265625,0.91632080078125
1629880740517,-0.3748779296875,0.0526123046875,0.91937255859375
1629880740517,-0.37078857421875,0.0526123046875,0.91766357421875
1629880740517,-0.37164306640625,0.049560546875,0.9149169921875
1629880740531,-0.37109375,0.0487060546875,0.9163818359375
1629880740546,-0.3717041015625,0.05023193359375,0.91650390625
1629880740547,-0.36907958984375,0.04931640625,0.9200439453125
1629880740639,-0.364013671875,0.05267333984375,0.924560546875
1629880740639,-0.36859130859375,0.05364990234375,0.921142578125
1629880740639,-0.36865234375,0.05377197265625,0.923095703125
1629880740670,-0.36614990234375,0.0552978515625,0.9227294921875
1629880740670,-0.36492919921875,0.05224609375,0.92364501953125
1629880740686,-0.36383056640625,0.047119140625,0.9222412109375
1629880740717,-0.36920166015625,0.05010986328125,0.9190673828125
1629880740717,-0.3717041015625,0.048095703125,0.919921875
1629880740732,-0.37054443359375,0.05108642578125,0.91937255859375
1629880740777,-0.36920166015625,0.0467529296875,0.91851806640625
1629880740777,-0.36822509765625,0.05108642578125,0.91815185546875
1629880740777,-0.37054443359375,0.0491943359375,0.92095947265625
1629880740875,-0.36773681640625,0.05108642578125,0.92132568359375
1629880740875,-0.3680419921875,0.05010986328125,0.92279052734375
1629880740875,-0.36895751953125,0.0494384765625,0.917724609375
1629880740921,-0.37091064453125,0.05364990234375,0.91827392578125
1629880740921,-0.3675537109375,0.05426025390625,0.9212646484375
1629880740921,-0.36553955078125,0.04986572265625,0.92047119140625
1629880740953,-0.3673095703125,0.04730224609375,0.92010498046875
1629880740953,-0.36614990234375,0.04736328125,0.924072265625
1629880740953,-0.366943359375,0.04705810546875,0.92279052734375
1629880741031,-0.365234375,0.0489501953125,0.9224853515625
1629880741031,-0.3668212890625,0.04779052734375,0.92498779296875
1629880741031,-0.36688232421875,0.0479736328125,0.922607421875
1629880741078,-0.3673095703125,0.05279541015625,0.91961669921875
1629880741093,-0.36767578125,0.0511474609375,0.92254638671875
1629880741093,-0.36669921875,0.0526123046875,0.92041015625
1629880741171,-0.3681640625,0.05230712890625,0.91802978515625
1629880741187,-0.36590576171875,0.0543212890625,0.9183349609375
1629880741187,-0.36749267578125,0.05096435546875,0.91802978515625
1629880741218,-0.36492919921875,0.04876708984375,0.91998291015625
1629880741218,-0.36688232421875,0.052978515625,0.91876220703125
1629880741234,-0.3662109375,0.046630859375,0.91619873046875
1629880741265,-0.36724853515625,0.04571533203125,0.92218017578125
1629880741265,-0.3697509765625,0.0484619140625,0.920654296875
1629880741265,-0.3673095703125,0.0458984375,0.92083740234375
1629880741312,-0.367919921875,0.04962158203125,0.92022705078125
1629880741312,-0.36834716796875,0.05389404296875,0.91925048828125
1629880741312,-0.3616943359375,0.0538330078125,0.92144775390625
1629880741390,-0.36614990234375,0.05291748046875,0.91961669921875
1629880741390,-0.36822509765625,0.05328369140625,0.92315673828125
1629880741390,-0.3621826171875,0.050048828125,0.92010498046875
1629880741437,-0.36407470703125,0.0523681640625,0.92120361328125
1629880741437,-0.3675537109375,0.053955078125,0.91845703125
1629880741437,-0.3675537109375,0.052001953125,0.9183349609375
1629880741499,-0.36279296875,0.0465087890625,0.92315673828125
1629880741499,-0.36590576171875,0.05303955078125,0.92291259765625
1629880741499,-0.3685302734375,0.05303955078125,0.92193603515625
1629880741565,-0.365478515625,0.04766845703125,0.9246826171875
1629880741565,-0.3671875,0.048583984375,0.922119140625
1629880741565,-0.36529541015625,0.0513916015625,0.9244384765625
1629880741612,-0.368896484375,0.05340576171875,0.91552734375
1629880741612,-0.36981201171875,0.051513671875,0.919677734375
1629880741627,-0.367919921875,0.05023193359375,0.91497802734375
1629880741643,-0.36993408203125,0.048828125,0.9215087890625
1629880741643,-0.36865234375,0.050048828125,0.91851806640625
1629880741659,-0.37005615234375,0.0487060546875,0.9207763671875
1629880741705,-0.36676025390625,0.05206298828125,0.91583251953125
1629880741721,-0.36798095703125,0.05303955078125,0.91839599609375
1629880741721,-0.369384765625,0.05059814453125,0.918701171875
1629880741799,-0.36669921875,0.04742431640625,0.920166015625
1629880741799,-0.3692626953125,0.0494384765625,0.92071533203125
1629880741815,-0.36962890625,0.051025390625,0.92193603515625
1629880741830,-0.36810302734375,0.048583984375,0.92340087890625
1629880741830,-0.36529541015625,0.04669189453125,0.92364501953125
1629880741830,-0.36981201171875,0.0469970703125,0.9244384765625
1629880741924,-0.36468505859375,0.04498291015625,0.92169189453125
1629880741940,-0.3629150390625,0.04400634765625,0.92218017578125
1629880741940,-0.36602783203125,0.0477294921875,0.919677734375
1629880741971,-0.36474609375,0.04510498046875,0.92144775390625
1629880741971,-0.36749267578125,0.046875,0.92047119140625
1629880741987,-0.3658447265625,0.04656982421875,0.921875
1629880742002,-0.3663330078125,0.045654296875,0.9183349609375
1629880742002,-0.3658447265625,0.04425048828125,0.92095947265625
1629880742002,-0.36358642578125,0.04779052734375,0.92071533203125
1629880742096,-0.3681640625,0.04229736328125,0.92535400390625
1629880742096,-0.3660888671875,0.04217529296875,0.92022705078125
1629880742096,-0.367431640625,0.04400634765625,0.91912841796875
1629880742127,-0.364990234375,0.04730224609375,0.92181396484375
1629880742127,-0.36834716796875,0.0413818359375,0.922119140625
1629880742127,-0.365478515625,0.04345703125,0.92242431640625
1629880742236,-0.3680419921875,0.04296875,0.923095703125
1629880742236,-0.36273193359375,0.04302978515625,0.922607421875
1629880742236,-0.369140625,0.04412841796875,0.92486572265625
1629880742268,-0.3681640625,0.0440673828125,0.9188232421875
1629880742268,-0.3638916015625,0.044189453125,0.92071533203125
1629880742268,-0.36572265625,0.04266357421875,0.92047119140625
1629880742362,-0.3653564453125,0.04302978515625,0.92132568359375
1629880742362,-0.36309814453125,0.046142578125,0.92523193359375
1629880742362,-0.3658447265625,0.04254150390625,0.924072265625
1629880742408,-0.36700439453125,0.04486083984375,0.92816162109375
1629880742408,-0.362548828125,0.04669189453125,0.92327880859375
1629880742408,-0.36334228515625,0.0419921875,0.92437744140625
1629880742440,-0.36737060546875,0.0418701171875,0.92041015625
1629880742440,-0.36669921875,0.04180908203125,0.9224853515625
1629880742440,-0.36676025390625,0.04473876953125,0.92156982421875
1629880742455,-0.36627197265625,0.04486083984375,0.92034912109375
1629880742471,-0.37158203125,0.0474853515625,0.9246826171875
1629880742471,-0.36798095703125,0.0411376953125,0.92449951171875
1629880742549,-0.3636474609375,0.04449462890625,0.92083740234375
1629880742564,-0.36614990234375,0.0419921875,0.92095947265625
1629880742564,-0.36676025390625,0.0413818359375,0.9190673828125
1629880742583,-0.3648681640625,0.0460205078125,0.9229736328125
1629880742599,-0.366943359375,0.04473876953125,0.922607421875
1629880742599,-0.364501953125,0.0413818359375,0.923095703125
1629880742645,-0.3663330078125,0.042724609375,0.92193603515625
1629880742645,-0.3681640625,0.044677734375,0.92181396484375
1629880742645,-0.36505126953125,0.0401611328125,0.92254638671875
1629880742755,-0.36944580078125,0.04107666015625,0.9207763671875
1629880742755,-0.36737060546875,0.0428466796875,0.9224853515625
1629880742770,-0.37060546875,0.0413818359375,0.91656494140625
1629880742786,-0.37017822265625,0.0418701171875,0.9166259765625
1629880742786,-0.37078857421875,0.0426025390625,0.915771484375
1629880742802,-0.3701171875,0.04315185546875,0.91790771484375
1629880742833,-0.37109375,0.04364013671875,0.91900634765625
1629880742833,-0.3699951171875,0.04681396484375,0.9188232421875
1629880742833,-0.369873046875,0.042236328125,0.921142578125
1629880742927,-0.3687744140625,0.04620361328125,0.92059326171875
1629880742927,-0.37353515625,0.04327392578125,0.9163818359375
1629880742927,-0.3690185546875,0.04241943359375,0.92327880859375
1629880742973,-0.36956787109375,0.0396728515625,0.9161376953125
1629880742973,-0.36669921875,0.0426025390625,0.91802978515625
1629880742973,-0.36846923828125,0.041015625,0.92108154296875
1629880743036,-0.3758544921875,0.04266357421875,0.9224853515625
1629880743036,-0.36932373046875,0.046142578125,0.91461181640625
1629880743052,-0.36932373046875,0.0421142578125,0.92059326171875
1629880743114,-0.37017822265625,0.04296875,0.92059326171875
1629880743114,-0.3709716796875,0.04547119140625,0.9188232421875
1629880743130,-0.37237548828125,0.0411376953125,0.91790771484375
1629880743161,-0.3712158203125,0.03704833984375,0.91802978515625
1629880743161,-0.36773681640625,0.04278564453125,0.91864013671875
1629880743161,-0.36834716796875,0.03955078125,0.91778564453125
1629880743192,-0.3682861328125,0.0421142578125,0.92413330078125
1629880743208,-0.36676025390625,0.041259765625,0.92034912109375
1629880743208,-0.368408203125,0.039794921875,0.92156982421875
1629880743255,-0.37158203125,0.04595947265625,0.9261474609375
1629880743255,-0.37005615234375,0.04632568359375,0.92156982421875
1629880743255,-0.36785888671875,0.04339599609375,0.9246826171875
1629880743317,-0.373046875,0.03692626953125,0.9180908203125
1629880743317,-0.3638916015625,0.04315185546875,0.92047119140625
1629880743317,-0.36907958984375,0.0399169921875,0.9217529296875
1629880743395,-0.370849609375,0.0367431640625,0.91839599609375
1629880743395,-0.36566162109375,0.03692626953125,0.91595458984375
1629880743395,-0.3721923828125,0.0361328125,0.915771484375
1629880743427,-0.36907958984375,0.0338134765625,0.919677734375
1629880743427,-0.36993408203125,0.03546142578125,0.92059326171875
1629880743427,-0.37042236328125,0.03790283203125,0.92108154296875
1629880743505,-0.37298583984375,0.03472900390625,0.9171142578125
1629880743505,-0.3720703125,0.037109375,0.91729736328125
1629880743505,-0.37030029296875,0.0357666015625,0.919921875
1629880743551,-0.37200927734375,0.0357666015625,0.91986083984375
1629880743551,-0.36968994140625,0.03460693359375,0.91766357421875
1629880743551,-0.37176513671875,0.03369140625,0.91845703125
1629880743633,-0.369140625,0.04052734375,0.92010498046875
1629880743633,-0.37005615234375,0.036865234375,0.9173583984375
1629880743633,-0.37030029296875,0.03594970703125,0.9195556640625
1629880743679,-0.3701171875,0.04376220703125,0.92132568359375
1629880743679,-0.37066650390625,0.041748046875,0.91815185546875
1629880743679,-0.36859130859375,0.04266357421875,0.9190673828125
1629880743726,-0.3709716796875,0.039794921875,0.92315673828125
1629880743726,-0.372314453125,0.0421142578125,0.92022705078125
1629880743726,-0.36865234375,0.041259765625,0.9200439453125
1629880743773,-0.3729248046875,0.037353515625,0.91839599609375
1629880743789,-0.37261962890625,0.04425048828125,0.92071533203125
1629880743789,-0.3702392578125,0.042236328125,0.91943359375
1629880743836,-0.37017822265625,0.03778076171875,0.91851806640625
1629880743851,-0.37066650390625,0.03955078125,0.90960693359375
1629880743851,-0.369140625,0.0411376953125,0.91937255859375
1629880743929,-0.372314453125,0.03851318359375,0.9190673828125
1629880743929,-0.37408447265625,0.03594970703125,0.919921875
1629880743929,-0.37103271484375,0.03619384765625,0.9193115234375
1629880743961,-0.37249755859375,0.0382080078125,0.91656494140625
1629880743976,-0.370849609375,0.03662109375,0.9189453125
1629880743976,-0.36968994140625,0.04266357421875,0.922119140625
1629880744070,-0.3719482421875,0.04437255859375,0.923095703125
1629880744070,-0.36761474609375,0.0457763671875,0.91998291015625
1629880744070,-0.37030029296875,0.041015625,0.921875
1629880744101,-0.37158203125,0.043701171875,0.92059326171875
1629880744117,-0.3702392578125,0.03985595703125,0.9188232421875
1629880744117,-0.37030029296875,0.0479736328125,0.9197998046875
1629880744148,-0.3720703125,0.037109375,0.91680908203125
1629880744148,-0.37200927734375,0.03924560546875,0.91656494140625
1629880744148,-0.36663818359375,0.0360107421875,0.91864013671875
1629880744179,-0.369140625,0.03729248046875,0.9171142578125
1629880744179,-0.370849609375,0.0372314453125,0.9195556640625
1629880744195,-0.3697509765625,0.03564453125,0.919677734375
1629880744257,-0.37176513671875,0.0408935546875,0.9197998046875
1629880744257,-0.37579345703125,0.04022216796875,0.91455078125
1629880744257,-0.37591552734375,0.03863525390625,0.91412353515625
1629880744320,-0.375,0.03851318359375,0.91644287109375
1629880744336,-0.3740234375,0.0386962890625,0.92034912109375
1629880744336,-0.37408447265625,0.0382080078125,0.91741943359375
1629880744367,-0.370849609375,0.03607177734375,0.921142578125
1629880744382,-0.37347412109375,0.03326416015625,0.9173583984375
1629880744382,-0.373046875,0.0357666015625,0.916259765625
1629880744461,-0.3734130859375,0.03857421875,0.92303466796875
1629880744461,-0.37005615234375,0.03863525390625,0.92596435546875
1629880744461,-0.36932373046875,0.03515625,0.92388916015625
1629880744476,-0.3714599609375,0.0443115234375,0.92431640625
1629880744492,-0.3701171875,0.04107666015625,0.91778564453125
1629880744492,-0.370849609375,0.0416259765625,0.9173583984375
1629880744554,-0.3741455078125,0.0391845703125,0.915771484375
1629880744554,-0.3741455078125,0.04376220703125,0.9166259765625
1629880744570,-0.3736572265625,0.04052734375,0.915283203125
1629880744586,-0.37310791015625,0.040771484375,0.91790771484375
1629880744601,-0.37255859375,0.03826904296875,0.9158935546875
1629880744601,-0.3740234375,0.04266357421875,0.91583251953125
1629880744710,-0.376220703125,0.03778076171875,0.91815185546875
1629880744710,-0.3741455078125,0.0380859375,0.9188232421875
1629880744710,-0.371826171875,0.04241943359375,0.92010498046875
1629880744742,-0.3739013671875,0.04412841796875,0.920166015625
1629880744757,-0.370849609375,0.04388427734375,0.91961669921875
1629880744757,-0.3714599609375,0.04229736328125,0.9173583984375
1629880744773,-0.375244140625,0.0426025390625,0.92156982421875
1629880744789,-0.37469482421875,0.040283203125,0.92169189453125
1629880744789,-0.3731689453125,0.0377197265625,0.92156982421875
1629880744882,-0.37237548828125,0.03662109375,0.919921875
1629880744898,-0.37774658203125,0.03271484375,0.91796875
1629880744898,-0.37445068359375,0.0343017578125,0.91522216796875
1629880744929,-0.37921142578125,0.0367431640625,0.913818359375
1629880744945,-0.37890625,0.031494140625,0.915283203125
1629880744945,-0.37646484375,0.03326416015625,0.91290283203125
1629880744960,-0.38079833984375,0.0430908203125,0.90887451171875
1629880744960,-0.3758544921875,0.03826904296875,0.91143798828125
1629880744960,-0.3770751953125,0.0404052734375,0.91180419921875
1629880745049,-0.37890625,0.04052734375,0.91497802734375
1629880745049,-0.37811279296875,0.042236328125,0.91217041015625
1629880745065,-0.37451171875,0.042724609375,0.91217041015625
1629880745112,-0.373779296875,0.03802490234375,0.917724609375
1629880745112,-0.37518310546875,0.0338134765625,0.91595458984375
1629880745112,-0.376953125,0.03607177734375,0.91943359375
1629880745144,-0.37481689453125,0.03326416015625,0.917236328125
1629880745145,-0.37286376953125,0.03533935546875,0.919189453125
1629880745148,-0.370361328125,0.033203125,0.919189453125
1629880745205,-0.36956787109375,0.041259765625,0.92425537109375
1629880745205,-0.37225341796875,0.038330078125,0.92425537109375
1629880745205,-0.3720703125,0.03436279296875,0.923828125
1629880745317,-0.372802734375,0.04412841796875,0.923828125
1629880745317,-0.3721923828125,0.04205322265625,0.91705322265625
1629880745317,-0.37493896484375,0.04034423828125,0.9158935546875
1629880745362,-0.37457275390625,0.04058837890625,0.9151611328125
1629880745362,-0.3741455078125,0.03656005859375,0.91204833984375
1629880745363,-0.37445068359375,0.03875732421875,0.91656494140625
1629880745410,-0.3768310546875,0.0367431640625,0.913330078125
1629880745424,-0.3765869140625,0.03466796875,0.9195556640625
1629880745425,-0.373779296875,0.03729248046875,0.91619873046875
1629880745486,-0.37628173828125,0.04022216796875,0.91876220703125
1629880745486,-0.37353515625,0.041259765625,0.9168701171875
1629880745503,-0.37542724609375,0.03558349609375,0.92169189453125
1629880745534,-0.3736572265625,0.03955078125,0.9197998046875
1629880745534,-0.37615966796875,0.036865234375,0.91900634765625
1629880745534,-0.37713623046875,0.041259765625,0.92022705078125
1629880745594,-0.37310791015625,0.04034423828125,0.9200439453125
1629880745594,-0.37591552734375,0.03729248046875,0.91571044921875
1629880745594,-0.37646484375,0.0369873046875,0.91839599609375
1629880745640,-0.3770751953125,0.0386962890625,0.916259765625
1629880745656,-0.37713623046875,0.03607177734375,0.916015625
1629880745656,-0.37738037109375,0.037109375,0.9140625
1629880745672,-0.37603759765625,0.0364990234375,0.91619873046875
1629880745672,-0.3760986328125,0.03839111328125,0.9129638671875
1629880745687,-0.3759765625,0.04071044921875,0.91461181640625
1629880745784,-0.37579345703125,0.0439453125,0.9176025390625
1629880745784,-0.375244140625,0.04119873046875,0.91522216796875
1629880745784,-0.37945556640625,0.039794921875,0.9178466796875
1629880745831,-0.374267578125,0.0350341796875,0.9178466796875
1629880745831,-0.37646484375,0.0374755859375,0.91839599609375
1629880745831,-0.37762451171875,0.0382080078125,0.92034912109375
1629880745846,-0.37744140625,0.03558349609375,0.9151611328125
1629880745846,-0.37677001953125,0.0343017578125,0.916259765625
1629880745862,-0.38006591796875,0.03851318359375,0.91650390625
1629880745956,-0.37933349609375,0.037109375,0.91387939453125
1629880745956,-0.3758544921875,0.03814697265625,0.91400146484375
1629880745956,-0.3780517578125,0.03973388671875,0.91680908203125
1629880746002,-0.3802490234375,0.04290771484375,0.9149169921875
1629880746002,-0.379150390625,0.037109375,0.91748046875
1629880746003,-0.37750244140625,0.04241943359375,0.9158935546875
1629880746033,-0.3787841796875,0.04119873046875,0.912353515625
1629880746037,-0.3798828125,0.03485107421875,0.9158935546875
1629880746051,-0.37994384765625,0.04193115234375,0.914794921875
1629880746080,-0.37835693359375,0.0350341796875,0.9117431640625
1629880746080,-0.37664794921875,0.03253173828125,0.91522216796875
1629880746081,-0.37628173828125,0.0362548828125,0.914794921875
1629880746133,-0.37286376953125,0.0341796875,0.91925048828125
1629880746146,-0.37921142578125,0.0347900390625,0.91571044921875
1629880746148,-0.3779296875,0.03533935546875,0.91876220703125
1629880746221,-0.37615966796875,0.03271484375,0.91986083984375
1629880746221,-0.376953125,0.036865234375,0.9197998046875
1629880746237,-0.37469482421875,0.037353515625,0.9212646484375
1629880746284,-0.374755859375,0.0350341796875,0.91357421875
1629880746284,-0.3780517578125,0.03466796875,0.9188232421875
1629880746285,-0.3760986328125,0.0355224609375,0.9151611328125
1629880746331,-0.38018798828125,0.03076171875,0.91485595703125
1629880746331,-0.3780517578125,0.03350830078125,0.912841796875
1629880746345,-0.37860107421875,0.0286865234375,0.91339111328125
1629880746361,-0.37835693359375,0.02886962890625,0.91619873046875
1629880746376,-0.3768310546875,0.028564453125,0.91656494140625
1629880746376,-0.37890625,0.03057861328125,0.9171142578125
1629880746439,-0.3741455078125,0.02728271484375,0.91558837890625
1629880746439,-0.37811279296875,0.03082275390625,0.915771484375
1629880746439,-0.37530517578125,0.0291748046875,0.91845703125
1629880746503,-0.3759765625,0.03131103515625,0.9163818359375
1629880746503,-0.3768310546875,0.030029296875,0.91448974609375
1629880746518,-0.37646484375,0.03509521484375,0.916015625
1629880746559,-0.37548828125,0.02996826171875,0.9161376953125
1629880746559,-0.37841796875,0.03057861328125,0.917236328125
1629880746575,-0.3795166015625,0.030029296875,0.9176025390625
1629880746622,-0.37786865234375,0.03277587890625,0.91571044921875
1629880746622,-0.38226318359375,0.03411865234375,0.91748046875
1629880746622,-0.3758544921875,0.03143310546875,0.91741943359375
1629880746653,-0.37823486328125,0.03485107421875,0.91546630859375
1629880746653,-0.37811279296875,0.03375244140625,0.9161376953125
1629880746668,-0.3778076171875,0.0323486328125,0.9180908203125
1629880746748,-0.3787841796875,0.0291748046875,0.9166259765625
1629880746749,-0.37542724609375,0.03076171875,0.91607666015625
1629880746749,-0.3798828125,0.03118896484375,0.91778564453125
1629880746809,-0.37884521484375,0.0303955078125,0.9163818359375
1629880746825,-0.376220703125,0.0262451171875,0.9178466796875
1629880746828,-0.37457275390625,0.02734375,0.9189453125
1629880746841,-0.38018798828125,0.03289794921875,0.91644287109375
1629880746841,-0.37713623046875,0.03302001953125,0.91851806640625
1629880746841,-0.37451171875,0.03448486328125,0.9117431640625
1629880746919,-0.3770751953125,0.03173828125,0.9141845703125
1629880746919,-0.37701416015625,0.03509521484375,0.9151611328125
1629880746919,-0.3792724609375,0.03607177734375,0.91278076171875
1629880747022,-0.3790283203125,0.0302734375,0.91827392578125
1629880747022,-0.3768310546875,0.0313720703125,0.91375732421875
1629880747022,-0.37640380859375,0.0302734375,0.91754150390625
1629880747043,-0.3775634765625,0.026611328125,0.917724609375
1629880747044,-0.3787841796875,0.02813720703125,0.91998291015625
1629880747044,-0.3782958984375,0.0250244140625,0.9185791015625
1629880747091,-0.37548828125,0.0267333984375,0.9178466796875
1629880747091,-0.37890625,0.0291748046875,0.9141845703125
1629880747091,-0.38067626953125,0.02838134765625,0.91827392578125
1629880747122,-0.37646484375,0.03460693359375,0.91314697265625
1629880747122,-0.38055419921875,0.036865234375,0.9180908203125
1629880747122,-0.37542724609375,0.03021240234375,0.92083740234375
1629880747184,-0.372802734375,0.0341796875,0.91619873046875
1629880747184,-0.37811279296875,0.0303955078125,0.92047119140625
1629880747184,-0.37628173828125,0.03076171875,0.9189453125
1629880747262,-0.37506103515625,0.02935791015625,0.91497802734375
1629880747262,-0.375,0.02703857421875,0.9171142578125
1629880747262,-0.37774658203125,0.02978515625,0.91571044921875
1629880747338,-0.377197265625,0.03125,0.916748046875
1629880747338,-0.37493896484375,0.032470703125,0.9185791015625
1629880747338,-0.37579345703125,0.03411865234375,0.9161376953125
1629880747371,-0.3763427734375,0.03173828125,0.91937255859375
1629880747371,-0.3778076171875,0.03411865234375,0.91827392578125
1629880747371,-0.37591552734375,0.03118896484375,0.9183349609375
1629880747418,-0.373046875,0.0361328125,0.9208984375
1629880747418,-0.3758544921875,0.0355224609375,0.91741943359375
1629880747419,-0.3720703125,0.034912109375,0.92095947265625
1629880747466,-0.377197265625,0.03533935546875,0.9207763671875
1629880747466,-0.3734130859375,0.03497314453125,0.9205322265625
1629880747466,-0.3758544921875,0.03253173828125,0.91558837890625
1629880747530,-0.3746337890625,0.0364990234375,0.9161376953125
1629880747530,-0.37481689453125,0.03485107421875,0.91552734375
1629880747530,-0.37451171875,0.0360107421875,0.91717529296875
1629880747591,-0.37646484375,0.03472900390625,0.9158935546875
1629880747606,-0.378662109375,0.0345458984375,0.91650390625
1629880747606,-0.37811279296875,0.03619384765625,0.91473388671875
1629880747685,-0.37835693359375,0.04052734375,0.91571044921875
1629880747685,-0.3770751953125,0.03851318359375,0.91888427734375
1629880747685,-0.3782958984375,0.03826904296875,0.9183349609375
1629880747747,-0.3798828125,0.03814697265625,0.91278076171875
1629880747747,-0.37744140625,0.0350341796875,0.9132080078125
1629880747747,-0.37921142578125,0.03704833984375,0.91436767578125
1629880747761,-0.37579345703125,0.0406494140625,0.91387939453125
1629880747777,-0.37908935546875,0.0389404296875,0.91302490234375
1629880747777,-0.374267578125,0.04052734375,0.918212890625
1629880747855,-0.37255859375,0.04351806640625,0.91998291015625
1629880747871,-0.37628173828125,0.04083251953125,0.919921875
1629880747871,-0.37615966796875,0.046630859375,0.9217529296875
1629880747933,-0.37445068359375,0.0421142578125,0.9207763671875
1629880747933,-0.38043212890625,0.04058837890625,0.91632080078125
1629880747949,-0.375,0.04437255859375,0.9207763671875
1629880747965,-0.380126953125,0.0384521484375,0.9117431640625
1629880747965,-0.3792724609375,0.03594970703125,0.91192626953125
1629880747980,-0.37933349609375,0.03399658203125,0.9134521484375
1629880748031,-0.379150390625,0.03497314453125,0.9178466796875
1629880748031,-0.37847900390625,0.038330078125,0.91473388671875
1629880748031,-0.38043212890625,0.033203125,0.91717529296875
1629880748075,-0.37750244140625,0.040771484375,0.91796875
1629880748076,-0.38134765625,0.04034423828125,0.9166259765625
1629880748076,-0.375,0.04302978515625,0.91455078125
1629880748122,-0.3798828125,0.041015625,0.91729736328125
1629880748122,-0.376708984375,0.03955078125,0.91448974609375
1629880748123,-0.37860107421875,0.04205322265625,0.916259765625
1629880748193,-0.37457275390625,0.04296875,0.915283203125
1629880748193,-0.3743896484375,0.0391845703125,0.92236328125
1629880748193,-0.37652587890625,0.03985595703125,0.915771484375
1629880748255,-0.37506103515625,0.0399169921875,0.91796875
1629880748255,-0.3751220703125,0.04241943359375,0.9224853515625
1629880748255,-0.377197265625,0.03887939453125,0.9261474609375
1629880748350,-0.3798828125,0.0377197265625,0.91705322265625
1629880748350,-0.38043212890625,0.03515625,0.91363525390625
1629880748351,-0.3759765625,0.04241943359375,0.9130859375
1629880748399,-0.37701416015625,0.03558349609375,0.91424560546875
1629880748399,-0.380859375,0.0367431640625,0.91546630859375
1629880748400,-0.37860107421875,0.035400390625,0.9140625
1629880748429,-0.37939453125,0.037841796875,0.9161376953125
1629880748430,-0.38067626953125,0.03985595703125,0.91656494140625
1629880748430,-0.3795166015625,0.0421142578125,0.915771484375
1629880748509,-0.3782958984375,0.04742431640625,0.913330078125
1629880748509,-0.382080078125,0.0457763671875,0.91497802734375
1629880748509,-0.3785400390625,0.04571533203125,0.916748046875
1629880748571,-0.37896728515625,0.04510498046875,0.915283203125
1629880748585,-0.3792724609375,0.04351806640625,0.915283203125
1629880748586,-0.3843994140625,0.04620361328125,0.9149169921875
1629880748618,-0.38037109375,0.046630859375,0.910400390625
1629880748618,-0.38330078125,0.04681396484375,0.91265869140625
1629880748618,-0.37933349609375,0.04266357421875,0.91522216796875
1629880748711,-0.373291015625,0.0438232421875,0.9127197265625
1629880748711,-0.37628173828125,0.04779052734375,0.91357421875
1629880748730,-0.37982177734375,0.0516357421875,0.91827392578125
1629880748743,-0.37994384765625,0.04852294921875,0.91510009765625
1629880748743,-0.37701416015625,0.04840087890625,0.91412353515625
1629880748744,-0.3798828125,0.047119140625,0.91595458984375
1629880748820,-0.37640380859375,0.04498291015625,0.91204833984375
1629880748820,-0.38104248046875,0.04718017578125,0.91680908203125
1629880748820,-0.37908935546875,0.0440673828125,0.91650390625
1629880748836,-0.3763427734375,0.04827880859375,0.91461181640625
1629880748836,-0.37774658203125,0.04840087890625,0.9144287109375
1629880748836,-0.3787841796875,0.04669189453125,0.91448974609375
1629880748932,-0.37982177734375,0.04974365234375,0.91876220703125
1629880748932,-0.37872314453125,0.0501708984375,0.91583251953125
1629880748932,-0.375732421875,0.04974365234375,0.914306640625
1629880748993,-0.37835693359375,0.048828125,0.91552734375
1629880748993,-0.37664794921875,0.0455322265625,0.91802978515625
1629880749084,-0.3782958984375,0.04705810546875,0.91546630859375
1629880749086,-0.3756103515625,0.04888916015625,0.9178466796875
1629880749086,-0.376953125,0.04644775390625,0.91827392578125
1629880749117,-0.37640380859375,0.04779052734375,0.916748046875
1629880749117,-0.37359619140625,0.04791259765625,0.9173583984375
1629880749119,-0.376953125,0.05035400390625,0.9117431640625
1629880749148,-0.37677001953125,0.05413818359375,0.91455078125
1629880749166,-0.37646484375,0.051025390625,0.9122314453125
1629880749166,-0.37847900390625,0.05084228515625,0.913330078125
1629880749226,-0.37744140625,0.04461669921875,0.91363525390625
1629880749226,-0.37799072265625,0.04779052734375,0.915771484375
1629880749242,-0.3798828125,0.04376220703125,0.91802978515625
1629880749303,-0.375732421875,0.04248046875,0.9161376953125
1629880749303,-0.37884521484375,0.0404052734375,0.915771484375
1629880749303,-0.37921142578125,0.0396728515625,0.91748046875
1629880749351,-0.38153076171875,0.0460205078125,0.91796875
1629880749351,-0.37506103515625,0.0440673828125,0.9154052734375
1629880749351,-0.38037109375,0.04541015625,0.916015625
1629880749382,-0.3785400390625,0.04693603515625,0.912841796875
1629880749382,-0.3779296875,0.0533447265625,0.9151611328125
1629880749398,-0.38037109375,0.05145263671875,0.9151611328125
1629880749427,-0.3773193359375,0.0462646484375,0.91448974609375
1629880749427,-0.37664794921875,0.04656982421875,0.91436767578125
1629880749428,-0.37847900390625,0.04461669921875,0.91351318359375
1629880749489,-0.37371826171875,0.04327392578125,0.91265869140625
1629880749489,-0.3741455078125,0.038818359375,0.91766357421875
1629880749506,-0.374267578125,0.0360107421875,0.91595458984375
1629880749559,-0.3758544921875,0.03973388671875,0.9185791015625
1629880749559,-0.374267578125,0.04656982421875,0.91949462890625
1629880749559,-0.36737060546875,0.0465087890625,0.92303466796875
1629880749623,-0.37371826171875,0.04571533203125,0.92047119140625
1629880749623,-0.37652587890625,0.04046630859375,0.91949462890625
1629880749623,-0.373046875,0.0462646484375,0.92022705078125
1629880749701,-0.37542724609375,0.04010009765625,0.92169189453125
1629880749701,-0.37396240234375,0.04498291015625,0.91632080078125
1629880749701,-0.3721923828125,0.04058837890625,0.91632080078125
1629880749780,-0.37408447265625,0.04095458984375,0.916015625
1629880749780,-0.3748779296875,0.04229736328125,0.916259765625
1629880749780,-0.3741455078125,0.042236328125,0.9224853515625
1629880749811,-0.37188720703125,0.044189453125,0.91845703125
1629880749811,-0.37286376953125,0.04315185546875,0.9129638671875
1629880749811,-0.371826171875,0.04864501953125,0.91717529296875
1629880749858,-0.37445068359375,0.04400634765625,0.91632080078125
1629880749858,-0.374755859375,0.043212890625,0.91748046875
1629880749858,-0.37359619140625,0.0438232421875,0.91534423828125
1629880749889,-0.37664794921875,0.03924560546875,0.9166259765625
1629880749889,-0.37518310546875,0.04327392578125,0.9183349609375
1629880749904,-0.37567138671875,0.04315185546875,0.91748046875
1629880750014,-0.37457275390625,0.04443359375,0.915771484375
1629880750014,-0.3760986328125,0.039794921875,0.91925048828125
1629880750014,-0.37518310546875,0.0457763671875,0.914794921875
1629880750061,-0.3751220703125,0.0390625,0.91400146484375
1629880750061,-0.37652587890625,0.04071044921875,0.91412353515625
1629880750061,-0.37689208984375,0.044921875,0.913330078125
1629880750092,-0.3765869140625,0.0421142578125,0.918212890625
1629880750092,-0.37548828125,0.03680419921875,0.91815185546875
1629880750092,-0.37518310546875,0.038818359375,0.91778564453125
1629880750170,-0.3758544921875,0.03900146484375,0.91998291015625
1629880750170,-0.37847900390625,0.04229736328125,0.9189453125
1629880750170,-0.37725830078125,0.04034423828125,0.91741943359375
1629880750218,-0.37353515625,0.04364013671875,0.91552734375
1629880750218,-0.37921142578125,0.0418701171875,0.91656494140625
1629880750218,-0.3763427734375,0.0450439453125,0.91290283203125
1629880750265,-0.38116455078125,0.0457763671875,0.91796875
1629880750265,-0.37884521484375,0.0460205078125,0.9173583984375
1629880750265,-0.37646484375,0.04449462890625,0.9144287109375
1629880750358,-0.3779296875,0.03887939453125,0.9149169921875
1629880750358,-0.37799072265625,0.0390625,0.91595458984375
1629880750358,-0.379150390625,0.0408935546875,0.91497802734375
1629880750389,-0.37713623046875,0.0372314453125,0.91326904296875
1629880750389,-0.37969970703125,0.03826904296875,0.9144287109375
1629880750389,-0.37371826171875,0.03839111328125,0.912353515625
1629880750421,-0.3719482421875,0.03411865234375,0.918212890625
1629880750421,-0.3731689453125,0.038330078125,0.92083740234375
1629880750421,-0.37542724609375,0.0384521484375,0.92059326171875
1629880750514,-0.37237548828125,0.0440673828125,0.92230224609375
1629880750514,-0.37689208984375,0.04412841796875,0.92034912109375
1629880750514,-0.375244140625,0.0411376953125,0.918212890625
1629880750580,-0.3748779296875,0.04052734375,0.91607666015625
1629880750580,-0.37689208984375,0.03887939453125,0.913818359375
1629880750580,-0.37640380859375,0.037353515625,0.91693115234375
1629880750658,-0.37457275390625,0.03936767578125,0.9158935546875
1629880750658,-0.37640380859375,0.03765869140625,0.91534423828125
1629880750658,-0.37646484375,0.04052734375,0.9205322265625
1629880750689,-0.37872314453125,0.03948974609375,0.91558837890625
1629880750689,-0.3763427734375,0.043701171875,0.91802978515625
1629880750689,-0.37542724609375,0.03790283203125,0.91796875
1629880750767,-0.37744140625,0.0401611328125,0.91796875
1629880750767,-0.3748779296875,0.0406494140625,0.91796875
1629880750767,-0.37445068359375,0.0369873046875,0.917236328125
1629880750798,-0.37701416015625,0.04248046875,0.923095703125
1629880750798,-0.37371826171875,0.041259765625,0.92291259765625
1629880750798,-0.37335205078125,0.0419921875,0.91888427734375
1629880750861,-0.37518310546875,0.03839111328125,0.9190673828125
1629880750861,-0.37164306640625,0.03765869140625,0.9190673828125
1629880750876,-0.375244140625,0.03582763671875,0.918212890625
1629880750892,-0.3756103515625,0.03924560546875,0.91619873046875
1629880750892,-0.37908935546875,0.03753662109375,0.912841796875
1629880750892,-0.3726806640625,0.0380859375,0.916748046875
1629880750970,-0.3778076171875,0.03814697265625,0.91229248046875
1629880750970,-0.37774658203125,0.035888671875,0.9140625
1629880750970,-0.37860107421875,0.0323486328125,0.9168701171875
1629880751048,-0.37701416015625,0.02911376953125,0.9149169921875
1629880751048,-0.3780517578125,0.0340576171875,0.9176025390625
1629880751048,-0.37811279296875,0.03338623046875,0.91546630859375
1629880751126,-0.38092041015625,0.0352783203125,0.91290283203125
1629880751126,-0.37762451171875,0.0390625,0.91314697265625
1629880751126,-0.37750244140625,0.0330810546875,0.91436767578125
1629880751142,-0.3775634765625,0.04156494140625,0.919189453125
1629880751142,-0.376708984375,0.0390625,0.9149169921875
1629880751142,-0.37628173828125,0.03948974609375,0.91741943359375
1629880751206,-0.3773193359375,0.033935546875,0.91766357421875
1629880751206,-0.37353515625,0.0438232421875,0.9193115234375
1629880751207,-0.37579345703125,0.0394287109375,0.92059326171875
1629880751276,-0.37420654296875,0.03338623046875,0.9127197265625
1629880751276,-0.37237548828125,0.03485107421875,0.9163818359375
1629880751276,-0.37591552734375,0.0347900390625,0.91680908203125
1629880751338,-0.3719482421875,0.03350830078125,0.91790771484375
1629880751338,-0.37548828125,0.041748046875,0.9210205078125
1629880751338,-0.37603759765625,0.03302001953125,0.9178466796875
1629880751432,-0.37225341796875,0.04400634765625,0.92010498046875
1629880751432,-0.3748779296875,0.0496826171875,0.9210205078125
1629880751432,-0.37353515625,0.05023193359375,0.9180908203125
1629880751463,-0.37451171875,0.04486083984375,0.9189453125
1629880751463,-0.3759765625,0.0400390625,0.91827392578125
1629880751463,-0.37591552734375,0.03704833984375,0.91754150390625
1629880751510,-0.38104248046875,0.0316162109375,0.92095947265625
1629880751510,-0.3765869140625,0.0374755859375,0.91461181640625
1629880751510,-0.37835693359375,0.033447265625,0.9163818359375
1629880751573,-0.37799072265625,0.03839111328125,0.9136962890625
1629880751574,-0.379638671875,0.03839111328125,0.91363525390625
1629880751589,-0.37786865234375,0.0318603515625,0.91650390625
1629880751638,-0.38507080078125,0.037109375,0.92230224609375
1629880751638,-0.38262939453125,0.0419921875,0.91619873046875
1629880751653,-0.38275146484375,0.0355224609375,0.9254150390625
1629880751700,-0.38348388671875,0.03472900390625,0.925537109375
1629880751700,-0.384765625,0.03729248046875,0.93096923828125
1629880751716,-0.3826904296875,0.037109375,0.93084716796875
1629880751747,-0.39129638671875,0.03363037109375,0.90869140625
1629880751747,-0.38555908203125,0.038330078125,0.91943359375
1629880751747,-0.38775634765625,0.03253173828125,0.912353515625
1629880751825,-0.39727783203125,0.0341796875,0.90045166015625
1629880751825,-0.396728515625,0.03759765625,0.9010009765625
1629880751841,-0.40301513671875,0.03704833984375,0.89495849609375
1629880751872,-0.41485595703125,0.0352783203125,0.90863037109375
1629880751872,-0.41259765625,0.04034423828125,0.90753173828125
1629880751872,-0.4130859375,0.0391845703125,0.91375732421875
1629880751919,-0.4276123046875,0.03289794921875,0.8992919921875
1629880751919,-0.42333984375,0.041015625,0.8958740234375
1629880751919,-0.4171142578125,0.03912353515625,0.907958984375
1629880752028,-0.42791748046875,0.032958984375,0.8939208984375
1629880752028,-0.4351806640625,0.029296875,0.87054443359375
1629880752028,-0.43572998046875,0.0322265625,0.88507080078125
1629880752044,-0.44683837890625,0.0333251953125,0.86102294921875
1629880752044,-0.444091796875,0.03472900390625,0.86456298828125
1629880752044,-0.43792724609375,0.03289794921875,0.8641357421875
1629880752137,-0.44122314453125,0.032470703125,0.8719482421875
1629880752137,-0.44696044921875,0.02392578125,0.869384765625
1629880752137,-0.447509765625,0.0284423828125,0.866943359375
1629880752137,-0.443359375,0.033935546875,0.882080078125
1629880752137,-0.4442138671875,0.02392578125,0.8614501953125
1629880752153,-0.4449462890625,0.0264892578125,0.865966796875
1629880752215,-0.43621826171875,0.03057861328125,0.87939453125
1629880752231,-0.4361572265625,0.02569580078125,0.89129638671875
1629880752231,-0.43597412109375,0.03314208984375,0.8831787109375
1629880752247,-0.43402099609375,0.0169677734375,0.89031982421875
1629880752247,-0.43212890625,0.02349853515625,0.88970947265625
1629880752247,-0.43377685546875,0.02581787109375,0.89239501953125
1629880752309,-0.43121337890625,0.02557373046875,0.89453125
1629880752309,-0.42791748046875,0.01959228515625,0.88360595703125
1629880752309,-0.43243408203125,0.01324462890625,0.88909912109375
1629880752387,-0.42974853515625,0.02392578125,0.8924560546875
1629880752387,-0.42816162109375,0.02557373046875,0.87432861328125
1629880752387,-0.433837890625,0.028076171875,0.89599609375
1629880752482,-0.432373046875,0.0328369140625,0.89599609375
1629880752482,-0.44085693359375,0.0364990234375,0.91204833984375
1629880752482,-0.431396484375,0.02947998046875,0.89886474609375
1629880752497,-0.43292236328125,0.03839111328125,0.90325927734375
1629880752527,-0.4337158203125,0.0401611328125,0.90606689453125
1629880752527,-0.42608642578125,0.03826904296875,0.8878173828125
1629880752605,-0.4395751953125,0.037841796875,0.88922119140625
1629880752605,-0.43560791015625,0.04193115234375,0.87359619140625
1629880752605,-0.43365478515625,0.04278564453125,0.8642578125
1629880752638,-0.43316650390625,0.05474853515625,0.87908935546875
1629880752654,-0.4373779296875,0.0467529296875,0.8798828125
1629880752654,-0.4329833984375,0.0501708984375,0.86737060546875
1629880752685,-0.4317626953125,0.06201171875,0.885498046875
1629880752685,-0.42327880859375,0.06683349609375,0.8974609375
1629880752685,-0.42578125,0.0628662109375,0.887939453125
1629880752763,-0.4237060546875,0.06060791015625,0.907470703125
1629880752779,-0.4158935546875,0.037109375,0.89617919921875
1629880752779,-0.41912841796875,0.05072021484375,0.8975830078125
1629880752794,-0.42132568359375,0.01885986328125,0.899658203125
1629880752810,-0.4185791015625,0.01031494140625,0.892333984375
1629880752810,-0.4195556640625,0.02691650390625,0.890625
1629880752872,-0.415771484375,0.009521484375,0.9068603515625
1629880752872,-0.415283203125,0.002685546875,0.898681640625
1629880752872,-0.4180908203125,0.006103515625,0.89837646484375
1629880752919,-0.40869140625,0.01605224609375,0.88824462890625
1629880752919,-0.41424560546875,0.0086669921875,0.892822265625
1629880752919,-0.41351318359375,0.01385498046875,0.88751220703125
1629880753013,-0.40972900390625,0.0150146484375,0.88140869140625
1629880753013,-0.41668701171875,0.0208740234375,0.90374755859375
1629880753013,-0.4205322265625,0.020751953125,0.90277099609375
1629880753075,-0.4189453125,0.02410888671875,0.91644287109375
1629880753075,-0.4122314453125,0.03192138671875,0.933349609375
1629880753075,-0.40966796875,0.02899169921875,0.91058349609375
1629880753091,-0.40924072265625,0.03924560546875,0.9241943359375
1629880753091,-0.40545654296875,0.04742431640625,0.90386962890625
1629880753091,-0.41046142578125,0.0487060546875,0.90008544921875
1629880753169,-0.4139404296875,0.04315185546875,0.90252685546875
1629880753185,-0.41717529296875,0.03265380859375,0.89794921875
1629880753185,-0.41387939453125,0.0384521484375,0.9078369140625
1629880753232,-0.40887451171875,0.044677734375,0.9029541015625
1629880753232,-0.41766357421875,0.0240478515625,0.89727783203125
1629880753232,-0.4193115234375,0.02984619140625,0.8929443359375
1629880753247,-0.41607666015625,0.0552978515625,0.87677001953125
1629880753263,-0.4061279296875,0.05908203125,0.892578125
1629880753263,-0.41473388671875,0.0455322265625,0.87677001953125
1629880753310,-0.41278076171875,0.05279541015625,0.88861083984375
1629880753310,-0.41473388671875,0.05804443359375,0.89697265625
1629880753310,-0.40948486328125,0.05059814453125,0.8804931640625
1629880753419,-0.40435791015625,0.04925537109375,0.890625
1629880753419,-0.40509033203125,0.0516357421875,0.91693115234375
1629880753419,-0.404296875,0.04718017578125,0.90728759765625
1629880753450,-0.394775390625,0.06201171875,0.9132080078125
1629880753450,-0.40869140625,0.05255126953125,0.93231201171875
1629880753450,-0.40130615234375,0.06451416015625,0.9312744140625
1629880753513,-0.39642333984375,0.06585693359375,0.916259765625
1629880753513,-0.39056396484375,0.06500244140625,0.91546630859375
1629880753513,-0.3953857421875,0.067138671875,0.9239501953125
1629880753544,-0.39300537109375,0.05975341796875,0.91363525390625
1629880753544,-0.39166259765625,0.054931640625,0.912353515625
1629880753544,-0.39141845703125,0.05902099609375,0.914794921875
1629880753607,-0.39501953125,0.05377197265625,0.90447998046875
1629880753607,-0.39385986328125,0.05340576171875,0.89544677734375
1629880753607,-0.39630126953125,0.05224609375,0.9019775390625
1629880753719,-0.39520263671875,0.048095703125,0.89617919921875
1629880753719,-0.39581298828125,0.049560546875,0.90313720703125
1629880753719,-0.39471435546875,0.0517578125,0.900390625
1629880753750,-0.39617919921875,0.04083251953125,0.90069580078125
1629880753750,-0.39947509765625,0.0504150390625,0.905517578125
1629880753750,-0.4002685546875,0.04931640625,0.90655517578125
1629880753828,-0.3995361328125,0.04290771484375,0.9090576171875
1629880753844,-0.3975830078125,0.04388427734375,0.91473388671875
1629880753844,-0.3997802734375,0.04296875,0.9110107421875
1629880753875,-0.3974609375,0.04095458984375,0.91497802734375
1629880753890,-0.3948974609375,0.0416259765625,0.91961669921875
1629880753890,-0.39715576171875,0.041259765625,0.918212890625
1629880753922,-0.39984130859375,0.04461669921875,0.9136962890625
1629880753922,-0.3983154296875,0.04608154296875,0.9112548828125
1629880753922,-0.4010009765625,0.0460205078125,0.9095458984375
1629880754016,-0.4013671875,0.04315185546875,0.90692138671875
1629880754016,-0.4029541015625,0.047119140625,0.896484375
1629880754016,-0.401611328125,0.04736328125,0.906494140625
1629880754047,-0.40447998046875,0.04779052734375,0.90008544921875
1629880754047,-0.40301513671875,0.05078125,0.89544677734375
1629880754047,-0.40350341796875,0.04718017578125,0.8963623046875
1629880754125,-0.40545654296875,0.05755615234375,0.889404296875
1629880754140,-0.4051513671875,0.0540771484375,0.89276123046875
1629880754140,-0.40277099609375,0.0570068359375,0.90032958984375
1629880754172,-0.40234375,0.05682373046875,0.89093017578125
1629880754172,-0.40386962890625,0.05804443359375,0.906005859375
1629880754172,-0.40753173828125,0.05792236328125,0.898193359375
1629880754219,-0.40386962890625,0.05426025390625,0.90924072265625
1629880754219,-0.4033203125,0.05523681640625,0.9149169921875
1629880754234,-0.403076171875,0.05389404296875,0.91522216796875
1629880754250,-0.4010009765625,0.05419921875,0.90716552734375
1629880754266,-0.4027099609375,0.05419921875,0.90850830078125
1629880754267,-0.3994140625,0.05316162109375,0.9134521484375
1629880754388,-0.4041748046875,0.0501708984375,0.90533447265625
1629880754388,-0.40020751953125,0.0540771484375,0.91595458984375
1629880754404,-0.401123046875,0.0528564453125,0.90814208984375
1629880754435,-0.4012451171875,0.05364990234375,0.89642333984375
1629880754435,-0.4029541015625,0.05426025390625,0.89434814453125
1629880754435,-0.4036865234375,0.0562744140625,0.90008544921875
1629880754466,-0.39910888671875,0.05181884765625,0.89813232421875
1629880754466,-0.400390625,0.05303955078125,0.9027099609375
1629880754466,-0.40283203125,0.05389404296875,0.90069580078125
1629880754529,-0.399169921875,0.05474853515625,0.90618896484375
1629880754529,-0.40069580078125,0.05047607421875,0.90771484375
1629880754529,-0.39776611328125,0.0501708984375,0.90167236328125
1629880754576,-0.3984375,0.04632568359375,0.9036865234375
1629880754591,-0.39825439453125,0.05316162109375,0.9112548828125
1629880754591,-0.40081787109375,0.05133056640625,0.9075927734375
1629880754641,-0.39910888671875,0.043701171875,0.9127197265625
1629880754642,-0.39849853515625,0.05072021484375,0.91412353515625
1629880754642,-0.3958740234375,0.04840087890625,0.91851806640625
1629880754673,-0.3958740234375,0.04876708984375,0.91888427734375
1629880754673,-0.39947509765625,0.04473876953125,0.920654296875
1629880754688,-0.39691162109375,0.04315185546875,0.917724609375
1629880754767,-0.394287109375,0.04345703125,0.8966064453125
1629880754767,-0.40313720703125,0.04510498046875,0.916015625
1629880754767,-0.39764404296875,0.05242919921875,0.9049072265625
1629880754813,-0.402587890625,0.03924560546875,0.91583251953125
1629880754813,-0.39788818359375,0.04058837890625,0.90069580078125
1629880754829,-0.3978271484375,0.03887939453125,0.90008544921875
1629880754845,-0.3978271484375,0.04095458984375,0.89617919921875
1629880754845,-0.39520263671875,0.04443359375,0.89111328125
1629880754860,-0.403076171875,0.0394287109375,0.90771484375
1629880754923,-0.39996337890625,0.04254150390625,0.91278076171875
1629880754923,-0.4013671875,0.0462646484375,0.90234375
1629880754939,-0.4017333984375,0.04150390625,0.89886474609375
1629880754985,-0.3992919921875,0.04248046875,0.909912109375
1629880755001,-0.40093994140625,0.042724609375,0.91107177734375
1629880755001,-0.39886474609375,0.04248046875,0.904296875
1629880755032,-0.39984130859375,0.04852294921875,0.90966796875
1629880755032,-0.39923095703125,0.052490234375,0.90960693359375
1629880755032,-0.39984130859375,0.04974365234375,0.9117431640625
1629880755079,-0.400146484375,0.0418701171875,0.90802001953125
1629880755079,-0.3995361328125,0.048828125,0.9132080078125
1629880755079,-0.3980712890625,0.043212890625,0.90533447265625
1629880755157,-0.39892578125,0.036376953125,0.907958984375
1629880755157,-0.39642333984375,0.04180908203125,0.89385986328125
1629880755157,-0.39892578125,0.03759765625,0.90313720703125
1629880755235,-0.3985595703125,0.03704833984375,0.90667724609375
1629880755235,-0.3973388671875,0.0377197265625,0.905517578125
1629880755235,-0.39990234375,0.0350341796875,0.90069580078125
1629880755266,-0.40435791015625,0.0474853515625,0.90667724609375
1629880755266,-0.4027099609375,0.04412841796875,0.8946533203125
1629880755266,-0.40142822265625,0.04498291015625,0.90106201171875
1629880755329,-0.408447265625,0.04656982421875,0.9000244140625
1629880755345,-0.40423583984375,0.046875,0.898193359375
1629880755345,-0.40509033203125,0.0477294921875,0.90057373046875
1629880755391,-0.40765380859375,0.0491943359375,0.9088134765625
1629880755391,-0.409912109375,0.04522705078125,0.908935546875
1629880755391,-0.4073486328125,0.0469970703125,0.90850830078125
1629880755470,-0.4107666015625,0.0455322265625,0.91094970703125
1629880755470,-0.41070556640625,0.04266357421875,0.90045166015625
1629880755485,-0.41094970703125,0.0438232421875,0.90838623046875
1629880755532,-0.41278076171875,0.04205322265625,0.90130615234375
1629880755532,-0.41192626953125,0.036376953125,0.90740966796875
1629880755548,-0.4132080078125,0.0421142578125,0.9073486328125
1629880755579,-0.41143798828125,0.03985595703125,0.91302490234375
1629880755579,-0.4105224609375,0.04840087890625,0.89239501953125
1629880755579,-0.41314697265625,0.04119873046875,0.9010009765625
1629880755626,-0.40948486328125,0.04150390625,0.8812255859375
1629880755626,-0.41192626953125,0.0399169921875,0.890869140625
1629880755641,-0.413330078125,0.0411376953125,0.89923095703125
1629880755705,-0.4085693359375,0.0406494140625,0.87982177734375
1629880755705,-0.40997314453125,0.03875732421875,0.89202880859375
1629880755705,-0.40814208984375,0.03704833984375,0.89642333984375
1629880755722,-0.4124755859375,0.04547119140625,0.89923095703125
1629880755722,-0.41241455078125,0.0413818359375,0.90582275390625
1629880755722,-0.41015625,0.04144287109375,0.9019775390625
1629880755847,-0.41973876953125,0.05841064453125,0.897705078125
1629880755862,-0.4129638671875,0.0504150390625,0.8939208984375
1629880755862,-0.4154052734375,0.046142578125,0.9000244140625
1629880755893,-0.419189453125,0.0426025390625,0.90228271484375
1629880755909,-0.41815185546875,0.05029296875,0.89996337890625
1629880755909,-0.41912841796875,0.0579833984375,0.90484619140625
1629880755940,-0.41705322265625,0.04083251953125,0.8736572265625
1629880755940,-0.4180908203125,0.03778076171875,0.89739990234375
1629880755940,-0.419677734375,0.03167724609375,0.89410400390625
1629880755956,-0.42279052734375,0.031494140625,0.9068603515625
1629880755956,-0.4229736328125,0.03216552734375,0.9093017578125
1629880755956,-0.4259033203125,0.03759765625,0.9029541015625
1629880756081,-0.42608642578125,0.04132080078125,0.90399169921875
1629880756081,-0.42535400390625,0.0478515625,0.9010009765625
1629880756096,-0.4228515625,0.0390625,0.89898681640625
1629880756096,-0.42938232421875,0.0582275390625,0.888916015625
1629880756112,-0.42919921875,0.05023193359375,0.9063720703125
1629880756112,-0.43310546875,0.05364990234375,0.8665771484375
1629880756190,-0.4339599609375,0.0584716796875,0.862548828125
1629880756190,-0.44000244140625,0.059814453125,0.8765869140625
1629880756190,-0.44287109375,0.05987548828125,0.86932373046875
1629880756253,-0.4422607421875,0.0494384765625,0.88262939453125
1629880756253,-0.43939208984375,0.0556640625,0.8701171875
1629880756253,-0.43939208984375,0.05810546875,0.88201904296875
1629880756268,-0.44580078125,0.05499267578125,0.88385009765625
1629880756284,-0.44500732421875,0.05712890625,0.87530517578125
1629880756284,-0.44390869140625,0.0584716796875,0.87615966796875
1629880756378,-0.4508056640625,0.05975341796875,0.864013671875
1629880756378,-0.4503173828125,0.06243896484375,0.87158203125
1629880756378,-0.44647216796875,0.059326171875,0.89501953125
1629880756409,-0.443115234375,0.076416015625,0.92413330078125
1629880756425,-0.4267578125,0.0576171875,0.94366455078125
1629880756425,-0.40234375,0.00469970703125,0.93463134765625
1629880756471,-0.424560546875,0.0179443359375,0.87945556640625
1629880756471,-0.433349609375,0.04608154296875,0.82574462890625
1629880756471,-0.41143798828125,-0.0023193359375,0.9193115234375
1629880756534,-0.44818115234375,0.0838623046875,0.86334228515625
1629880756534,-0.4423828125,0.0731201171875,0.8284912109375
1629880756534,-0.448974609375,0.07574462890625,0.88726806640625
1629880756593,-0.445556640625,0.05413818359375,0.877197265625
1629880756609,-0.44732666015625,0.06524658203125,0.86859130859375
1629880756609,-0.44525146484375,0.06414794921875,0.87298583984375
1629880756609,-0.4515380859375,0.05816650390625,0.85809326171875
1629880756609,-0.4627685546875,0.04461669921875,0.8939208984375
1629880756609,-0.45147705078125,0.04864501953125,0.90386962890625
1629880756687,-0.46466064453125,0.03326416015625,0.880126953125
1629880756702,-0.4600830078125,0.03558349609375,0.864990234375
1629880756702,-0.4598388671875,0.02777099609375,0.86566162109375
1629880756785,-0.45977783203125,0.03704833984375,0.8599853515625
1629880756785,-0.458984375,0.03497314453125,0.890380859375
1629880756801,-0.46148681640625,0.03533935546875,0.92138671875
1629880756848,-0.456298828125,0.05224609375,0.894287109375
1629880756848,-0.4544677734375,0.052001953125,0.87164306640625
1629880756848,-0.45904541015625,0.041748046875,0.90252685546875
1629880756879,-0.45489501953125,0.05291748046875,0.8773193359375
1629880756879,-0.46258544921875,0.05694580078125,0.85614013671875
1629880756895,-0.455078125,0.05029296875,0.871826171875
1629880756910,-0.4571533203125,0.05633544921875,0.86407470703125
1629880756910,-0.448974609375,0.05584716796875,0.85858154296875
1629880756926,-0.46148681640625,0.0516357421875,0.86572265625
1629880756988,-0.447021484375,0.0487060546875,0.8787841796875
1629880757004,-0.4404296875,0.04754638671875,0.87689208984375
1629880757004,-0.45159912109375,0.0579833984375,0.86376953125
1629880757035,-0.43646240234375,0.044189453125,0.89349365234375
1629880757035,-0.4349365234375,0.045654296875,0.8792724609375
1629880757051,-0.43145751953125,0.04046630859375,0.88677978515625
1629880757129,-0.42950439453125,0.048828125,0.89898681640625
1629880757129,-0.43353271484375,0.06103515625,0.89569091796875
1629880757129,-0.43145751953125,0.04510498046875,0.90081787109375
1629880757176,-0.42962646484375,0.0667724609375,0.88983154296875
1629880757176,-0.43505859375,0.0732421875,0.89654541015625
1629880757176,-0.43212890625,0.07342529296875,0.89471435546875
1629880757207,-0.4412841796875,0.07415771484375,0.88543701171875
1629880757207,-0.4422607421875,0.073974609375,0.893310546875
1629880757207,-0.44097900390625,0.07861328125,0.881103515625
1629880757285,-0.44256591796875,0.055419921875,0.8720703125
1629880757285,-0.44329833984375,0.06353759765625,0.8804931640625
1629880757285,-0.4395751953125,0.06829833984375,0.879150390625
1629880757316,-0.44488525390625,0.05511474609375,0.87103271484375
1629880757316,-0.442138671875,0.05535888671875,0.8758544921875
1629880757316,-0.4462890625,0.04974365234375,0.869873046875
1629880757410,-0.4439697265625,0.0404052734375,0.894775390625
1629880757410,-0.44000244140625,0.04632568359375,0.8759765625
1629880757410,-0.44482421875,0.04534912109375,0.880126953125
1629880757457,-0.43316650390625,0.047607421875,0.88916015625
1629880757457,-0.4453125,0.0428466796875,0.89404296875
1629880757457,-0.433837890625,0.04730224609375,0.898193359375
1629880757504,-0.42962646484375,0.04931640625,0.88177490234375
1629880757504,-0.43359375,0.04595947265625,0.89447021484375
1629880757519,-0.4322509765625,0.05792236328125,0.89501953125
1629880757585,-0.42950439453125,0.0565185546875,0.883056640625
1629880757601,-0.4244384765625,0.06219482421875,0.8936767578125
1629880757601,-0.4285888671875,0.06195068359375,0.89996337890625
1629880757632,-0.428466796875,0.062255859375,0.89697265625
1629880757647,-0.42364501953125,0.064453125,0.89306640625
1629880757647,-0.425048828125,0.06475830078125,0.89459228515625
1629880757694,-0.42352294921875,0.0618896484375,0.8936767578125
1629880757694,-0.41827392578125,0.0633544921875,0.90692138671875
1629880757694,-0.42559814453125,0.06146240234375,0.8941650390625
1629880757772,-0.42095947265625,0.0611572265625,0.88580322265625
1629880757772,-0.42120361328125,0.06353759765625,0.8895263671875
1629880757772,-0.41876220703125,0.06182861328125,0.900634765625
1629880757819,-0.4173583984375,0.0589599609375,0.88983154296875
1629880757835,-0.41961669921875,0.05328369140625,0.9031982421875
1629880757835,-0.41986083984375,0.05474853515625,0.903564453125
1629880757897,-0.4166259765625,0.04833984375,0.90838623046875
1629880757897,-0.417236328125,0.05084228515625,0.90582275390625
1629880757897,-0.41644287109375,0.04949951171875,0.9072265625
1629880757913,-0.4228515625,0.05413818359375,0.90338134765625
1629880757913,-0.421142578125,0.05682373046875,0.8917236328125
1629880757913,-0.41961669921875,0.05316162109375,0.9075927734375
1629880758022,-0.42596435546875,0.062744140625,0.8984375
1629880758038,-0.4312744140625,0.06787109375,0.88018798828125
1629880758038,-0.42864990234375,0.070556640625,0.89111328125
1629880758054,-0.43719482421875,0.07196044921875,0.87969970703125
1629880758054,-0.43109130859375,0.0640869140625,0.877197265625
1629880758054,-0.43145751953125,0.06878662109375,0.88397216796875
1629880758085,-0.43341064453125,0.060546875,0.87799072265625
1629880758100,-0.43603515625,0.06329345703125,0.88092041015625
1629880758100,-0.4345703125,0.06689453125,0.88031005859375
1629880758163,-0.43505859375,0.05859375,0.8934326171875
1629880758163,-0.42950439453125,0.05316162109375,0.8997802734375
1629880758163,-0.43377685546875,0.061767578125,0.87884521484375
1629880758257,-0.431640625,0.05584716796875,0.88934326171875
1629880758257,-0.43505859375,0.05108642578125,0.89776611328125
1629880758257,-0.4366455078125,0.05487060546875,0.89910888671875
1629880758304,-0.4378662109375,0.0589599609375,0.892333984375
1629880758304,-0.433349609375,0.04998779296875,0.88446044921875
1629880758304,-0.43609619140625,0.05987548828125,0.88800048828125
1629880758335,-0.439453125,0.06951904296875,0.8841552734375
1629880758335,-0.44183349609375,0.0657958984375,0.888916015625
1629880758335,-0.4365234375,0.0599365234375,0.87353515625
1629880758460,-0.4244384765625,0.0496826171875,0.88836669921875
1629880758460,-0.43572998046875,0.071533203125,0.88946533203125
1629880758460,-0.4241943359375,0.05633544921875,0.89154052734375
1629880758460,-0.43695068359375,0.07366943359375,0.88519287109375
1629880758460,-0.42510986328125,0.04302978515625,0.88720703125
1629880758460,-0.43048095703125,0.066650390625,0.890625
1629880758491,-0.42987060546875,0.04443359375,0.8916015625
1629880758491,-0.43121337890625,0.06201171875,0.8734130859375
1629880758491,-0.43115234375,0.05438232421875,0.88531494140625
1629880758585,-0.43292236328125,0.06451416015625,0.87933349609375
1629880758585,-0.43408203125,0.06341552734375,0.8843994140625
1629880758585,-0.43194580078125,0.06915283203125,0.88916015625
1629880758678,-0.43060302734375,0.059814453125,0.8818359375
1629880758678,-0.42779541015625,0.06671142578125,0.883056640625
1629880758678,-0.43389892578125,0.0694580078125,0.8851318359375
1629880758710,-0.433349609375,0.0518798828125,0.89569091796875
1629880758725,-0.43218994140625,0.05535888671875,0.877197265625
1629880758725,-0.43115234375,0.052001953125,0.89984130859375
1629880758788,-0.435546875,0.05340576171875,0.89385986328125
1629880758788,-0.432373046875,0.05462646484375,0.884521484375
1629880758788,-0.43048095703125,0.05438232421875,0.8973388671875
1629880758822,-0.4267578125,0.05615234375,0.8997802734375
1629880758822,-0.424072265625,0.0550537109375,0.89306640625
1629880758822,-0.427490234375,0.05859375,0.900390625
1629880758900,-0.421875,0.05609130859375,0.8974609375
1629880758900,-0.425537109375,0.0560302734375,0.89654541015625
1629880758900,-0.425048828125,0.05596923828125,0.89788818359375
1629880758947,-0.41937255859375,0.05523681640625,0.88714599609375
1629880758947,-0.423583984375,0.0577392578125,0.88043212890625
1629880758962,-0.41839599609375,0.06500244140625,0.88177490234375
1629880758993,-0.4141845703125,0.070556640625,0.88079833984375
1629880758993,-0.41217041015625,0.08038330078125,0.8946533203125
1629880758993,-0.41259765625,0.07855224609375,0.8826904296875
1629880759056,-0.40789794921875,0.0673828125,0.90692138671875
1629880759056,-0.4095458984375,0.08087158203125,0.89959716796875
