timestamp,ax,ay,az
1630067051864,-0.22821044921875,-0.0394287109375,0.9879150390625
1630067051864,-0.21771240234375,-0.0560302734375,0.96551513671875
1630067051864,-0.22601318359375,-0.05364990234375,0.98883056640625
1630067051911,-0.2122802734375,-0.0518798828125,0.9400634765625
1630067051911,-0.2060546875,-0.0474853515625,0.93341064453125
1630067051911,-0.217529296875,-0.04974365234375,0.96148681640625
1630067052005,-0.20977783203125,-0.04144287109375,0.93731689453125
1630067052005,-0.20562744140625,-0.02716064453125,0.93353271484375
1630067052005,-0.19732666015625,-0.00421142578125,0.92724609375
1630067052020,-0.18780517578125,0.02459716796875,0.9219970703125
1630067052020,-0.175537109375,0.03607177734375,0.93408203125
1630067052020,-0.1954345703125,0.0137939453125,0.9248046875
1630067052083,-0.172119140625,0.04022216796875,0.96826171875
1630067052083,-0.16839599609375,0.04278564453125,1.02093505859375
1630067052083,-0.171142578125,0.03277587890625,0.9962158203125
1630067052130,-0.16595458984375,0.0367431640625,1.0726318359375
1630067052130,-0.1649169921875,0.037109375,1.0328369140625
1630067052130,-0.16278076171875,0.03680419921875,1.057861328125
1630067052211,-0.1517333984375,0.020751953125,1.009765625
1630067052211,-0.1488037109375,0.0262451171875,1.04241943359375
1630067052211,-0.1558837890625,0.03594970703125,1.0599365234375
1630067052242,-0.20166015625,0.04107666015625,1.01068115234375
1630067052258,-0.19024658203125,0.0306396484375,1.01318359375
1630067052258,-0.16912841796875,0.02618408203125,1.01019287109375
1630067052304,-0.227783203125,0.04571533203125,0.9869384765625
1630067052304,-0.2373046875,0.0518798828125,0.974365234375
1630067052304,-0.2183837890625,0.0460205078125,1.00067138671875
1630067052367,-0.26397705078125,0.06561279296875,0.9566650390625
1630067052367,-0.26898193359375,0.07647705078125,0.93572998046875
1630067052367,-0.25579833984375,0.0579833984375,0.9749755859375
1630067052445,-0.2945556640625,0.0899658203125,0.90069580078125
1630067052445,-0.2852783203125,0.08770751953125,0.90948486328125
1630067052445,-0.27587890625,0.08221435546875,0.91961669921875
1630067052492,-0.29437255859375,0.1036376953125,0.89666748046875
1630067052492,-0.2972412109375,0.096435546875,0.8900146484375
1630067052492,-0.298095703125,0.0904541015625,0.89404296875
1630067052539,-0.29083251953125,0.11090087890625,0.9146728515625
1630067052539,-0.28314208984375,0.1124267578125,0.93792724609375
1630067052539,-0.26934814453125,0.11700439453125,0.966064453125
1630067052617,-0.25714111328125,0.12249755859375,1.01385498046875
1630067052617,-0.25567626953125,0.1116943359375,1.01263427734375
1630067052617,-0.26190185546875,0.1217041015625,0.999755859375
1630067052679,-0.2640380859375,0.0833740234375,0.9891357421875
1630067052679,-0.26239013671875,0.072998046875,0.9481201171875
1630067052679,-0.25677490234375,0.09771728515625,1.00543212890625
1630067052742,-0.26226806640625,0.0452880859375,0.89947509765625
1630067052742,-0.266845703125,0.05743408203125,0.91876220703125
1630067052742,-0.26165771484375,0.04888916015625,0.908447265625
1630067052789,-0.26458740234375,0.04248046875,0.89605712890625
1630067052804,-0.25457763671875,0.03436279296875,0.9127197265625
1630067052804,-0.26171875,0.03509521484375,0.90252685546875
1630067052882,-0.24517822265625,0.03460693359375,0.938720703125
1630067052882,-0.2171630859375,0.04449462890625,0.984375
1630067052882,-0.23583984375,0.03704833984375,0.9598388671875
1630067052898,-0.21392822265625,0.044677734375,1.011962890625
1630067052898,-0.2169189453125,0.036865234375,1.029052734375
1630067052898,-0.2120361328125,0.0360107421875,1.02557373046875
1630067053023,-0.2257080078125,0.0362548828125,0.9879150390625
1630067053023,-0.21258544921875,0.03338623046875,1.01910400390625
1630067053023,-0.2200927734375,0.03460693359375,1.00653076171875
1630067053054,-0.227783203125,0.0701904296875,0.9525146484375
1630067053054,-0.2301025390625,0.05181884765625,0.96405029296875
1630067053070,-0.22119140625,0.08197021484375,0.9510498046875
1630067053166,-0.2015380859375,0.091064453125,0.96624755859375
1630067053166,-0.22052001953125,0.09893798828125,0.966064453125
1630067053166,-0.21685791015625,0.0914306640625,0.95953369140625
1630067053166,-0.2125244140625,0.1004638671875,0.9691162109375
1630067053166,-0.20391845703125,0.08355712890625,0.96832275390625
1630067053166,-0.2144775390625,0.10394287109375,0.96990966796875
1630067053213,-0.20233154296875,0.066162109375,0.97900390625
1630067053213,-0.203125,0.03192138671875,0.98687744140625
1630067053213,-0.19940185546875,0.05108642578125,0.980712890625
1630067053260,-0.20697021484375,0.0255126953125,0.98822021484375
1630067053260,-0.21063232421875,0.014892578125,0.99676513671875
1630067053260,-0.20947265625,0.0145263671875,0.99566650390625
1630067053322,-0.217041015625,0.021240234375,0.99066162109375
1630067053322,-0.22137451171875,0.0294189453125,0.978271484375
1630067053322,-0.22760009765625,0.03662109375,0.9617919921875
1630067053416,-0.22991943359375,0.05145263671875,0.9635009765625
1630067053416,-0.239990234375,0.06060791015625,0.9609375
1630067053416,-0.23822021484375,0.05712890625,0.96728515625
1630067053447,-0.24639892578125,0.05517578125,0.98272705078125
1630067053447,-0.2464599609375,0.060302734375,0.97613525390625
1630067053463,-0.244873046875,0.0616455078125,0.95684814453125
1630067053478,-0.24920654296875,0.043212890625,0.9620361328125
1630067053478,-0.24493408203125,0.0426025390625,0.954833984375
1630067053478,-0.23944091796875,0.04156494140625,0.95135498046875
1630067053572,-0.244140625,0.05535888671875,0.9586181640625
1630067053572,-0.23870849609375,0.04541015625,0.955810546875
1630067053572,-0.24163818359375,0.0478515625,0.96661376953125
1630067053635,-0.246826171875,0.06915283203125,0.9581298828125
1630067053635,-0.2503662109375,0.07611083984375,0.9471435546875
1630067053635,-0.244384765625,0.06378173828125,0.9637451171875
1630067053713,-0.25,0.08587646484375,0.958984375
1630067053713,-0.25,0.079833984375,0.95556640625
1630067053728,-0.247314453125,0.08856201171875,0.97332763671875
1630067053759,-0.241943359375,0.0806884765625,0.96356201171875
1630067053759,-0.24713134765625,0.08660888671875,0.9681396484375
1630067053759,-0.24346923828125,0.07757568359375,0.9637451171875
1630067053791,-0.24462890625,0.0692138671875,0.962890625
1630067053791,-0.240478515625,0.07855224609375,0.9644775390625
1630067053791,-0.2381591796875,0.071044921875,0.9713134765625
1630067053853,-0.23980712890625,0.07037353515625,0.9747314453125
1630067053869,-0.2369384765625,0.07672119140625,0.9737548828125
1630067053869,-0.2386474609375,0.07757568359375,0.96673583984375
1630067053900,-0.24151611328125,0.08892822265625,0.95770263671875
1630067053900,-0.23846435546875,0.090576171875,0.95721435546875
1630067053916,-0.24224853515625,0.08355712890625,0.96185302734375
1630067053994,-0.2486572265625,0.07928466796875,0.951904296875
1630067053994,-0.24505615234375,0.09088134765625,0.95751953125
1630067053994,-0.24114990234375,0.093017578125,0.95306396484375
1630067054056,-0.24261474609375,0.06988525390625,0.947021484375
1630067054056,-0.24847412109375,0.07513427734375,0.94952392578125
1630067054056,-0.24017333984375,0.0714111328125,0.9586181640625
1630067054119,-0.234130859375,0.07745361328125,0.96160888671875
1630067054119,-0.2408447265625,0.075439453125,0.95269775390625
1630067054119,-0.241455078125,0.07440185546875,0.96075439453125
1630067054119,-0.23931884765625,0.07562255859375,0.96673583984375
1630067054134,-0.240478515625,0.070556640625,0.95452880859375
1630067054138,-0.2430419921875,0.07855224609375,0.9599609375
1630067054263,-0.24395751953125,0.07244873046875,0.970947265625
1630067054263,-0.2391357421875,0.06658935546875,0.9725341796875
1630067054263,-0.240966796875,0.06787109375,0.9671630859375
1630067054326,-0.23486328125,0.0606689453125,0.9713134765625
1630067054326,-0.23876953125,0.06591796875,0.97357177734375
1630067054326,-0.2410888671875,0.064453125,0.9764404296875
1630067054357,-0.2384033203125,0.064453125,0.9781494140625
1630067054357,-0.23992919921875,0.065673828125,0.9791259765625
1630067054357,-0.2388916015625,0.05999755859375,0.9779052734375
1630067054404,-0.24200439453125,0.0556640625,0.95562744140625
1630067054404,-0.241943359375,0.05712890625,0.95928955078125
1630067054404,-0.2384033203125,0.0611572265625,0.96527099609375
1630067054435,-0.250244140625,0.05792236328125,0.953369140625
1630067054451,-0.2467041015625,0.05908203125,0.95843505859375
1630067054451,-0.24481201171875,0.0538330078125,0.956298828125
1630067054529,-0.242919921875,0.054443359375,0.9658203125
1630067054529,-0.234619140625,0.0577392578125,0.95831298828125
1630067054529,-0.2333984375,0.05621337890625,0.97247314453125
1630067054529,-0.24237060546875,0.05670166015625,0.95513916015625
1630067054529,-0.24072265625,0.0474853515625,0.9647216796875
1630067054529,-0.23687744140625,0.058837890625,0.9610595703125
1630067054592,-0.23077392578125,0.05889892578125,0.96759033203125
1630067054592,-0.2308349609375,0.06640625,0.9681396484375
1630067054607,-0.22735595703125,0.0621337890625,0.96783447265625
1630067054763,-0.23138427734375,0.07196044921875,0.96124267578125
1630067054763,-0.22772216796875,0.0758056640625,0.9619140625
1630067054763,-0.22906494140625,0.0714111328125,0.966064453125
1630067054763,-0.22705078125,0.0653076171875,0.97271728515625
1630067054763,-0.2335205078125,0.0687255859375,0.9698486328125
1630067054763,-0.22991943359375,0.072509765625,0.96746826171875
1630067054826,-0.229248046875,0.06719970703125,0.95843505859375
1630067054826,-0.2296142578125,0.06915283203125,0.97747802734375
1630067054826,-0.2276611328125,0.06304931640625,0.96728515625
1630067054857,-0.2264404296875,0.0609130859375,0.96453857421875
1630067054857,-0.2288818359375,0.059814453125,0.97381591796875
1630067054857,-0.229736328125,0.06182861328125,0.97528076171875
1630067054951,-0.22467041015625,0.06005859375,0.97869873046875
1630067054966,-0.22564697265625,0.05902099609375,0.9779052734375
1630067054966,-0.2261962890625,0.05828857421875,0.96630859375
1630067054998,-0.22412109375,0.066162109375,0.9642333984375
1630067054998,-0.22314453125,0.06512451171875,0.9649658203125
1630067054998,-0.23028564453125,0.06317138671875,0.97772216796875
1630067055076,-0.229736328125,0.05267333984375,0.97003173828125
1630067055076,-0.22845458984375,0.0582275390625,0.96478271484375
1630067055076,-0.234375,0.0535888671875,0.9664306640625
1630067055107,-0.22607421875,0.0667724609375,0.96527099609375
1630067055107,-0.2291259765625,0.06915283203125,0.963134765625
1630067055156,-0.2308349609375,0.0782470703125,0.9620361328125
1630067055156,-0.23077392578125,0.07672119140625,0.96624755859375
1630067055172,-0.22967529296875,0.07208251953125,0.9659423828125
1630067055203,-0.2342529296875,0.073486328125,0.97064208984375
1630067055203,-0.2308349609375,0.07598876953125,0.96710205078125
1630067055250,-0.236328125,0.07086181640625,0.9757080078125
1630067055266,-0.2342529296875,0.06292724609375,0.96759033203125
1630067055266,-0.23638916015625,0.06524658203125,0.9698486328125
1630067055375,-0.23284912109375,0.06500244140625,0.9669189453125
1630067055375,-0.2335205078125,0.0654296875,0.97216796875
1630067055375,-0.2376708984375,0.06085205078125,0.97344970703125
1630067055406,-0.231201171875,0.0660400390625,0.976318359375
1630067055406,-0.22894287109375,0.06048583984375,0.97088623046875
1630067055406,-0.2320556640625,0.06146240234375,0.965576171875
1630067055453,-0.233154296875,0.06512451171875,0.9671630859375
1630067055453,-0.229248046875,0.06427001953125,0.9744873046875
1630067055453,-0.2313232421875,0.05987548828125,0.96844482421875
1630067055531,-0.233642578125,0.06829833984375,0.9583740234375
1630067055531,-0.2344970703125,0.06427001953125,0.9622802734375
1630067055563,-0.23614501953125,0.0699462890625,0.95538330078125
1630067055563,-0.23333740234375,0.0679931640625,0.95294189453125
1630067055563,-0.2344970703125,0.07293701171875,0.95440673828125
1630067055609,-0.22308349609375,0.06317138671875,0.968994140625
1630067055609,-0.2261962890625,0.06695556640625,0.96307373046875
1630067055609,-0.23046875,0.0670166015625,0.95989990234375
1630067055719,-0.2213134765625,0.06402587890625,0.97735595703125
1630067055719,-0.22381591796875,0.05975341796875,0.97259521484375
1630067055719,-0.224853515625,0.06390380859375,0.97894287109375
1630067055750,-0.2269287109375,0.058349609375,0.9827880859375
1630067055750,-0.223876953125,0.061279296875,0.978515625
1630067055750,-0.22418212890625,0.0614013671875,0.97723388671875
1630067055828,-0.22784423828125,0.05029296875,0.96978759765625
1630067055828,-0.23046875,0.0438232421875,0.9696044921875
1630067055844,-0.22900390625,0.0484619140625,0.96795654296875
1630067055875,-0.22821044921875,0.0552978515625,0.966552734375
1630067055875,-0.2288818359375,0.06402587890625,0.968994140625
1630067055875,-0.2275390625,0.0633544921875,0.9696044921875
1630067055938,-0.2347412109375,0.070068359375,0.96807861328125
1630067055938,-0.227783203125,0.06640625,0.96875
1630067055938,-0.2344970703125,0.06610107421875,0.96722412109375
1630067055953,-0.23687744140625,0.05279541015625,0.9608154296875
1630067055953,-0.2381591796875,0.0635986328125,0.9586181640625
1630067055953,-0.23248291015625,0.05645751953125,0.95654296875
1630067056000,-0.23431396484375,0.03985595703125,0.96923828125
1630067056000,-0.23358154296875,0.044189453125,0.96923828125
1630067056016,-0.23626708984375,0.050048828125,0.9678955078125
1630067056094,-0.230712890625,0.04644775390625,0.967529296875
1630067056094,-0.23419189453125,0.040771484375,0.965576171875
1630067056094,-0.2320556640625,0.04364013671875,0.9671630859375
1630067056141,-0.2271728515625,0.049560546875,0.97625732421875
1630067056141,-0.231201171875,0.0469970703125,0.9761962890625
1630067056142,-0.224853515625,0.04913330078125,0.9761962890625
1630067056190,-0.224609375,0.05194091796875,0.97344970703125
1630067056190,-0.2259521484375,0.0526123046875,0.9732666015625
1630067056252,-0.22784423828125,0.053466796875,0.968505859375
1630067056268,-0.226806640625,0.05279541015625,0.96160888671875
1630067056268,-0.2296142578125,0.0546875,0.96661376953125
1630067056315,-0.22601318359375,0.04998779296875,0.96307373046875
1630067056315,-0.22686767578125,0.05120849609375,0.9613037109375
1630067056330,-0.2296142578125,0.05078125,0.9638671875
1630067056408,-0.226806640625,0.05084228515625,0.9617919921875
1630067056408,-0.22760009765625,0.04986572265625,0.9625244140625
1630067056408,-0.22576904296875,0.05340576171875,0.96630859375
1630067056455,-0.22357177734375,0.0545654296875,0.97509765625
1630067056455,-0.22021484375,0.06024169921875,0.9708251953125
1630067056455,-0.22161865234375,0.05804443359375,0.97100830078125
1630067056527,-0.222900390625,0.07171630859375,0.97869873046875
1630067056527,-0.22222900390625,0.07464599609375,0.9739990234375
1630067056527,-0.22491455078125,0.066650390625,0.9730224609375
1630067056591,-0.2281494140625,0.06756591796875,0.965576171875
1630067056591,-0.231689453125,0.06109619140625,0.96783447265625
1630067056592,-0.22796630859375,0.06982421875,0.9759521484375
1630067056592,-0.22760009765625,0.06585693359375,0.965576171875
1630067056593,-0.2254638671875,0.07464599609375,0.97369384765625
1630067056594,-0.222900390625,0.07568359375,0.97967529296875
1630067056717,-0.22930908203125,0.06695556640625,0.96685791015625
1630067056733,-0.2237548828125,0.0718994140625,0.96356201171875
1630067056733,-0.22418212890625,0.07080078125,0.9671630859375
1630067056750,-0.22900390625,0.06512451171875,0.9696044921875
1630067056754,-0.22955322265625,0.06689453125,0.966796875
1630067056755,-0.226318359375,0.070068359375,0.96710205078125
1630067056829,-0.22601318359375,0.0589599609375,0.964599609375
1630067056829,-0.228271484375,0.0635986328125,0.96551513671875
1630067056829,-0.22943115234375,0.06427001953125,0.9703369140625
1630067056874,-0.2294921875,0.060302734375,0.97076416015625
1630067056875,-0.2286376953125,0.052490234375,0.96734619140625
1630067056890,-0.23077392578125,0.0657958984375,0.97674560546875
1630067056923,-0.23040771484375,0.05194091796875,0.9678955078125
1630067056923,-0.22906494140625,0.050537109375,0.96331787109375
1630067057065,-0.22857666015625,0.05810546875,0.967041015625
1630067057070,-0.22967529296875,0.05535888671875,0.96990966796875
1630067057070,-0.23016357421875,0.056884765625,0.97222900390625
1630067057078,-0.230712890625,0.05926513671875,0.9697265625
1630067057078,-0.2293701171875,0.06488037109375,0.9661865234375
1630067057079,-0.2313232421875,0.058349609375,0.96697998046875
1630067057131,-0.23663330078125,0.06561279296875,0.9619140625
1630067057131,-0.2318115234375,0.063720703125,0.96258544921875
1630067057131,-0.23236083984375,0.067138671875,0.96600341796875
1630067057178,-0.23480224609375,0.06591796875,0.95538330078125
1630067057178,-0.236572265625,0.0654296875,0.95892333984375
1630067057178,-0.2366943359375,0.0675048828125,0.9595947265625
1630067057241,-0.2320556640625,0.06610107421875,0.9696044921875
1630067057241,-0.2327880859375,0.06658935546875,0.9676513671875
1630067057241,-0.23406982421875,0.0675048828125,0.9593505859375
1630067057288,-0.22894287109375,0.06500244140625,0.97308349609375
1630067057288,-0.22705078125,0.0577392578125,0.97076416015625
1630067057288,-0.22686767578125,0.05950927734375,0.973876953125
1630067057335,-0.22393798828125,0.05499267578125,0.974609375
1630067057335,-0.227294921875,0.05615234375,0.97479248046875
1630067057335,-0.2257080078125,0.05694580078125,0.9703369140625
1630067057366,-0.23065185546875,0.06488037109375,0.973388671875
1630067057366,-0.2266845703125,0.05865478515625,0.96942138671875
1630067057366,-0.2314453125,0.0626220703125,0.970458984375
1630067057459,-0.23223876953125,0.07122802734375,0.966796875
1630067057459,-0.2266845703125,0.06915283203125,0.9627685546875
1630067057459,-0.2276611328125,0.06695556640625,0.96710205078125
1630067057538,-0.23138427734375,0.0567626953125,0.96160888671875
1630067057538,-0.23297119140625,0.05975341796875,0.963623046875
1630067057538,-0.23443603515625,0.06256103515625,0.96734619140625
1630067057571,-0.227783203125,0.06903076171875,0.96490478515625
1630067057571,-0.22802734375,0.066650390625,0.96197509765625
1630067057571,-0.22589111328125,0.06475830078125,0.96722412109375
1630067057604,-0.22222900390625,0.0709228515625,0.96771240234375
1630067057617,-0.22222900390625,0.07391357421875,0.97430419921875
1630067057619,-0.22186279296875,0.0716552734375,0.9713134765625
1630067057680,-0.224853515625,0.06903076171875,0.97918701171875
1630067057681,-0.226318359375,0.06488037109375,0.9774169921875
1630067057681,-0.22430419921875,0.06146240234375,0.97027587890625
1630067057744,-0.22625732421875,0.05169677734375,0.96697998046875
1630067057744,-0.22991943359375,0.04327392578125,0.9677734375
1630067057745,-0.2261962890625,0.05621337890625,0.97418212890625
1630067057808,-0.22698974609375,0.05694580078125,0.97564697265625
1630067057809,-0.23065185546875,0.0447998046875,0.9691162109375
1630067057817,-0.23138427734375,0.05352783203125,0.970947265625
1630067057850,-0.22564697265625,0.0582275390625,0.97076416015625
1630067057850,-0.22918701171875,0.0618896484375,0.9715576171875
1630067057850,-0.2255859375,0.063232421875,0.9722900390625
1630067057913,-0.22735595703125,0.06170654296875,0.963623046875
1630067057914,-0.227783203125,0.06268310546875,0.96600341796875
1630067057919,-0.22698974609375,0.06182861328125,0.97003173828125
1630067057946,-0.23028564453125,0.05615234375,0.96624755859375
1630067057962,-0.22625732421875,0.0560302734375,0.96630859375
1630067057962,-0.224365234375,0.057373046875,0.962890625
1630067058007,-0.22430419921875,0.05657958984375,0.96136474609375
1630067058008,-0.22674560546875,0.0560302734375,0.965087890625
1630067058025,-0.22491455078125,0.0526123046875,0.9635009765625
1630067058100,-0.223388671875,0.05706787109375,0.96026611328125
1630067058101,-0.22235107421875,0.05426025390625,0.96868896484375
1630067058101,-0.2254638671875,0.05645751953125,0.966796875
1630067058163,-0.21893310546875,0.05218505859375,0.977294921875
1630067058164,-0.22015380859375,0.05133056640625,0.97479248046875
1630067058164,-0.22125244140625,0.0540771484375,0.97491455078125
1630067058211,-0.21954345703125,0.0556640625,0.97564697265625
1630067058211,-0.21942138671875,0.05474853515625,0.977783203125
1630067058212,-0.21990966796875,0.05389404296875,0.975830078125
1630067058274,-0.22332763671875,0.05670166015625,0.9700927734375
1630067058275,-0.21826171875,0.057861328125,0.96966552734375
1630067058275,-0.22296142578125,0.05523681640625,0.97174072265625
1630067058322,-0.22637939453125,0.06402587890625,0.97369384765625
1630067058323,-0.22265625,0.05810546875,0.97021484375
1630067058326,-0.22576904296875,0.06646728515625,0.9739990234375
1630067058371,-0.22503662109375,0.0648193359375,0.96331787109375
1630067058371,-0.2275390625,0.06793212890625,0.968994140625
1630067058372,-0.2291259765625,0.05938720703125,0.97332763671875
1630067058431,-0.23095703125,0.0462646484375,0.9620361328125
1630067058431,-0.2298583984375,0.0513916015625,0.9649658203125
1630067058432,-0.227294921875,0.05438232421875,0.96417236328125
1630067058525,-0.2198486328125,0.06060791015625,0.967041015625
1630067058525,-0.22589111328125,0.0621337890625,0.96087646484375
1630067058526,-0.2314453125,0.0587158203125,0.96624755859375
1630067058556,-0.21929931640625,0.0677490234375,0.970703125
1630067058556,-0.22271728515625,0.06561279296875,0.97393798828125
1630067058556,-0.224365234375,0.06903076171875,0.97503662109375
1630067058620,-0.22454833984375,0.05511474609375,0.97515869140625
1630067058620,-0.2249755859375,0.05364990234375,0.968505859375
1630067058621,-0.22479248046875,0.05804443359375,0.97430419921875
1630067058700,-0.2264404296875,0.05462646484375,0.97296142578125
1630067058701,-0.2279052734375,0.0552978515625,0.96905517578125
1630067058701,-0.2269287109375,0.0528564453125,0.968994140625
1630067058715,-0.22760009765625,0.05267333984375,0.96710205078125
1630067058715,-0.22882080078125,0.06085205078125,0.96905517578125
1630067058715,-0.22833251953125,0.0589599609375,0.970947265625
1630067058799,-0.229248046875,0.06243896484375,0.96624755859375
1630067058799,-0.227294921875,0.05877685546875,0.97003173828125
1630067058799,-0.22564697265625,0.06036376953125,0.970703125
1630067058861,-0.23138427734375,0.0616455078125,0.96600341796875
1630067058861,-0.23162841796875,0.06085205078125,0.96746826171875
1630067058861,-0.2314453125,0.06353759765625,0.9661865234375
1630067058956,-0.23040771484375,0.06549072265625,0.96893310546875
1630067058962,-0.2301025390625,0.0635986328125,0.96539306640625
1630067058970,-0.23150634765625,0.05975341796875,0.968017578125
1630067058990,-0.22686767578125,0.06207275390625,0.964111328125
1630067058990,-0.227783203125,0.0638427734375,0.9647216796875
1630067058990,-0.23077392578125,0.06695556640625,0.96417236328125
1630067059056,-0.22833251953125,0.0496826171875,0.9716796875
1630067059056,-0.23065185546875,0.05621337890625,0.96875
1630067059057,-0.229736328125,0.04998779296875,0.97088623046875
1630067059082,-0.2244873046875,0.0467529296875,0.9716796875
1630067059082,-0.22613525390625,0.0487060546875,0.97454833984375
1630067059082,-0.22491455078125,0.0465087890625,0.97491455078125
1630067059175,-0.2276611328125,0.04931640625,0.9759521484375
1630067059175,-0.23052978515625,0.05438232421875,0.97216796875
1630067059176,-0.2301025390625,0.05181884765625,0.971923828125
1630067059191,-0.23065185546875,0.05596923828125,0.964599609375
1630067059192,-0.2335205078125,0.05633544921875,0.96337890625
1630067059192,-0.2318115234375,0.05462646484375,0.966064453125
1630067059266,-0.2330322265625,0.05877685546875,0.9649658203125
1630067059266,-0.236328125,0.0589599609375,0.96514892578125
1630067059266,-0.23468017578125,0.056396484375,0.9705810546875
1630067059359,-0.2313232421875,0.0577392578125,0.9617919921875
1630067059359,-0.2371826171875,0.05242919921875,0.96502685546875
1630067059359,-0.2349853515625,0.05712890625,0.97027587890625
1630067059406,-0.23199462890625,0.04754638671875,0.96392822265625
1630067059406,-0.22991943359375,0.05499267578125,0.96234130859375
1630067059406,-0.2296142578125,0.05792236328125,0.9659423828125
1630067059484,-0.221923828125,0.0654296875,0.96795654296875
1630067059484,-0.22705078125,0.06121826171875,0.97052001953125
1630067059484,-0.22430419921875,0.06317138671875,0.96826171875
1630067059516,-0.223388671875,0.0635986328125,0.9727783203125
1630067059516,-0.22479248046875,0.06353759765625,0.97149658203125
1630067059516,-0.22454833984375,0.0596923828125,0.974365234375
1630067059562,-0.2264404296875,0.05206298828125,0.97021484375
1630067059562,-0.2276611328125,0.052490234375,0.9705810546875
1630067059562,-0.22265625,0.0517578125,0.96673583984375
1630067059625,-0.22613525390625,0.04583740234375,0.97412109375
1630067059625,-0.2242431640625,0.0455322265625,0.97198486328125
1630067059641,-0.22479248046875,0.0518798828125,0.968505859375
1630067059719,-0.2222900390625,0.05157470703125,0.96728515625
1630067059719,-0.22406005859375,0.05194091796875,0.9716796875
1630067059734,-0.22711181640625,0.05474853515625,0.96917724609375
1630067059750,-0.2203369140625,0.05126953125,0.974609375
1630067059750,-0.221923828125,0.054931640625,0.97064208984375
1630067059750,-0.21990966796875,0.0579833984375,0.9735107421875
1630067059797,-0.2235107421875,0.0604248046875,0.96875
1630067059797,-0.2235107421875,0.0616455078125,0.9693603515625
1630067059797,-0.22296142578125,0.059814453125,0.971923828125
1630067059906,-0.22479248046875,0.06317138671875,0.96905517578125
1630067059907,-0.22406005859375,0.0648193359375,0.966552734375
1630067059907,-0.2235107421875,0.06268310546875,0.96917724609375
1630067059938,-0.22271728515625,0.06463623046875,0.96514892578125
1630067059938,-0.22198486328125,0.06585693359375,0.972412109375
1630067059939,-0.22686767578125,0.06787109375,0.9708251953125
1630067059971,-0.22174072265625,0.06451416015625,0.9700927734375
1630067059971,-0.22308349609375,0.0654296875,0.96978759765625
1630067059971,-0.224853515625,0.06494140625,0.97149658203125
1630067060064,-0.224853515625,0.05987548828125,0.97003173828125
1630067060080,-0.2230224609375,0.05902099609375,0.969970703125
1630067060080,-0.2239990234375,0.060302734375,0.97210693359375
1630067060143,-0.22332763671875,0.05755615234375,0.970458984375
1630067060143,-0.22894287109375,0.053955078125,0.9700927734375
1630067060143,-0.22882080078125,0.0537109375,0.96649169921875
1630067060145,-0.2259521484375,0.05621337890625,0.97015380859375
1630067060145,-0.2220458984375,0.0623779296875,0.97003173828125
1630067060145,-0.227294921875,0.0604248046875,0.9688720703125
1630067060234,-0.2308349609375,0.04888916015625,0.9705810546875
1630067060234,-0.22967529296875,0.03985595703125,0.9671630859375
1630067060234,-0.2335205078125,0.04290771484375,0.96923828125
1630067060297,-0.2269287109375,0.0474853515625,0.96685791015625
1630067060297,-0.22271728515625,0.051513671875,0.96868896484375
1630067060297,-0.22552490234375,0.04962158203125,0.96826171875
1630067060312,-0.2242431640625,0.061767578125,0.96954345703125
1630067060312,-0.2244873046875,0.05926513671875,0.96826171875
1630067060312,-0.2259521484375,0.052001953125,0.968994140625
1630067060391,-0.2255859375,0.051513671875,0.9658203125
1630067060391,-0.228271484375,0.05645751953125,0.96844482421875
1630067060391,-0.22845458984375,0.05560302734375,0.96832275390625
1630067060469,-0.22259521484375,0.04638671875,0.9688720703125
1630067060484,-0.228515625,0.04986572265625,0.9697265625
1630067060484,-0.22650146484375,0.0528564453125,0.96893310546875
1630067060547,-0.22705078125,0.05462646484375,0.96929931640625
1630067060547,-0.22723388671875,0.0577392578125,0.97247314453125
1630067060547,-0.2322998046875,0.0438232421875,0.97052001953125
1630067060547,-0.22674560546875,0.04901123046875,0.9666748046875
1630067060547,-0.2275390625,0.05523681640625,0.9718017578125
1630067060547,-0.227783203125,0.0545654296875,0.9676513671875
1630067060703,-0.22479248046875,0.0596923828125,0.96942138671875
1630067060703,-0.22772216796875,0.05877685546875,0.9730224609375
1630067060703,-0.230712890625,0.05560302734375,0.967041015625
1630067060703,-0.23095703125,0.0594482421875,0.96319580078125
1630067060703,-0.22344970703125,0.06005859375,0.97265625
1630067060703,-0.22857666015625,0.05487060546875,0.9674072265625
1630067060719,-0.2255859375,0.05804443359375,0.966552734375
1630067060719,-0.229248046875,0.05914306640625,0.96142578125
1630067060719,-0.22869873046875,0.058837890625,0.96112060546875
1630067060812,-0.2249755859375,0.0521240234375,0.96533203125
1630067060812,-0.22662353515625,0.05047607421875,0.96820068359375
1630067060812,-0.2242431640625,0.05377197265625,0.96649169921875
1630067060890,-0.2208251953125,0.05218505859375,0.97235107421875
1630067060890,-0.22314453125,0.0482177734375,0.9730224609375
1630067060890,-0.22247314453125,0.05169677734375,0.97283935546875
1630067060922,-0.22161865234375,0.0516357421875,0.97271728515625
1630067060937,-0.2216796875,0.05255126953125,0.97442626953125
1630067060937,-0.2235107421875,0.0531005859375,0.972412109375
1630067061018,-0.22235107421875,0.05645751953125,0.970458984375
1630067061018,-0.2252197265625,0.05780029296875,0.97467041015625
1630067061018,-0.22540283203125,0.059326171875,0.97003173828125
1630067061034,-0.2247314453125,0.054443359375,0.97222900390625
1630067061034,-0.22613525390625,0.05938720703125,0.96514892578125
1630067061034,-0.2279052734375,0.046142578125,0.96319580078125
1630067061175,-0.22369384765625,0.055908203125,0.9656982421875
1630067061175,-0.2254638671875,0.0509033203125,0.962646484375
1630067061175,-0.22607421875,0.04522705078125,0.96429443359375
1630067061190,-0.22454833984375,0.06134033203125,0.9652099609375
1630067061190,-0.21966552734375,0.06060791015625,0.9691162109375
1630067061190,-0.22064208984375,0.06329345703125,0.97515869140625
1630067061222,-0.2205810546875,0.06170654296875,0.97332763671875
1630067061222,-0.22210693359375,0.0538330078125,0.9720458984375
1630067061222,-0.22027587890625,0.0650634765625,0.9720458984375
1630067061284,-0.2235107421875,0.05291748046875,0.97247314453125
1630067061284,-0.22271728515625,0.0504150390625,0.9752197265625
1630067061284,-0.22216796875,0.05279541015625,0.9708251953125
1630067061362,-0.22271728515625,0.0418701171875,0.9700927734375
1630067061362,-0.22015380859375,0.050537109375,0.9730224609375
1630067061362,-0.2254638671875,0.04656982421875,0.9720458984375
1630067061378,-0.2210693359375,0.0535888671875,0.97027587890625
1630067061393,-0.2259521484375,0.054443359375,0.97076416015625
1630067061393,-0.2197265625,0.0546875,0.9727783203125
1630067061440,-0.2230224609375,0.05419921875,0.97674560546875
1630067061550,-0.2222900390625,0.05450439453125,0.968505859375
1630067061565,-0.22442626953125,0.05450439453125,0.96728515625
1630067061565,-0.22265625,0.0582275390625,0.96697998046875
1630067061581,-0.22418212890625,0.05682373046875,0.95965576171875
1630067061581,-0.2225341796875,0.05645751953125,0.96612548828125
1630067061581,-0.22161865234375,0.05621337890625,0.96319580078125
1630067061644,-0.22137451171875,0.05645751953125,0.96881103515625
1630067061644,-0.21954345703125,0.0555419921875,0.9697265625
1630067061644,-0.2186279296875,0.05133056640625,0.97216796875
1630067061676,-0.21759033203125,0.053466796875,0.97137451171875
1630067061692,-0.2166748046875,0.0489501953125,0.9769287109375
1630067061693,-0.21630859375,0.0517578125,0.9764404296875
1630067061723,-0.2139892578125,0.0548095703125,0.9765625
1630067061740,-0.2156982421875,0.0523681640625,0.97467041015625
1630067061740,-0.21575927734375,0.0517578125,0.9739990234375
1630067061819,-0.2176513671875,0.0533447265625,0.9725341796875
1630067061819,-0.21875,0.0594482421875,0.97314453125
1630067061819,-0.21881103515625,0.05902099609375,0.97283935546875
1630067061851,-0.220947265625,0.0616455078125,0.96575927734375
1630067061851,-0.221923828125,0.062744140625,0.97003173828125
1630067061866,-0.2205810546875,0.06231689453125,0.969482421875
1630067061961,-0.22271728515625,0.056884765625,0.97186279296875
1630067061961,-0.2222900390625,0.0419921875,0.96307373046875
1630067061961,-0.22412109375,0.04449462890625,0.96173095703125
1630067062009,-0.22119140625,0.05035400390625,0.96539306640625
1630067062024,-0.22052001953125,0.05303955078125,0.9661865234375
1630067062025,-0.21917724609375,0.056396484375,0.9691162109375
1630067062050,-0.2159423828125,0.05548095703125,0.97357177734375
1630067062050,-0.21807861328125,0.0582275390625,0.97265625
1630067062050,-0.21954345703125,0.05767822265625,0.97259521484375
1630067062128,-0.21771240234375,0.0516357421875,0.9683837890625
1630067062128,-0.22003173828125,0.04754638671875,0.96917724609375
1630067062144,-0.22314453125,0.04412841796875,0.97119140625
1630067062207,-0.2188720703125,0.044921875,0.97113037109375
1630067062207,-0.2220458984375,0.0518798828125,0.9722900390625
1630067062207,-0.21923828125,0.04736328125,0.97320556640625
1630067062255,-0.2213134765625,0.05548095703125,0.96856689453125
1630067062255,-0.22039794921875,0.0491943359375,0.96734619140625
1630067062255,-0.2242431640625,0.0587158203125,0.97174072265625
1630067062287,-0.2230224609375,0.0604248046875,0.97003173828125
1630067062303,-0.21929931640625,0.0584716796875,0.97259521484375
1630067062304,-0.21795654296875,0.0596923828125,0.9718017578125
1630067062366,-0.21923828125,0.05487060546875,0.972412109375
1630067062366,-0.2191162109375,0.055419921875,0.970947265625
1630067062367,-0.21923828125,0.05487060546875,0.97393798828125
1630067062397,-0.217529296875,0.05670166015625,0.96881103515625
1630067062397,-0.22088623046875,0.05426025390625,0.97119140625
1630067062397,-0.2183837890625,0.05596923828125,0.97369384765625
1630067062427,-0.22003173828125,0.05865478515625,0.9710693359375
1630067062427,-0.21954345703125,0.05810546875,0.9678955078125
1630067062427,-0.217529296875,0.05419921875,0.96942138671875
1630067062489,-0.2174072265625,0.052001953125,0.96685791015625
1630067062489,-0.21441650390625,0.0484619140625,0.96966552734375
1630067062489,-0.217041015625,0.048583984375,0.96929931640625
1630067062553,-0.21466064453125,0.04644775390625,0.9722900390625
1630067062553,-0.2117919921875,0.04736328125,0.97076416015625
1630067062553,-0.21240234375,0.04852294921875,0.9798583984375
1630067062601,-0.2083740234375,0.04864501953125,0.9781494140625
1630067062603,-0.20941162109375,0.04693603515625,0.9764404296875
1630067062604,-0.2071533203125,0.04852294921875,0.973876953125
1630067062680,-0.2086181640625,0.05291748046875,0.9739990234375
1630067062680,-0.20440673828125,0.0501708984375,0.970703125
1630067062695,-0.2083740234375,0.0538330078125,0.97265625
1630067062781,-0.2105712890625,0.0540771484375,0.9766845703125
1630067062781,-0.2061767578125,0.05474853515625,0.97344970703125
1630067062781,-0.20477294921875,0.05718994140625,0.9688720703125
1630067062876,-0.21051025390625,0.04766845703125,0.97271728515625
1630067062876,-0.2105712890625,0.04290771484375,0.9718017578125
1630067062877,-0.21075439453125,0.05438232421875,0.9776611328125
1630067062909,-0.20831298828125,0.05133056640625,0.96954345703125
1630067062909,-0.204345703125,0.05462646484375,0.9698486328125
1630067062909,-0.20648193359375,0.054931640625,0.97149658203125
1630067062940,-0.20574951171875,0.05828857421875,0.97735595703125
1630067062940,-0.20599365234375,0.06048583984375,0.9771728515625
1630067062955,-0.20635986328125,0.05059814453125,0.97412109375
1630067062985,-0.20648193359375,0.06304931640625,0.97772216796875
1630067062993,-0.2110595703125,0.05609130859375,0.97802734375
1630067062993,-0.21160888671875,0.0570068359375,0.9779052734375
1630067063049,-0.21142578125,0.05584716796875,0.971435546875
1630067063050,-0.2144775390625,0.0528564453125,0.97412109375
1630067063051,-0.2144775390625,0.05401611328125,0.9796142578125
1630067063112,-0.21258544921875,0.0576171875,0.97430419921875
1630067063113,-0.21234130859375,0.052978515625,0.97515869140625
1630067063113,-0.21051025390625,0.05340576171875,0.97052001953125
1630067063146,-0.214111328125,0.06109619140625,0.9761962890625
1630067063147,-0.21466064453125,0.06298828125,0.97320556640625
1630067063161,-0.21453857421875,0.06060791015625,0.97509765625
1630067063207,-0.21002197265625,0.059814453125,0.970458984375
1630067063207,-0.21136474609375,0.0576171875,0.96942138671875
1630067063207,-0.21417236328125,0.0545654296875,0.9683837890625
1630067063271,-0.215576171875,0.05633544921875,0.9622802734375
1630067063271,-0.21484375,0.05816650390625,0.96533203125
1630067063271,-0.2142333984375,0.0576171875,0.9627685546875
1630067063319,-0.21429443359375,0.05902099609375,0.966552734375
1630067063319,-0.21722412109375,0.0557861328125,0.96478271484375
1630067063320,-0.21356201171875,0.05743408203125,0.96905517578125
1630067063396,-0.207763671875,0.0550537109375,0.9755859375
1630067063396,-0.20880126953125,0.05682373046875,0.970703125
1630067063397,-0.20391845703125,0.05328369140625,0.973876953125
1630067063459,-0.20098876953125,0.05511474609375,0.98284912109375
1630067063459,-0.207275390625,0.05084228515625,0.9781494140625
1630067063474,-0.20294189453125,0.05364990234375,0.98394775390625
1630067063490,-0.20050048828125,0.0589599609375,0.98236083984375
1630067063490,-0.20233154296875,0.05926513671875,0.98480224609375
1630067063491,-0.20123291015625,0.0648193359375,0.9827880859375
1630067063569,-0.19830322265625,0.066650390625,0.97698974609375
1630067063570,-0.20654296875,0.0706787109375,0.97540283203125
1630067063570,-0.20025634765625,0.06646728515625,0.97845458984375
1630067063664,-0.2054443359375,0.0709228515625,0.9744873046875
1630067063664,-0.20458984375,0.06787109375,0.97802734375
1630067063664,-0.20806884765625,0.06884765625,0.97528076171875
1630067063711,-0.211669921875,0.069091796875,0.9736328125
1630067063711,-0.2100830078125,0.062255859375,0.9681396484375
1630067063721,-0.206298828125,0.07373046875,0.965087890625
1630067063788,-0.20806884765625,0.06390380859375,0.96807861328125
1630067063788,-0.210693359375,0.06060791015625,0.96978759765625
1630067063788,-0.21331787109375,0.05712890625,0.9654541015625
1630067063835,-0.20599365234375,0.06866455078125,0.9715576171875
1630067063835,-0.205322265625,0.07147216796875,0.97601318359375
1630067063835,-0.2078857421875,0.07025146484375,0.97344970703125
1630067063914,-0.2064208984375,0.07135009765625,0.9779052734375
1630067063914,-0.20843505859375,0.06982421875,0.98052978515625
1630067063916,-0.2086181640625,0.06298828125,0.97271728515625
1630067063977,-0.21392822265625,0.0548095703125,0.97100830078125
1630067063978,-0.20947265625,0.053955078125,0.9752197265625
1630067063979,-0.212158203125,0.05133056640625,0.97430419921875
1630067063979,-0.215087890625,0.0517578125,0.97442626953125
1630067063979,-0.20819091796875,0.0538330078125,0.96978759765625
1630067063994,-0.214111328125,0.05389404296875,0.96990966796875
1630067064024,-0.213623046875,0.063720703125,0.96954345703125
1630067064024,-0.21563720703125,0.05999755859375,0.9744873046875
1630067064024,-0.211669921875,0.05804443359375,0.96783447265625
1630067064109,-0.21075439453125,0.0599365234375,0.974609375
1630067064110,-0.21490478515625,0.0592041015625,0.971923828125
1630067064112,-0.21160888671875,0.056640625,0.97796630859375
1630067064164,-0.21136474609375,0.06463623046875,0.97332763671875
1630067064164,-0.20947265625,0.06060791015625,0.9736328125
1630067064164,-0.2142333984375,0.06396484375,0.97137451171875
1630067064217,-0.21453857421875,0.06585693359375,0.969970703125
1630067064217,-0.20941162109375,0.06549072265625,0.9686279296875
1630067064217,-0.2109375,0.06890869140625,0.96917724609375
1630067064279,-0.213623046875,0.0694580078125,0.96771240234375
1630067064279,-0.20806884765625,0.06878662109375,0.969970703125
1630067064279,-0.20989990234375,0.064697265625,0.9715576171875
1630067064326,-0.2064208984375,0.05804443359375,0.973388671875
1630067064326,-0.20947265625,0.0667724609375,0.97283935546875
1630067064326,-0.2049560546875,0.06121826171875,0.97686767578125
1630067064388,-0.20745849609375,0.06085205078125,0.97821044921875
1630067064388,-0.20404052734375,0.05963134765625,0.9757080078125
1630067064388,-0.2044677734375,0.05914306640625,0.97552490234375
1630067064451,-0.2005615234375,0.0638427734375,0.9759521484375
1630067064451,-0.20703125,0.063232421875,0.970458984375
1630067064453,-0.20489501953125,0.06634521484375,0.9736328125
1630067064501,-0.2037353515625,0.0645751953125,0.9783935546875
1630067064501,-0.2037353515625,0.06768798828125,0.97491455078125
1630067064516,-0.20672607421875,0.068603515625,0.97894287109375
1630067064610,-0.2099609375,0.0628662109375,0.97900390625
1630067064610,-0.2152099609375,0.062255859375,0.97052001953125
1630067064610,-0.21026611328125,0.0633544921875,0.96728515625
1630067064641,-0.21600341796875,0.0594482421875,0.9644775390625
1630067064641,-0.223876953125,0.06072998046875,0.96624755859375
1630067064641,-0.21575927734375,0.0643310546875,0.9654541015625
1630067064719,-0.214599609375,0.0611572265625,0.97344970703125
1630067064719,-0.21221923828125,0.07305908203125,0.966064453125
1630067064719,-0.21600341796875,0.0599365234375,0.97686767578125
1630067064719,-0.21612548828125,0.0576171875,0.9716796875
1630067064719,-0.21185302734375,0.0677490234375,0.9677734375
1630067064719,-0.2144775390625,0.05682373046875,0.97760009765625
1630067064797,-0.21807861328125,0.06036376953125,0.97711181640625
1630067064797,-0.21270751953125,0.0616455078125,0.96856689453125
1630067064797,-0.21356201171875,0.06756591796875,0.964599609375
1630067064907,-0.21575927734375,0.05584716796875,0.96435546875
1630067064907,-0.2142333984375,0.0548095703125,0.96484375
1630067064907,-0.2188720703125,0.06365966796875,0.970947265625
1630067064954,-0.21435546875,0.0682373046875,0.97784423828125
1630067065002,-0.20794677734375,0.068359375,0.9801025390625
1630067065002,-0.20892333984375,0.06842041015625,0.97509765625
1630067065003,-0.20904541015625,0.065673828125,0.97821044921875
1630067065097,-0.2119140625,0.06719970703125,0.97607421875
1630067065097,-0.21148681640625,0.05462646484375,0.97003173828125
1630067065097,-0.21319580078125,0.05718994140625,0.9739990234375
1630067065160,-0.2113037109375,0.06146240234375,0.967041015625
1630067065175,-0.21405029296875,0.05560302734375,0.9705810546875
1630067065175,-0.2099609375,0.06072998046875,0.969482421875
1630067065175,-0.21575927734375,0.05718994140625,0.9774169921875
1630067065175,-0.208984375,0.0611572265625,0.97113037109375
1630067065175,-0.2119140625,0.06524658203125,0.96746826171875
1630067065269,-0.21417236328125,0.05950927734375,0.9954833984375
1630067065269,-0.21112060546875,0.06011962890625,0.9737548828125
1630067065269,-0.20751953125,0.05780029296875,0.9727783203125
1630067065303,-0.2109375,0.05902099609375,0.97589111328125
1630067065304,-0.21112060546875,0.0657958984375,0.9749755859375
1630067065304,-0.21221923828125,0.060302734375,0.97918701171875
1630067065333,-0.21112060546875,0.0650634765625,0.97149658203125
1630067065349,-0.20953369140625,0.0648193359375,0.9742431640625
1630067065351,-0.2135009765625,0.0623779296875,0.97869873046875
1630067065365,-0.2156982421875,0.0606689453125,0.9713134765625
1630067065381,-0.2130126953125,0.06329345703125,0.97003173828125
1630067065381,-0.2119140625,0.0638427734375,0.96429443359375
1630067065509,-0.221923828125,0.0611572265625,0.97412109375
1630067065509,-0.2227783203125,0.06634521484375,0.97509765625
1630067065509,-0.21685791015625,0.067626953125,0.97052001953125
1630067065541,-0.208984375,0.061279296875,0.960205078125
1630067065541,-0.211669921875,0.06414794921875,0.968017578125
1630067065556,-0.2169189453125,0.06610107421875,0.97119140625
1630067065572,-0.2100830078125,0.067626953125,0.9658203125
1630067065572,-0.21124267578125,0.0618896484375,0.96160888671875
1630067065587,-0.2149658203125,0.064208984375,0.96356201171875
1630067065650,-0.218505859375,0.0667724609375,0.9781494140625
1630067065650,-0.20745849609375,0.06842041015625,0.971923828125
1630067065650,-0.21087646484375,0.0638427734375,0.9649658203125
1630067065712,-0.21002197265625,0.06121826171875,0.98565673828125
1630067065712,-0.21002197265625,0.0660400390625,0.96978759765625
1630067065712,-0.2122802734375,0.0635986328125,0.97869873046875
1630067065728,-0.2032470703125,0.05950927734375,0.9727783203125
1630067065744,-0.20623779296875,0.06787109375,0.9854736328125
1630067065744,-0.20703125,0.05877685546875,0.97735595703125
1630067065822,-0.20770263671875,0.04974365234375,0.97711181640625
1630067065822,-0.207763671875,0.05108642578125,0.982421875
1630067065822,-0.20526123046875,0.0545654296875,0.98101806640625
1630067065853,-0.20703125,0.04754638671875,0.96929931640625
1630067065853,-0.20855712890625,0.04766845703125,0.97479248046875
1630067065853,-0.208740234375,0.0477294921875,0.9669189453125
1630067065931,-0.21087646484375,0.05267333984375,0.96636962890625
1630067065931,-0.208251953125,0.05902099609375,0.9642333984375
1630067065931,-0.2122802734375,0.0509033203125,0.96661376953125
1630067066043,-0.20233154296875,0.0587158203125,0.97882080078125
1630067066043,-0.2052001953125,0.0543212890625,0.97344970703125
1630067066043,-0.20458984375,0.0594482421875,0.9801025390625
1630067066058,-0.20947265625,0.05999755859375,0.97271728515625
1630067066058,-0.21075439453125,0.056884765625,0.96746826171875
1630067066058,-0.2095947265625,0.0577392578125,0.96612548828125
1630067066105,-0.20159912109375,0.05975341796875,0.97979736328125
1630067066105,-0.20379638671875,0.05908203125,0.9808349609375
1630067066105,-0.20220947265625,0.0552978515625,0.98431396484375
1630067066183,-0.2088623046875,0.0548095703125,0.9757080078125
1630067066183,-0.202880859375,0.0587158203125,0.96636962890625
1630067066183,-0.21234130859375,0.0540771484375,0.98712158203125
1630067066261,-0.20660400390625,0.0606689453125,0.96820068359375
1630067066261,-0.20867919921875,0.053955078125,0.982421875
1630067066261,-0.20294189453125,0.064208984375,0.9696044921875
1630067066293,-0.20281982421875,0.06658935546875,0.97314453125
1630067066293,-0.20587158203125,0.0657958984375,0.969970703125
1630067066293,-0.2095947265625,0.0692138671875,0.9710693359375
1630067066340,-0.2091064453125,0.067138671875,0.964599609375
1630067066340,-0.21234130859375,0.06146240234375,0.96990966796875
1630067066340,-0.21380615234375,0.06854248046875,0.966796875
1630067066418,-0.2110595703125,0.057861328125,0.9755859375
1630067066418,-0.2108154296875,0.06158447265625,0.98095703125
1630067066418,-0.20672607421875,0.06158447265625,0.97412109375
1630067066480,-0.20770263671875,0.0565185546875,0.971923828125
1630067066480,-0.20892333984375,0.0521240234375,0.97412109375
1630067066480,-0.20977783203125,0.05340576171875,0.972900390625
1630067066558,-0.20526123046875,0.05462646484375,0.97705078125
1630067066558,-0.20928955078125,0.05908203125,0.97845458984375
1630067066558,-0.2076416015625,0.0560302734375,0.97540283203125
1630067066558,-0.20562744140625,0.0533447265625,0.97991943359375
1630067066574,-0.2021484375,0.0521240234375,0.972900390625
1630067066574,-0.2041015625,0.05029296875,0.9703369140625
1630067066699,-0.20391845703125,0.052490234375,0.97271728515625
1630067066699,-0.20538330078125,0.0555419921875,0.97210693359375
1630067066699,-0.2059326171875,0.055419921875,0.9708251953125
1630067066730,-0.20257568359375,0.057373046875,0.9703369140625
1630067066730,-0.20623779296875,0.053955078125,0.9708251953125
1630067066730,-0.20330810546875,0.0557861328125,0.97320556640625
1630067066761,-0.1982421875,0.05596923828125,0.9739990234375
1630067066761,-0.19622802734375,0.05804443359375,0.9771728515625
1630067066761,-0.201904296875,0.055908203125,0.9696044921875
1630067066808,-0.19378662109375,0.0556640625,0.98638916015625
1630067066808,-0.19854736328125,0.0556640625,0.98590087890625
1630067066808,-0.19696044921875,0.05548095703125,0.98760986328125
1630067066886,-0.194091796875,0.0562744140625,0.97821044921875
1630067066902,-0.195068359375,0.06304931640625,0.98602294921875
1630067066902,-0.19775390625,0.05987548828125,0.9842529296875
1630067066918,-0.20166015625,0.0574951171875,0.9808349609375
1630067066918,-0.19683837890625,0.0576171875,0.9788818359375
1630067066918,-0.20159912109375,0.047607421875,0.973876953125
1630067067011,-0.20355224609375,0.04925537109375,0.97161865234375
1630067067011,-0.20098876953125,0.05419921875,0.96685791015625
1630067067011,-0.19879150390625,0.0618896484375,0.96484375
1630067067046,-0.19964599609375,0.06121826171875,0.96923828125
1630067067046,-0.201416015625,0.0689697265625,0.97711181640625
1630067067046,-0.19677734375,0.06744384765625,0.9713134765625
1630067067108,-0.200439453125,0.062744140625,0.97808837890625
1630067067108,-0.20001220703125,0.0670166015625,0.97698974609375
1630067067108,-0.19854736328125,0.0677490234375,0.97760009765625
1630067067197,-0.2012939453125,0.05535888671875,0.9798583984375
1630067067197,-0.1995849609375,0.05645751953125,0.97882080078125
1630067067197,-0.2003173828125,0.0599365234375,0.974609375
1630067067260,-0.20135498046875,0.05474853515625,0.9747314453125
1630067067260,-0.2022705078125,0.0518798828125,0.97979736328125
1630067067260,-0.20050048828125,0.05474853515625,0.97747802734375
1630067067338,-0.2041015625,0.05523681640625,0.97705078125
1630067067338,-0.2034912109375,0.058349609375,0.977783203125
1630067067338,-0.19989013671875,0.05560302734375,0.9794921875
1630067067354,-0.20355224609375,0.057373046875,0.97430419921875
1630067067354,-0.20123291015625,0.05633544921875,0.9769287109375
1630067067354,-0.2056884765625,0.0596923828125,0.9775390625
1630067067400,-0.205322265625,0.060302734375,0.9691162109375
1630067067416,-0.20465087890625,0.0594482421875,0.9697265625
1630067067416,-0.2081298828125,0.063720703125,0.97076416015625
1630067067463,-0.205810546875,0.06121826171875,0.96710205078125
1630067067463,-0.20361328125,0.06005859375,0.964599609375
1630067067463,-0.20751953125,0.0616455078125,0.97039794921875
1630067067525,-0.2030029296875,0.0560302734375,0.96881103515625
1630067067525,-0.2076416015625,0.0572509765625,0.966064453125
1630067067525,-0.20269775390625,0.05499267578125,0.9710693359375
1630067067604,-0.199462890625,0.057861328125,0.97796630859375
1630067067604,-0.202392578125,0.05230712890625,0.9794921875
1630067067604,-0.20306396484375,0.0543212890625,0.97296142578125
1630067067635,-0.19915771484375,0.05657958984375,0.9814453125
1630067067635,-0.20281982421875,0.05426025390625,0.98199462890625
1630067067635,-0.199951171875,0.0557861328125,0.97894287109375
1630067067682,-0.19830322265625,0.0489501953125,0.97882080078125
1630067067682,-0.2001953125,0.04620361328125,0.9765625
1630067067682,-0.19927978515625,0.05181884765625,0.97998046875
1630067067760,-0.1986083984375,0.0537109375,0.97601318359375
1630067067760,-0.196533203125,0.0614013671875,0.97998046875
1630067067775,-0.19647216796875,0.0684814453125,0.9813232421875
1630067067838,-0.19732666015625,0.07159423828125,0.975341796875
1630067067838,-0.2022705078125,0.07049560546875,0.97479248046875
1630067067838,-0.19482421875,0.07220458984375,0.97845458984375
1630067067869,-0.202880859375,0.0543212890625,0.97064208984375
1630067067869,-0.2021484375,0.0670166015625,0.97454833984375
1630067067869,-0.202392578125,0.058837890625,0.9720458984375
1630067067932,-0.20928955078125,0.0474853515625,0.97509765625
1630067067932,-0.2060546875,0.05010986328125,0.976318359375
1630067067932,-0.20147705078125,0.05328369140625,0.97052001953125
1630067067963,-0.20611572265625,0.04693603515625,0.97381591796875
1630067067963,-0.20703125,0.04986572265625,0.97357177734375
1630067067978,-0.20819091796875,0.05419921875,0.97479248046875
1630067068090,-0.2032470703125,0.05767822265625,0.97747802734375
1630067068090,-0.20587158203125,0.05670166015625,0.97930908203125
1630067068090,-0.20599365234375,0.0543212890625,0.976318359375
1630067068118,-0.2060546875,0.05596923828125,0.97747802734375
1630067068118,-0.203369140625,0.0550537109375,0.97601318359375
1630067068118,-0.20440673828125,0.06085205078125,0.98065185546875
1630067068164,-0.2098388671875,0.056396484375,0.97210693359375
1630067068164,-0.212158203125,0.0592041015625,0.9700927734375
1630067068164,-0.2078857421875,0.06103515625,0.96875
1630067068227,-0.2066650390625,0.0633544921875,0.96490478515625
1630067068227,-0.2091064453125,0.0616455078125,0.96759033203125
1630067068243,-0.204345703125,0.065673828125,0.9678955078125
1630067068274,-0.2076416015625,0.06268310546875,0.96966552734375
1630067068274,-0.2041015625,0.06500244140625,0.96905517578125
1630067068289,-0.2041015625,0.05987548828125,0.9739990234375
1630067068321,-0.20135498046875,0.054931640625,0.98175048828125
1630067068321,-0.20172119140625,0.05322265625,0.97845458984375
1630067068321,-0.2044677734375,0.0579833984375,0.97705078125
1630067068383,-0.20001220703125,0.05670166015625,0.982177734375
1630067068383,-0.19586181640625,0.0562744140625,0.982421875
1630067068383,-0.19622802734375,0.05499267578125,0.97991943359375
1630067068461,-0.19708251953125,0.05755615234375,0.97723388671875
1630067068461,-0.200927734375,0.0574951171875,0.97796630859375
1630067068461,-0.19952392578125,0.056396484375,0.974365234375
1630067068524,-0.20037841796875,0.0567626953125,0.97100830078125
1630067068524,-0.20068359375,0.057373046875,0.9775390625
1630067068524,-0.2000732421875,0.059326171875,0.97589111328125
1630067068571,-0.20391845703125,0.05938720703125,0.9793701171875
1630067068571,-0.20330810546875,0.05694580078125,0.97760009765625
1630067068586,-0.20501708984375,0.05810546875,0.97247314453125
1630067068617,-0.206298828125,0.05548095703125,0.976318359375
1630067068617,-0.201416015625,0.05963134765625,0.97503662109375
1630067068617,-0.2042236328125,0.05853271484375,0.9686279296875
1630067068696,-0.20611572265625,0.050048828125,0.97216796875
1630067068696,-0.21087646484375,0.049072265625,0.9705810546875
1630067068696,-0.2064208984375,0.056884765625,0.97601318359375
1630067068774,-0.201171875,0.06488037109375,0.97491455078125
1630067068774,-0.1990966796875,0.0665283203125,0.9793701171875
1630067068836,-0.19970703125,0.0728759765625,0.97869873046875
1630067068836,-0.19976806640625,0.0716552734375,0.979248046875
1630067068836,-0.19927978515625,0.07147216796875,0.97869873046875
1630067068883,-0.20526123046875,0.0594482421875,0.97393798828125
1630067068883,-0.20556640625,0.05572509765625,0.96923828125
1630067068883,-0.201171875,0.0655517578125,0.97540283203125
1630067068930,-0.206787109375,0.0535888671875,0.97149658203125
1630067068930,-0.20849609375,0.0555419921875,0.97320556640625
1630067068930,-0.20477294921875,0.0560302734375,0.9677734375
1630067069019,-0.20660400390625,0.0611572265625,0.9752197265625
1630067069035,-0.20458984375,0.0587158203125,0.97259521484375
1630067069035,-0.20745849609375,0.056396484375,0.97320556640625
1630067069082,-0.2041015625,0.0634765625,0.9765625
1630067069082,-0.2083740234375,0.06298828125,0.97564697265625
1630067069097,-0.2037353515625,0.06121826171875,0.9794921875
1630067069175,-0.20733642578125,0.06298828125,0.97344970703125
1630067069175,-0.20562744140625,0.06317138671875,0.9788818359375
1630067069175,-0.20654296875,0.0625,0.9788818359375
1630067069238,-0.21026611328125,0.06195068359375,0.97100830078125
1630067069238,-0.209228515625,0.06524658203125,0.9710693359375
1630067069238,-0.204833984375,0.06134033203125,0.97259521484375
1630067069254,-0.204345703125,0.063232421875,0.9698486328125
1630067069254,-0.20697021484375,0.0660400390625,0.96923828125
1630067069254,-0.2056884765625,0.0604248046875,0.9715576171875
1630067069269,-0.20330810546875,0.05078125,0.9747314453125
1630067069269,-0.20526123046875,0.05572509765625,0.9722900390625
1630067069285,-0.20855712890625,0.06036376953125,0.97113037109375
1630067069332,-0.20233154296875,0.05413818359375,0.9783935546875
1630067069332,-0.20361328125,0.05230712890625,0.97613525390625
1630067069332,-0.19989013671875,0.0552978515625,0.97821044921875
1630067069441,-0.204345703125,0.0595703125,0.9794921875
1630067069441,-0.20361328125,0.05804443359375,0.97845458984375
1630067069441,-0.2022705078125,0.05535888671875,0.97918701171875
1630067069535,-0.2021484375,0.06207275390625,0.9739990234375
1630067069535,-0.20538330078125,0.06170654296875,0.97528076171875
1630067069550,-0.2047119140625,0.06427001953125,0.97369384765625
1630067069550,-0.2086181640625,0.0623779296875,0.97344970703125
1630067069550,-0.204345703125,0.06414794921875,0.9725341796875
1630067069550,-0.2056884765625,0.06121826171875,0.97515869140625
1630067069644,-0.21063232421875,0.0616455078125,0.97467041015625
1630067069644,-0.2100830078125,0.05596923828125,0.97113037109375
1630067069644,-0.20477294921875,0.06005859375,0.96942138671875
1630067069644,-0.20855712890625,0.0587158203125,0.96771240234375
1630067069644,-0.20745849609375,0.06158447265625,0.97344970703125
1630067069644,-0.21051025390625,0.059326171875,0.97161865234375
1630067069691,-0.209228515625,0.0570068359375,0.96820068359375
1630067069691,-0.2069091796875,0.053466796875,0.971435546875
1630067069707,-0.2078857421875,0.0567626953125,0.9722900390625
1630067069816,-0.20318603515625,0.0606689453125,0.97760009765625
1630067069816,-0.20989990234375,0.061279296875,0.97772216796875
1630067069816,-0.20928955078125,0.055908203125,0.97943115234375
1630067069863,-0.20526123046875,0.06536865234375,0.97064208984375
1630067069863,-0.20758056640625,0.0548095703125,0.9742431640625
1630067069863,-0.20648193359375,0.0604248046875,0.9752197265625
1630067069878,-0.2113037109375,0.04595947265625,0.97265625
1630067069878,-0.20819091796875,0.05267333984375,0.97125244140625
1630067069894,-0.20465087890625,0.05810546875,0.9747314453125
1630067070003,-0.20477294921875,0.0650634765625,0.97393798828125
1630067070003,-0.20440673828125,0.0689697265625,0.97357177734375
1630067070003,-0.20208740234375,0.064697265625,0.97369384765625
1630067070066,-0.206298828125,0.06939697265625,0.97314453125
1630067070066,-0.2047119140625,0.0672607421875,0.9754638671875
1630067070066,-0.2095947265625,0.060302734375,0.97113037109375
1630067070147,-0.20709228515625,0.051025390625,0.971435546875
1630067070147,-0.208740234375,0.05072021484375,0.97467041015625
1630067070147,-0.20703125,0.05230712890625,0.9727783203125
1630067070163,-0.20452880859375,0.05029296875,0.97711181640625
1630067070163,-0.2034912109375,0.05316162109375,0.9732666015625
1630067070163,-0.206298828125,0.05596923828125,0.97607421875
1630067070178,-0.20660400390625,0.0611572265625,0.9794921875
1630067070178,-0.20819091796875,0.055419921875,0.97607421875
1630067070178,-0.20904541015625,0.0587158203125,0.9774169921875
1630067070257,-0.20550537109375,0.059326171875,0.97723388671875
1630067070257,-0.2049560546875,0.056396484375,0.9771728515625
1630067070257,-0.20782470703125,0.056396484375,0.97662353515625
1630067070288,-0.20831298828125,0.06097412109375,0.97113037109375
1630067070288,-0.208984375,0.05706787109375,0.97314453125
1630067070288,-0.2060546875,0.05963134765625,0.97381591796875
1630067070381,-0.212646484375,0.05694580078125,0.966064453125
1630067070381,-0.2127685546875,0.0601806640625,0.96588134765625
1630067070381,-0.211181640625,0.05914306640625,0.9688720703125
1630067070506,-0.2073974609375,0.0556640625,0.9698486328125
1630067070506,-0.20965576171875,0.05438232421875,0.97119140625
1630067070522,-0.2105712890625,0.056640625,0.9708251953125
1630067070553,-0.20697021484375,0.048583984375,0.97723388671875
1630067070553,-0.20648193359375,0.04901123046875,0.97314453125
1630067070553,-0.20562744140625,0.05133056640625,0.97772216796875
1630067070569,-0.2052001953125,0.05389404296875,0.97723388671875
1630067070585,-0.20294189453125,0.0543212890625,0.977783203125
1630067070585,-0.204345703125,0.05352783203125,0.9774169921875
1630067070631,-0.2042236328125,0.05841064453125,0.98028564453125
1630067070631,-0.2041015625,0.0604248046875,0.9765625
1630067070631,-0.2042236328125,0.0582275390625,0.98077392578125
1630067070678,-0.2071533203125,0.0579833984375,0.9720458984375
1630067070678,-0.2061767578125,0.062255859375,0.9732666015625
1630067070678,-0.20428466796875,0.05743408203125,0.97271728515625
1630067070741,-0.20660400390625,0.06231689453125,0.9732666015625
1630067070741,-0.2099609375,0.06109619140625,0.97161865234375
1630067070741,-0.20867919921875,0.06048583984375,0.9697265625
1630067070834,-0.2076416015625,0.05877685546875,0.97198486328125
1630067070834,-0.20855712890625,0.0565185546875,0.97027587890625
1630067070834,-0.20654296875,0.05810546875,0.9697265625
1630067070897,-0.2073974609375,0.06231689453125,0.96966552734375
1630067070897,-0.20709228515625,0.0572509765625,0.977783203125
1630067070897,-0.20721435546875,0.059814453125,0.9771728515625
1630067070959,-0.20587158203125,0.04656982421875,0.9744873046875
1630067070959,-0.2047119140625,0.05462646484375,0.980224609375
1630067070959,-0.20477294921875,0.05438232421875,0.9765625
1630067070959,-0.20660400390625,0.05279541015625,0.97198486328125
1630067070959,-0.20550537109375,0.04864501953125,0.97857666015625
1630067070959,-0.2056884765625,0.0482177734375,0.9683837890625
1630067070991,-0.2015380859375,0.05908203125,0.97467041015625
1630067070991,-0.2005615234375,0.06378173828125,0.979248046875
1630067070991,-0.20166015625,0.0521240234375,0.97393798828125
1630067071116,-0.19989013671875,0.0643310546875,0.970703125
1630067071116,-0.19775390625,0.0615234375,0.97509765625
1630067071117,-0.1993408203125,0.06109619140625,0.9708251953125
1630067071166,-0.2003173828125,0.0601806640625,0.9700927734375
1630067071166,-0.2034912109375,0.05743408203125,0.97467041015625
1630067071229,-0.19989013671875,0.0555419921875,0.97509765625
1630067071229,-0.2010498046875,0.05743408203125,0.9722900390625
1630067071229,-0.1986083984375,0.053955078125,0.97149658203125
1630067071260,-0.20281982421875,0.05426025390625,0.98040771484375
1630067071260,-0.20001220703125,0.05279541015625,0.9775390625
1630067071260,-0.20306396484375,0.0535888671875,0.97796630859375
1630067071354,-0.20196533203125,0.05926513671875,0.98089599609375
1630067071354,-0.20367431640625,0.05743408203125,0.978759765625
1630067071354,-0.19879150390625,0.05926513671875,0.98138427734375
1630067071385,-0.20843505859375,0.05810546875,0.975830078125
1630067071385,-0.2044677734375,0.057373046875,0.97698974609375
1630067071385,-0.20281982421875,0.05645751953125,0.97662353515625
1630067071572,-0.2098388671875,0.05462646484375,0.9703369140625
1630067071588,-0.21002197265625,0.05743408203125,0.96917724609375
1630067071588,-0.21087646484375,0.058349609375,0.96807861328125
1630067071853,-0.2086181640625,0.0577392578125,0.9654541015625
1630067071853,-0.21142578125,0.05950927734375,0.96453857421875
1630067071869,-0.2039794921875,0.05517578125,0.97662353515625
1630067071869,-0.203369140625,0.054931640625,0.9840087890625
1630067071869,-0.1988525390625,0.05511474609375,0.976806640625
1630067071869,-0.2012939453125,0.0538330078125,0.97802734375
1630067071869,-0.2088623046875,0.05963134765625,0.9696044921875
1630067071869,-0.2093505859375,0.0638427734375,0.96710205078125
1630067071869,-0.20782470703125,0.05633544921875,0.97149658203125
1630067071885,-0.197265625,0.06060791015625,0.9801025390625
1630067071885,-0.19842529296875,0.054931640625,0.9813232421875
1630067071885,-0.19854736328125,0.05999755859375,0.98193359375
1630067071885,-0.1968994140625,0.06329345703125,0.98101806640625
1630067071885,-0.19903564453125,0.06097412109375,0.97894287109375
1630067071885,-0.19921875,0.061279296875,0.98175048828125
1630067071932,-0.20025634765625,0.0604248046875,0.97735595703125
1630067071932,-0.20269775390625,0.0582275390625,0.97509765625
1630067071932,-0.205810546875,0.05255126953125,0.9716796875
1630067071932,-0.20904541015625,0.05194091796875,0.9696044921875
1630067071932,-0.2047119140625,0.05548095703125,0.9737548828125
1630067071932,-0.1998291015625,0.05462646484375,0.96917724609375
1630067071994,-0.201416015625,0.05401611328125,0.968505859375
1630067071994,-0.20806884765625,0.0517578125,0.97406005859375
1630067071994,-0.203125,0.0587158203125,0.97308349609375
1630067071994,-0.2095947265625,0.0557861328125,0.96942138671875
1630067071994,-0.2083740234375,0.05023193359375,0.97784423828125
1630067071994,-0.20623779296875,0.05279541015625,0.97100830078125
1630067071994,-0.20654296875,0.0557861328125,0.97247314453125
1630067071994,-0.20452880859375,0.04522705078125,0.97430419921875
1630067072010,-0.209716796875,0.0537109375,0.97247314453125
1630067072088,-0.20074462890625,0.0709228515625,0.97601318359375
1630067072088,-0.205810546875,0.0615234375,0.97796630859375
1630067072088,-0.2000732421875,0.0625,0.9788818359375
1630067072103,-0.1982421875,0.069580078125,0.97833251953125
1630067072103,-0.20831298828125,0.06207275390625,0.97808837890625
1630067072103,-0.20489501953125,0.0687255859375,0.9730224609375
1630067072186,-0.20782470703125,0.05194091796875,0.96807861328125
1630067072186,-0.20654296875,0.05157470703125,0.96746826171875
1630067072186,-0.2083740234375,0.0604248046875,0.97369384765625
1630067072295,-0.20758056640625,0.04833984375,0.97540283203125
1630067072295,-0.2044677734375,0.0548095703125,0.9735107421875
1630067072295,-0.20672607421875,0.052734375,0.96954345703125
1630067072326,-0.2037353515625,0.056640625,0.97271728515625
1630067072326,-0.2022705078125,0.0601806640625,0.97576904296875
1630067072326,-0.200439453125,0.06427001953125,0.97589111328125
1630067072361,-0.201171875,0.06219482421875,0.978759765625
1630067072361,-0.201171875,0.06072998046875,0.97998046875
1630067072361,-0.19781494140625,0.0601806640625,0.98138427734375
1630067072392,-0.203857421875,0.06011962890625,0.97650146484375
1630067072392,-0.20159912109375,0.0609130859375,0.97283935546875
1630067072392,-0.19976806640625,0.05670166015625,0.97589111328125
1630067072455,-0.20660400390625,0.06048583984375,0.97161865234375
1630067072455,-0.2027587890625,0.05987548828125,0.9697265625
1630067072455,-0.2027587890625,0.06011962890625,0.972900390625
1630067072518,-0.20135498046875,0.057373046875,0.9716796875
1630067072518,-0.20281982421875,0.06268310546875,0.97027587890625
1630067072518,-0.20458984375,0.06103515625,0.97125244140625
1630067072581,-0.201904296875,0.05438232421875,0.97369384765625
1630067072581,-0.20379638671875,0.0584716796875,0.972900390625
1630067072581,-0.19964599609375,0.0521240234375,0.97625732421875
1630067072675,-0.2027587890625,0.055908203125,0.98095703125
1630067072675,-0.19970703125,0.05413818359375,0.97894287109375
1630067072676,-0.199462890625,0.04962158203125,0.9788818359375
1630067072733,-0.205078125,0.06011962890625,0.9754638671875
1630067072733,-0.20147705078125,0.0582275390625,0.978271484375
1630067072733,-0.20220947265625,0.06134033203125,0.97796630859375
1630067072765,-0.205322265625,0.06182861328125,0.97216796875
1630067072765,-0.20562744140625,0.059814453125,0.97137451171875
1630067072765,-0.20513916015625,0.0631103515625,0.97418212890625
1630067072877,-0.20831298828125,0.05706787109375,0.9713134765625
1630067072878,-0.208251953125,0.05877685546875,0.9683837890625
1630067072879,-0.2093505859375,0.05792236328125,0.9722900390625
1630067072901,-0.208251953125,0.06024169921875,0.9677734375
1630067072907,-0.21044921875,0.05828857421875,0.974853515625
1630067072908,-0.21014404296875,0.05828857421875,0.9713134765625
1630067072955,-0.20849609375,0.05596923828125,0.97552490234375
1630067072955,-0.20562744140625,0.059326171875,0.96893310546875
1630067073003,-0.20361328125,0.05352783203125,0.9775390625
1630067073008,-0.20953369140625,0.05169677734375,0.970703125
1630067073008,-0.20635986328125,0.045654296875,0.97607421875
1630067073064,-0.19879150390625,0.06591796875,0.97821044921875
1630067073077,-0.201416015625,0.06549072265625,0.97808837890625
1630067073077,-0.2017822265625,0.06195068359375,0.976318359375
1630067073124,-0.19891357421875,0.06884765625,0.97515869140625
1630067073124,-0.2025146484375,0.07061767578125,0.97564697265625
1630067073124,-0.20513916015625,0.0628662109375,0.97503662109375
1630067073230,-0.2021484375,0.05908203125,0.971923828125
1630067073246,-0.20263671875,0.0511474609375,0.97021484375
1630067073246,-0.2027587890625,0.05364990234375,0.97052001953125
1630067073277,-0.20855712890625,0.05963134765625,0.97698974609375
1630067073277,-0.2061767578125,0.0513916015625,0.96966552734375
1630067073277,-0.20587158203125,0.04998779296875,0.97418212890625
1630067073277,-0.203857421875,0.05523681640625,0.9744873046875
1630067073293,-0.2049560546875,0.056884765625,0.974365234375
1630067073293,-0.20562744140625,0.051025390625,0.97210693359375
1630067073371,-0.2021484375,0.059326171875,0.984375
1630067073371,-0.2001953125,0.06072998046875,0.9786376953125
1630067073371,-0.20501708984375,0.05731201171875,0.97607421875
1630067073387,-0.20452880859375,0.06085205078125,0.97509765625
1630067073387,-0.20611572265625,0.06365966796875,0.9794921875
1630067073387,-0.20660400390625,0.06036376953125,0.9739990234375
1630067073480,-0.211669921875,0.06005859375,0.96820068359375
1630067073480,-0.2080078125,0.060791015625,0.9710693359375
1630067073480,-0.21148681640625,0.06341552734375,0.9703369140625
1630067073558,-0.2081298828125,0.06072998046875,0.96630859375
1630067073574,-0.208251953125,0.06280517578125,0.9671630859375
1630067073574,-0.20648193359375,0.06024169921875,0.971435546875
1630067073637,-0.20416259765625,0.05535888671875,0.97955322265625
1630067073637,-0.20361328125,0.05828857421875,0.97711181640625
1630067073637,-0.2044677734375,0.0535888671875,0.9766845703125
1630067073637,-0.20672607421875,0.054443359375,0.97454833984375
1630067073637,-0.206787109375,0.05633544921875,0.96905517578125
1630067073637,-0.20770263671875,0.0540771484375,0.968505859375
1630067073715,-0.2027587890625,0.05987548828125,0.97998046875
1630067073715,-0.19708251953125,0.06011962890625,0.98052978515625
1630067073715,-0.200927734375,0.05975341796875,0.9779052734375
1630067073793,-0.20440673828125,0.06170654296875,0.9769287109375
1630067073793,-0.203125,0.0572509765625,0.97247314453125
1630067073793,-0.20281982421875,0.05816650390625,0.9769287109375
1630067073824,-0.2066650390625,0.055419921875,0.97357177734375
1630067073824,-0.20599365234375,0.06060791015625,0.9720458984375
1630067073824,-0.203857421875,0.06005859375,0.972412109375
1630067073967,-0.206787109375,0.0615234375,0.96942138671875
1630067073967,-0.2091064453125,0.0626220703125,0.97137451171875
1630067073967,-0.2039794921875,0.0604248046875,0.970947265625
1630067073998,-0.20941162109375,0.05499267578125,0.9727783203125
1630067073998,-0.2069091796875,0.0484619140625,0.9713134765625
1630067073998,-0.20635986328125,0.06304931640625,0.9696044921875
1630067074014,-0.20989990234375,0.04327392578125,0.97052001953125
1630067074030,-0.20477294921875,0.06011962890625,0.97784423828125
1630067074030,-0.20782470703125,0.05206298828125,0.97259521484375
1630067074061,-0.20220947265625,0.07147216796875,0.9783935546875
1630067074061,-0.2025146484375,0.06561279296875,0.9754638671875
1630067074063,-0.201904296875,0.066162109375,0.9791259765625
1630067074092,-0.2056884765625,0.05718994140625,0.97216796875
1630067074092,-0.20330810546875,0.06884765625,0.97772216796875
1630067074092,-0.20770263671875,0.06439208984375,0.9765625
1630067074172,-0.208251953125,0.05413818359375,0.9716796875
1630067074187,-0.20660400390625,0.0546875,0.9735107421875
1630067074187,-0.20361328125,0.052001953125,0.970947265625
1630067074247,-0.20849609375,0.05712890625,0.97735595703125
1630067074247,-0.206298828125,0.05377197265625,0.972412109375
1630067074263,-0.212158203125,0.05157470703125,0.9754638671875
1630067074295,-0.20977783203125,0.05963134765625,0.97711181640625
1630067074298,-0.2088623046875,0.05926513671875,0.9736328125
1630067074298,-0.20794677734375,0.05987548828125,0.9775390625
1630067074343,-0.210205078125,0.05718994140625,0.97784423828125
1630067074343,-0.2076416015625,0.05535888671875,0.97613525390625
1630067074357,-0.206298828125,0.06207275390625,0.9769287109375
1630067074436,-0.210205078125,0.0618896484375,0.971435546875
1630067074436,-0.207275390625,0.0625,0.97161865234375
1630067074436,-0.21014404296875,0.065673828125,0.97332763671875
1630067074482,-0.2103271484375,0.06036376953125,0.9727783203125
1630067074482,-0.20599365234375,0.0616455078125,0.96514892578125
1630067074482,-0.20977783203125,0.06256103515625,0.9697265625
1630067074544,-0.21044921875,0.0635986328125,0.971435546875
1630067074544,-0.20843505859375,0.0606689453125,0.973876953125
1630067074544,-0.2056884765625,0.05987548828125,0.9737548828125
1630067074605,-0.20526123046875,0.054931640625,0.97894287109375
1630067074605,-0.2059326171875,0.05523681640625,0.97760009765625
1630067074605,-0.2037353515625,0.0543212890625,0.97833251953125
1630067074653,-0.20263671875,0.055419921875,0.98028564453125
1630067074653,-0.2047119140625,0.05743408203125,0.978759765625
1630067074653,-0.20404052734375,0.060791015625,0.97802734375
1630067074731,-0.20281982421875,0.06256103515625,0.97711181640625
1630067074732,-0.2064208984375,0.05926513671875,0.9764404296875
1630067074740,-0.20367431640625,0.06402587890625,0.97564697265625
1630067074762,-0.20635986328125,0.06390380859375,0.9716796875
1630067074762,-0.20745849609375,0.06427001953125,0.9698486328125
1630067074762,-0.20721435546875,0.0611572265625,0.97216796875
1630067074920,-0.212646484375,0.05291748046875,0.96734619140625
1630067074920,-0.21429443359375,0.0511474609375,0.9669189453125
1630067074920,-0.21173095703125,0.061279296875,0.97369384765625
1630067074923,-0.2100830078125,0.0648193359375,0.966552734375
1630067074926,-0.20697021484375,0.06256103515625,0.97406005859375
1630067074926,-0.21026611328125,0.0638427734375,0.97467041015625
1630067074954,-0.21112060546875,0.05963134765625,0.96746826171875
1630067074954,-0.2059326171875,0.06170654296875,0.9754638671875
1630067074954,-0.20794677734375,0.06304931640625,0.97216796875
1630067075047,-0.2071533203125,0.060546875,0.97589111328125
1630067075047,-0.20916748046875,0.0576171875,0.9776611328125
1630067075047,-0.20648193359375,0.06085205078125,0.9742431640625
1630067075047,-0.20379638671875,0.06085205078125,0.9805908203125
1630067075048,-0.2022705078125,0.0611572265625,0.97894287109375
1630067075048,-0.20574951171875,0.06103515625,0.97711181640625
1630067075156,-0.20440673828125,0.0614013671875,0.97015380859375
1630067075157,-0.20538330078125,0.05963134765625,0.97320556640625
1630067075157,-0.20928955078125,0.05975341796875,0.9769287109375
1630067075171,-0.2056884765625,0.055908203125,0.97509765625
1630067075171,-0.20721435546875,0.05731201171875,0.97503662109375
1630067075171,-0.20391845703125,0.0555419921875,0.97528076171875
1630067075234,-0.20635986328125,0.05584716796875,0.97894287109375
1630067075236,-0.207275390625,0.05194091796875,0.97900390625
1630067075238,-0.205078125,0.0543212890625,0.97613525390625
1630067075427,-0.205078125,0.060546875,0.9764404296875
1630067075427,-0.20599365234375,0.052490234375,0.9759521484375
1630067075427,-0.20843505859375,0.05816650390625,0.9754638671875
1630067075427,-0.2091064453125,0.05853271484375,0.97222900390625
1630067075427,-0.209228515625,0.06146240234375,0.96868896484375
1630067075427,-0.2078857421875,0.0634765625,0.970703125
1630067075459,-0.20941162109375,0.06524658203125,0.972412109375
1630067075459,-0.208740234375,0.0653076171875,0.968505859375
1630067075459,-0.20623779296875,0.06103515625,0.97900390625
1630067075459,-0.2061767578125,0.06103515625,0.97509765625
1630067075459,-0.20648193359375,0.06536865234375,0.9732666015625
1630067075459,-0.212890625,0.06488037109375,0.9681396484375
1630067075568,-0.20465087890625,0.05731201171875,0.9771728515625
1630067075568,-0.20330810546875,0.0560302734375,0.9775390625
1630067075568,-0.19976806640625,0.058349609375,0.97430419921875
1630067075599,-0.20465087890625,0.0609130859375,0.9713134765625
1630067075599,-0.20355224609375,0.06402587890625,0.9749755859375
1630067075599,-0.20269775390625,0.05810546875,0.97296142578125
1630067075662,-0.20733642578125,0.0655517578125,0.97161865234375
1630067075662,-0.20306396484375,0.06298828125,0.9766845703125
1630067075662,-0.2015380859375,0.06182861328125,0.97528076171875
1630067075755,-0.2115478515625,0.05670166015625,0.97552490234375
1630067075755,-0.20904541015625,0.0560302734375,0.97039794921875
1630067075755,-0.20867919921875,0.0635986328125,0.9703369140625
1630067075787,-0.2021484375,0.06610107421875,0.9781494140625
1630067075787,-0.20513916015625,0.06591796875,0.97186279296875
1630067075787,-0.20849609375,0.0618896484375,0.96746826171875
1630067075833,-0.20001220703125,0.0643310546875,0.98004150390625
1630067075833,-0.2010498046875,0.0635986328125,0.97784423828125
1630067075833,-0.20281982421875,0.06365966796875,0.9794921875
1630067075884,-0.20928955078125,0.0538330078125,0.97686767578125
1630067075884,-0.2076416015625,0.05804443359375,0.97650146484375
1630067075884,-0.20867919921875,0.057861328125,0.9754638671875
1630067075947,-0.205810546875,0.05267333984375,0.97332763671875
1630067075947,-0.20660400390625,0.05438232421875,0.97113037109375
1630067075947,-0.2083740234375,0.05426025390625,0.979736328125
1630067076009,-0.2120361328125,0.05419921875,0.97589111328125
1630067076009,-0.2093505859375,0.05303955078125,0.97332763671875
1630067076009,-0.2093505859375,0.05743408203125,0.9725341796875
1630067076073,-0.20751953125,0.06396484375,0.9732666015625
1630067076073,-0.21099853515625,0.06146240234375,0.97113037109375
1630067076084,-0.2091064453125,0.05865478515625,0.97216796875
1630067076134,-0.21075439453125,0.06402587890625,0.97149658203125
1630067076134,-0.21441650390625,0.06597900390625,0.970703125
1630067076134,-0.2099609375,0.0623779296875,0.97161865234375
1630067076165,-0.21337890625,0.06390380859375,0.9708251953125
1630067076165,-0.21380615234375,0.06329345703125,0.97149658203125
1630067076181,-0.2108154296875,0.06378173828125,0.96832275390625
1630067076229,-0.205810546875,0.0626220703125,0.97119140625
1630067076229,-0.2127685546875,0.062255859375,0.968994140625
1630067076229,-0.2093505859375,0.065673828125,0.97113037109375
1630067076354,-0.20477294921875,0.05609130859375,0.974853515625
1630067076355,-0.20361328125,0.0574951171875,0.9766845703125
1630067076355,-0.2061767578125,0.06396484375,0.9722900390625
1630067076401,-0.20172119140625,0.05450439453125,0.97607421875
1630067076401,-0.20123291015625,0.053466796875,0.97589111328125
1630067076401,-0.20062255859375,0.05792236328125,0.9794921875
1630067076473,-0.2005615234375,0.059814453125,0.97784423828125
1630067076474,-0.20416259765625,0.064697265625,0.97784423828125
1630067076475,-0.20330810546875,0.06646728515625,0.97625732421875
1630067076593,-0.20147705078125,0.058349609375,0.9730224609375
1630067076593,-0.201416015625,0.0687255859375,0.9703369140625
1630067076593,-0.2020263671875,0.06634521484375,0.97332763671875
1630067076593,-0.20037841796875,0.0732421875,0.9765625
1630067076593,-0.20556640625,0.05584716796875,0.973876953125
1630067076593,-0.20672607421875,0.06451416015625,0.97576904296875
1630067076593,-0.2034912109375,0.06927490234375,0.97625732421875
1630067076593,-0.20751953125,0.05303955078125,0.97015380859375
1630067076685,-0.1959228515625,0.069580078125,0.9786376953125
1630067076685,-0.19854736328125,0.0728759765625,0.98016357421875
1630067076685,-0.19561767578125,0.07220458984375,0.9837646484375
1630067076733,-0.1986083984375,0.06292724609375,0.976318359375
1630067076751,-0.203857421875,0.0538330078125,0.97515869140625
1630067076751,-0.2047119140625,0.05694580078125,0.9754638671875
1630067076783,-0.20635986328125,0.0537109375,0.97235107421875
1630067076787,-0.20458984375,0.05755615234375,0.97564697265625
1630067076787,-0.20306396484375,0.05828857421875,0.9774169921875
1630067076861,-0.20611572265625,0.05474853515625,0.97509765625
1630067076861,-0.20599365234375,0.06256103515625,0.974365234375
1630067076861,-0.20635986328125,0.06201171875,0.9697265625
1630067076892,-0.20172119140625,0.0640869140625,0.97808837890625
1630067076892,-0.20623779296875,0.0631103515625,0.98114013671875
1630067076892,-0.2030029296875,0.06439208984375,0.9786376953125
1630067076938,-0.202392578125,0.06719970703125,0.97235107421875
1630067076938,-0.20166015625,0.06573486328125,0.9755859375
1630067076938,-0.20599365234375,0.06463623046875,0.975830078125
1630067077031,-0.20294189453125,0.07012939453125,0.97021484375
1630067077031,-0.20355224609375,0.06842041015625,0.9720458984375
1630067077031,-0.2027587890625,0.06964111328125,0.970947265625
1630067077079,-0.20452880859375,0.0692138671875,0.97418212890625
1630067077079,-0.20147705078125,0.06842041015625,0.975830078125
1630067077079,-0.20330810546875,0.07049560546875,0.97357177734375
1630067077147,-0.20233154296875,0.0618896484375,0.9852294921875
1630067077147,-0.20013427734375,0.06072998046875,0.98114013671875
1630067077148,-0.20111083984375,0.06494140625,0.9754638671875
1630067077313,-0.20660400390625,0.06060791015625,0.985595703125
1630067077328,-0.20623779296875,0.05914306640625,0.9864501953125
1630067077328,-0.2080078125,0.0623779296875,0.9818115234375
1630067077328,-0.209228515625,0.06134033203125,0.98724365234375
1630067077328,-0.20233154296875,0.0587158203125,0.98541259765625
1630067077328,-0.20831298828125,0.059814453125,0.97509765625
1630067077344,-0.212158203125,0.0594482421875,0.97796630859375
1630067077344,-0.2158203125,0.06195068359375,0.9786376953125
1630067077344,-0.2117919921875,0.055908203125,0.97589111328125
1630067077375,-0.21484375,0.06182861328125,0.9425048828125
1630067077375,-0.21484375,0.0501708984375,0.967529296875
1630067077375,-0.21875,0.04876708984375,0.954345703125
1630067077453,-0.21612548828125,0.07244873046875,0.93280029296875
1630067077453,-0.216796875,0.07257080078125,0.9342041015625
1630067077453,-0.20758056640625,0.08001708984375,0.94232177734375
1630067077531,-0.2054443359375,0.0806884765625,0.95257568359375
1630067077531,-0.194580078125,0.076904296875,0.95648193359375
1630067077534,-0.19189453125,0.0682373046875,0.96441650390625
1630067077546,-0.17919921875,0.06500244140625,0.97576904296875
1630067077546,-0.17205810546875,0.06219482421875,0.9742431640625
1630067077548,-0.1849365234375,0.06365966796875,0.96575927734375
1630067077625,-0.159423828125,0.052734375,0.97930908203125
1630067077625,-0.15936279296875,0.06060791015625,0.97369384765625
1630067077626,-0.1610107421875,0.0616455078125,0.978515625
1630067077729,-0.15692138671875,0.0516357421875,0.9820556640625
1630067077729,-0.15240478515625,0.05499267578125,0.97662353515625
1630067077729,-0.16058349609375,0.05242919921875,0.98931884765625
1630067077760,-0.1451416015625,0.048828125,0.95404052734375
1630067077760,-0.1395263671875,0.04791259765625,0.9547119140625
1630067077760,-0.15325927734375,0.05157470703125,0.963623046875
1630067077776,-0.13232421875,0.05194091796875,0.9632568359375
1630067077776,-0.138671875,0.05230712890625,0.9600830078125
1630067077776,-0.12689208984375,0.050537109375,0.96856689453125
1630067077807,-0.11212158203125,0.05523681640625,0.9783935546875
1630067077807,-0.10968017578125,0.04901123046875,0.98944091796875
1630067077807,-0.119873046875,0.05303955078125,0.97467041015625
1630067077901,-0.10430908203125,0.0499267578125,0.99151611328125
1630067077901,-0.09326171875,0.0574951171875,0.9822998046875
1630067077901,-0.0743408203125,0.05877685546875,0.9801025390625
1630067077979,-0.05889892578125,0.0675048828125,0.9996337890625
1630067077979,-0.03948974609375,0.0723876953125,1.013916015625
1630067077979,-0.02197265625,0.07611083984375,1.0333251953125
1630067078044,0.03240966796875,0.07244873046875,1.01312255859375
1630067078044,-0.0047607421875,0.07757568359375,1.0260009765625
1630067078044,0.0145263671875,0.074462890625,1.0233154296875
1630067078122,0.0611572265625,0.0858154296875,1.0128173828125
1630067078138,0.0560302734375,0.08154296875,1.01519775390625
1630067078295,0.0677490234375,0.0885009765625,1.01275634765625
1630067078295,0.078857421875,0.0865478515625,1.02093505859375
1630067078295,0.07513427734375,0.08868408203125,1.0147705078125
1630067078311,0.07135009765625,0.07940673828125,1.02557373046875
1630067078311,0.0709228515625,0.0902099609375,1.0159912109375
1630067078311,0.0709228515625,0.08526611328125,1.02667236328125
1630067078358,0.0677490234375,0.0760498046875,1.041015625
1630067078358,0.0623779296875,0.07403564453125,1.0411376953125
1630067078358,0.06951904296875,0.07293701171875,1.0318603515625
1630067078420,0.04302978515625,0.06585693359375,0.99908447265625
1630067078420,0.0538330078125,0.07440185546875,1.02679443359375
1630067078420,0.03076171875,0.06951904296875,0.99560546875
1630067078420,0.04754638671875,0.0699462890625,1.01300048828125
1630067078420,0.02752685546875,0.06549072265625,1.0032958984375
1630067078420,0.03741455078125,0.064208984375,0.99664306640625
1630067078514,0.025146484375,0.07586669921875,1.00006103515625
1630067078514,0.01715087890625,0.07354736328125,1.00262451171875
1630067078514,0.01641845703125,0.06842041015625,0.992431640625
1630067078514,0.01690673828125,0.0806884765625,1.0025634765625
1630067078514,0.01641845703125,0.08111572265625,1.00048828125
1630067078514,0.01751708984375,0.08184814453125,1.00189208984375
1630067078577,0.019287109375,0.0657958984375,0.9959716796875
1630067078592,0.02008056640625,0.06805419921875,0.99017333984375
1630067078623,0.0152587890625,0.0753173828125,1.02520751953125
1630067078623,0.017578125,0.06268310546875,1.00927734375
1630067078623,0.020263671875,0.066162109375,1.017822265625
1630067078686,-0.00274658203125,0.0860595703125,1.01995849609375
1630067078686,0.01043701171875,0.080810546875,1.0323486328125
1630067078686,0.00018310546875,0.08673095703125,1.0306396484375
1630067078733,-0.0040283203125,0.08721923828125,1.00592041015625
1630067078733,-0.00927734375,0.083740234375,1.00616455078125
1630067078733,-0.00970458984375,0.0794677734375,0.99578857421875
1630067078983,-0.00531005859375,0.07684326171875,0.94921875
1630067078983,-0.00592041015625,0.06854248046875,0.94696044921875
1630067078983,-0.01287841796875,0.07647705078125,0.96240234375
1630067079076,-0.0040283203125,0.0865478515625,0.97894287109375
1630067079076,-0.00286865234375,0.07916259765625,0.95751953125
1630067079076,0.00189208984375,0.099853515625,0.990966796875
1630067079155,0.00579833984375,0.10516357421875,1.00018310546875
1630067079170,0.01165771484375,0.1112060546875,1.00445556640625
1630067079170,0.02020263671875,0.1114501953125,1.00146484375
1630067079201,0.024658203125,0.1044921875,1.00262451171875
1630067079201,0.0267333984375,0.09759521484375,1.00823974609375
1630067079201,0.0240478515625,0.1102294921875,1.0032958984375
1630067079342,0.018798828125,0.0938720703125,1.00897216796875
1630067079342,0.014892578125,0.08782958984375,1.00323486328125
1630067079342,0.0108642578125,0.07275390625,0.99517822265625
1630067079373,0.0096435546875,0.05499267578125,0.996826171875
1630067079373,0.01617431640625,0.0390625,1.00115966796875
1630067079373,0.0120849609375,0.04290771484375,0.99798583984375
1630067079467,0.0172119140625,0.05029296875,1.0035400390625
1630067079467,0.02203369140625,0.06292724609375,1.00994873046875
1630067079467,0.0244140625,0.06463623046875,1.01165771484375
1630067079498,0.01898193359375,0.06689453125,1.00811767578125
1630067079498,0.01739501953125,0.0601806640625,1.00555419921875
1630067079498,0.0240478515625,0.06982421875,1.01043701171875
1630067079608,0.01885986328125,0.057861328125,1.00128173828125
1630067079608,0.02081298828125,0.0633544921875,0.99169921875
1630067079608,0.02099609375,0.05755615234375,0.99114990234375
1630067079654,0.02362060546875,0.0919189453125,1.0169677734375
1630067079654,0.019287109375,0.0714111328125,1.000244140625
1630067079654,0.02154541015625,0.07037353515625,1.00286865234375
1630067079654,0.0234375,0.0711669921875,1.01019287109375
1630067079654,0.02410888671875,0.078369140625,1.0123291015625
1630067079654,0.01947021484375,0.06854248046875,0.991455078125
1630067079686,0.01983642578125,0.0916748046875,1.01177978515625
1630067079686,0.01898193359375,0.0821533203125,1.00970458984375
1630067079686,0.02203369140625,0.0950927734375,1.016357421875
1630067079717,0.017333984375,0.06109619140625,0.99603271484375
1630067079717,0.0191650390625,0.07159423828125,1.00042724609375
1630067079717,0.023193359375,0.0625,0.99462890625
1630067079733,0.014892578125,0.06658935546875,1.0072021484375
1630067079733,0.013427734375,0.059326171875,1.00091552734375
1630067079748,0.007080078125,0.0877685546875,0.9874267578125
1630067079748,0.01348876953125,0.0687255859375,1.00958251953125
1630067079748,0.00921630859375,0.08001708984375,1.0052490234375
1630067079748,0.0072021484375,0.0833740234375,0.99530029296875
1630067079811,0.0048828125,0.08258056640625,0.98583984375
1630067079811,0.0067138671875,0.090087890625,0.980224609375
1630067079811,0.00537109375,0.0841064453125,0.97735595703125
1630067079969,0.0126953125,0.07147216796875,0.99774169921875
1630067079969,0.00640869140625,0.0732421875,0.99261474609375
1630067079969,0.00482177734375,0.07855224609375,0.98626708984375
1630067080078,0.01593017578125,0.0709228515625,1.007568359375
1630067080094,0.01361083984375,0.0765380859375,1.00885009765625
1630067080094,0.0147705078125,0.0736083984375,1.01483154296875
1630067080094,0.0155029296875,0.07061767578125,1.014404296875
1630067080094,0.01458740234375,0.07232666015625,1.01220703125
1630067080094,0.01641845703125,0.0738525390625,1.0166015625
1630067080187,0.00537109375,0.076416015625,1.001953125
1630067080187,0.00494384765625,0.0791015625,0.99530029296875
1630067080187,0.00946044921875,0.07257080078125,1.00433349609375
1630067080284,-0.00311279296875,0.0714111328125,0.99151611328125
1630067080284,0.00457763671875,0.0736083984375,0.9959716796875
1630067080284,0.00103759765625,0.0771484375,0.9918212890625
1630067080284,0.0050048828125,0.08172607421875,0.992431640625
1630067080284,0.0098876953125,0.079345703125,0.9931640625
1630067080284,0.0023193359375,0.0679931640625,0.991455078125
1630067080284,0.01165771484375,0.0841064453125,0.99346923828125
1630067080284,0.00457763671875,0.0765380859375,0.9951171875
1630067080284,-0.0008544921875,0.07928466796875,0.99359130859375
1630067080393,0.0130615234375,0.08636474609375,1.0010986328125
1630067080393,0.01312255859375,0.08123779296875,1.008056640625
1630067080393,0.01605224609375,0.08209228515625,1.005126953125
1630067080456,0.01214599609375,0.0765380859375,1.00335693359375
1630067080456,0.01434326171875,0.07257080078125,1.003173828125
1630067080456,0.01513671875,0.06890869140625,0.999267578125
1630067080487,0.01220703125,0.07916259765625,1.00970458984375
1630067080502,0.0126953125,0.07330322265625,1.00830078125
1630067080502,0.013427734375,0.08843994140625,1.00164794921875
1630067080502,0.014404296875,0.07861328125,1.010498046875
1630067080502,0.01214599609375,0.08941650390625,0.99456787109375
1630067080502,0.01422119140625,0.08428955078125,1.005126953125
1630067080534,0.01519775390625,0.08441162109375,0.99188232421875
1630067080534,0.01318359375,0.07647705078125,0.99371337890625
1630067080549,0.01336669921875,0.07159423828125,0.99761962890625
1630067080737,0.02239990234375,0.06268310546875,1.00067138671875
1630067080737,0.01788330078125,0.0662841796875,1.00140380859375
1630067080737,0.0252685546875,0.06488037109375,1.00714111328125
1630067080768,0.02471923828125,0.0643310546875,1.01123046875
1630067080768,0.02490234375,0.06292724609375,1.01043701171875
1630067080784,0.01751708984375,0.06512451171875,1.0147705078125
1630067080784,0.02093505859375,0.063720703125,1.0107421875
1630067080784,0.02606201171875,0.06573486328125,1.009521484375
1630067080784,0.01971435546875,0.06414794921875,1.01141357421875
1630067080893,0.01666259765625,0.0650634765625,1.02203369140625
1630067080893,0.01519775390625,0.06689453125,1.0338134765625
1630067080893,0.01422119140625,0.06396484375,1.0284423828125
1630067080924,0.00604248046875,0.0635986328125,1.036865234375
1630067080924,0.01397705078125,0.0699462890625,1.02978515625
1630067080924,0.00457763671875,0.06207275390625,1.02947998046875
1630067080987,-0.0111083984375,0.0606689453125,1.011962890625
1630067080987,-0.015625,0.06231689453125,1.010986328125
1630067080987,-0.000244140625,0.06182861328125,1.013916015625
1630067081002,-0.01947021484375,0.06292724609375,1.00457763671875
1630067081002,-0.0340576171875,0.067626953125,1.00347900390625
1630067081002,-0.02813720703125,0.06640625,1.00390625
1630067081084,-0.05987548828125,0.07904052734375,0.99920654296875
1630067081084,-0.0438232421875,0.06939697265625,0.99371337890625
1630067081084,-0.05157470703125,0.07611083984375,0.98626708984375
1630067081084,-0.075439453125,0.0894775390625,0.98846435546875
1630067081084,-0.082275390625,0.0938720703125,0.98583984375
1630067081099,-0.065185546875,0.08758544921875,0.999267578125
1630067081146,-0.1060791015625,0.09368896484375,0.984130859375
1630067081162,-0.1087646484375,0.087646484375,0.98541259765625
1630067081162,-0.09442138671875,0.09637451171875,0.9730224609375
1630067081240,-0.1202392578125,0.0870361328125,0.9842529296875
1630067081240,-0.1217041015625,0.086181640625,0.98138427734375
1630067081240,-0.12493896484375,0.08624267578125,0.9779052734375
1630067081287,-0.15484619140625,0.0828857421875,0.97210693359375
1630067081287,-0.1331787109375,0.076416015625,0.97027587890625
1630067081287,-0.15032958984375,0.0833740234375,0.97271728515625
1630067081287,-0.13720703125,0.07464599609375,0.97161865234375
1630067081302,-0.160400390625,0.08123779296875,0.97412109375
1630067081302,-0.12677001953125,0.085205078125,0.97735595703125
1630067081302,-0.15673828125,0.0826416015625,0.972412109375
1630067081302,-0.1451416015625,0.07745361328125,0.97357177734375
1630067081302,-0.16748046875,0.07818603515625,0.97406005859375
1630067081349,-0.17156982421875,0.06805419921875,0.97259521484375
1630067081349,-0.169921875,0.06268310546875,0.96881103515625
1630067081349,-0.16888427734375,0.0736083984375,0.97772216796875
1630067081396,-0.175537109375,0.07177734375,0.975341796875
1630067081396,-0.172607421875,0.0673828125,0.97064208984375
1630067081396,-0.17230224609375,0.06439208984375,0.972900390625
1630067081412,-0.17510986328125,0.07061767578125,0.9747314453125
1630067081412,-0.17352294921875,0.06610107421875,0.97265625
1630067081412,-0.1746826171875,0.07763671875,0.9725341796875
1630067081443,-0.17022705078125,0.08709716796875,0.97027587890625
1630067081443,-0.17193603515625,0.08251953125,0.97125244140625
1630067081443,-0.17376708984375,0.09197998046875,0.97021484375
1630067081568,-0.17919921875,0.07818603515625,0.99072265625
1630067081568,-0.1737060546875,0.08514404296875,0.98974609375
1630067081568,-0.1763916015625,0.09124755859375,0.98223876953125
1630067081584,-0.18255615234375,0.072998046875,0.98199462890625
1630067081584,-0.175537109375,0.06866455078125,0.9794921875
1630067081584,-0.1812744140625,0.067138671875,0.9793701171875
1630067081615,-0.17816162109375,0.075439453125,0.98614501953125
1630067081615,-0.17694091796875,0.07958984375,0.9813232421875
1630067081615,-0.17889404296875,0.07037353515625,0.983154296875
1630067081646,-0.177734375,0.0865478515625,0.9798583984375
1630067081662,-0.1822509765625,0.086181640625,0.9857177734375
1630067081662,-0.18585205078125,0.07916259765625,0.98223876953125
1630067081724,-0.1842041015625,0.07611083984375,0.9774169921875
1630067081724,-0.18450927734375,0.0791015625,0.97705078125
1630067081740,-0.18316650390625,0.07342529296875,0.9713134765625
1630067081771,-0.1856689453125,0.07379150390625,0.97064208984375
1630067081771,-0.18829345703125,0.0770263671875,0.97369384765625
1630067081771,-0.1865234375,0.077880859375,0.97412109375
1630067081849,-0.182861328125,0.0760498046875,0.9727783203125
1630067081849,-0.18243408203125,0.07647705078125,0.97662353515625
1630067081849,-0.18389892578125,0.07598876953125,0.969970703125
1630067081912,-0.1890869140625,0.07537841796875,0.98028564453125
1630067081912,-0.1866455078125,0.08001708984375,0.97247314453125
1630067081912,-0.190673828125,0.08001708984375,0.98431396484375
1630067081943,-0.1859130859375,0.0775146484375,0.9736328125
1630067081959,-0.18829345703125,0.07244873046875,0.97869873046875
1630067081959,-0.18280029296875,0.0792236328125,0.9796142578125
1630067082037,-0.18341064453125,0.07977294921875,0.97900390625
1630067082037,-0.18017578125,0.0794677734375,0.979736328125
1630067082037,-0.18145751953125,0.078369140625,0.97772216796875
1630067082115,-0.18170166015625,0.07666015625,0.9803466796875
1630067082115,-0.18212890625,0.0799560546875,0.981689453125
1630067082115,-0.18243408203125,0.07415771484375,0.9754638671875
1630067082130,-0.18218994140625,0.06817626953125,0.97760009765625
1630067082130,-0.18572998046875,0.0704345703125,0.97833251953125
1630067082146,-0.18359375,0.0694580078125,0.97442626953125
1630067082177,-0.18353271484375,0.07196044921875,0.97528076171875
1630067082193,-0.1864013671875,0.05853271484375,0.9825439453125
1630067082193,-0.1854248046875,0.0653076171875,0.97784423828125
1630067082240,-0.18609619140625,0.061279296875,0.98431396484375
1630067082240,-0.18280029296875,0.06317138671875,0.97991943359375
1630067082240,-0.18377685546875,0.0615234375,0.9847412109375
1630067082283,-0.1851806640625,0.06341552734375,0.98358154296875
1630067082299,-0.1859130859375,0.05615234375,0.98681640625
1630067082299,-0.18701171875,0.0545654296875,0.9840087890625
1630067082361,-0.18756103515625,0.0826416015625,0.97662353515625
1630067082361,-0.1856689453125,0.06512451171875,0.97918701171875
1630067082361,-0.1905517578125,0.0762939453125,0.9752197265625
1630067082424,-0.18975830078125,0.09649658203125,0.9749755859375
1630067082424,-0.19097900390625,0.09027099609375,0.975830078125
1630067082424,-0.1915283203125,0.0941162109375,0.97698974609375
1630067082486,-0.19146728515625,0.0943603515625,0.96966552734375
1630067082486,-0.19183349609375,0.08856201171875,0.9683837890625
1630067082486,-0.19085693359375,0.08050537109375,0.97100830078125
1630067082533,-0.18896484375,0.06854248046875,0.9737548828125
1630067082533,-0.1900634765625,0.06744384765625,0.9754638671875
1630067082533,-0.1881103515625,0.07269287109375,0.9708251953125
1630067082674,-0.19049072265625,0.072021484375,0.98126220703125
1630067082690,-0.18438720703125,0.0667724609375,0.976318359375
1630067082846,-0.18878173828125,0.0743408203125,0.978271484375
1630067082846,-0.189208984375,0.06402587890625,0.98052978515625
1630067082861,-0.18951416015625,0.06597900390625,0.97869873046875
1630067082861,-0.18841552734375,0.072509765625,0.97857666015625
1630067082861,-0.1904296875,0.06146240234375,0.98211669921875
1630067082861,-0.19171142578125,0.06964111328125,0.98272705078125
1630067082861,-0.19097900390625,0.06329345703125,0.977783203125
1630067082861,-0.19049072265625,0.07000732421875,0.9833984375
1630067082861,-0.19232177734375,0.06414794921875,0.982666015625
1630067082893,-0.19677734375,0.0684814453125,0.97528076171875
1630067082893,-0.19354248046875,0.07501220703125,0.97796630859375
1630067082893,-0.18951416015625,0.073974609375,0.97967529296875
1630067082971,-0.198974609375,0.06512451171875,0.97052001953125
1630067082971,-0.19671630859375,0.06402587890625,0.97088623046875
1630067082971,-0.19097900390625,0.08489990234375,0.9747314453125
1630067082986,-0.19256591796875,0.0780029296875,0.96868896484375
1630067082986,-0.18963623046875,0.090087890625,0.983642578125
1630067082986,-0.197998046875,0.070556640625,0.9715576171875
1630067083064,-0.1954345703125,0.089111328125,0.98583984375
1630067083064,-0.193603515625,0.085693359375,0.981689453125
1630067083064,-0.195068359375,0.07720947265625,0.976318359375
1630067083080,-0.1993408203125,0.06207275390625,0.9722900390625
1630067083080,-0.20208740234375,0.06134033203125,0.9722900390625
1630067083096,-0.1959228515625,0.07196044921875,0.97467041015625
1630067083174,-0.2064208984375,0.0614013671875,0.9749755859375
1630067083174,-0.2034912109375,0.05865478515625,0.9766845703125
1630067083174,-0.2066650390625,0.05230712890625,0.974609375
1630067083189,-0.2139892578125,0.053955078125,0.97259521484375
1630067083189,-0.20867919921875,0.0596923828125,0.96435546875
1630067083189,-0.20947265625,0.05108642578125,0.97332763671875
1630067083268,-0.21405029296875,0.0589599609375,0.9661865234375
1630067083268,-0.2135009765625,0.05938720703125,0.96636962890625
1630067083268,-0.20745849609375,0.06134033203125,0.9627685546875
1630067083299,-0.20916748046875,0.05206298828125,0.9749755859375
1630067083299,-0.21563720703125,0.05841064453125,0.97625732421875
1630067083299,-0.20867919921875,0.05322265625,0.97454833984375
1630067083361,-0.20684814453125,0.06036376953125,0.97509765625
1630067083361,-0.21063232421875,0.05450439453125,0.97479248046875
1630067083377,-0.205078125,0.05902099609375,0.974365234375
1630067083455,-0.2022705078125,0.0655517578125,0.97509765625
1630067083455,-0.20159912109375,0.06427001953125,0.974609375
1630067083471,-0.20458984375,0.0643310546875,0.97479248046875
1630067083486,-0.20330810546875,0.0675048828125,0.9739990234375
1630067083486,-0.205078125,0.066162109375,0.976806640625
1630067083486,-0.20263671875,0.0657958984375,0.9830322265625
1630067083611,-0.19915771484375,0.0712890625,0.97344970703125
1630067083611,-0.203857421875,0.06365966796875,0.97723388671875
1630067083611,-0.202880859375,0.0732421875,0.97247314453125
1630067083611,-0.20294189453125,0.06787109375,0.97674560546875
1630067083611,-0.20233154296875,0.0670166015625,0.9764404296875
1630067083611,-0.20556640625,0.071044921875,0.9755859375
1630067083674,-0.20074462890625,0.07208251953125,0.97607421875
1630067083674,-0.2020263671875,0.07342529296875,0.96795654296875
1630067083674,-0.20343017578125,0.073974609375,0.97015380859375
1630067083783,-0.20452880859375,0.074462890625,0.977294921875
1630067083783,-0.20562744140625,0.06365966796875,0.974365234375
1630067083783,-0.20123291015625,0.07568359375,0.975830078125
1630067083783,-0.2034912109375,0.0738525390625,0.97576904296875
1630067083783,-0.19854736328125,0.05615234375,0.972412109375
1630067083783,-0.201171875,0.07464599609375,0.974609375
1630067083861,-0.19635009765625,0.0611572265625,0.978759765625
1630067083861,-0.2005615234375,0.0592041015625,0.97802734375
1630067083877,-0.19921875,0.06011962890625,0.97271728515625
1630067083924,-0.19512939453125,0.06439208984375,0.9744873046875
1630067083924,-0.19696044921875,0.0599365234375,0.97686767578125
1630067083924,-0.1949462890625,0.06463623046875,0.97308349609375
1630067083939,-0.20306396484375,0.064453125,0.9781494140625
1630067083939,-0.20013427734375,0.06231689453125,0.98077392578125
1630067083939,-0.19866943359375,0.06732177734375,0.9775390625
1630067084161,-0.19580078125,0.05987548828125,0.9774169921875
1630067084161,-0.20062255859375,0.062255859375,0.979736328125
1630067084161,-0.19647216796875,0.06689453125,0.97412109375
1630067084177,-0.1954345703125,0.06292724609375,0.97711181640625
1630067084177,-0.19561767578125,0.07037353515625,0.980712890625
1630067084177,-0.1988525390625,0.05718994140625,0.97637939453125
1630067084177,-0.1973876953125,0.06768798828125,0.97900390625
1630067084177,-0.197021484375,0.060546875,0.97442626953125
1630067084192,-0.1978759765625,0.065673828125,0.97723388671875
1630067084208,-0.197509765625,0.07928466796875,0.97955322265625
1630067084208,-0.19549560546875,0.07928466796875,0.98101806640625
1630067084223,-0.19464111328125,0.0743408203125,0.97454833984375
1630067084317,-0.1964111328125,0.079833984375,0.97735595703125
1630067084317,-0.2001953125,0.07476806640625,0.97454833984375
1630067084317,-0.197998046875,0.08013916015625,0.9765625
1630067084317,-0.20245361328125,0.0728759765625,0.97064208984375
1630067084317,-0.19659423828125,0.07611083984375,0.9776611328125
1630067084317,-0.200927734375,0.07476806640625,0.971435546875
1630067084395,-0.19964599609375,0.076416015625,0.9766845703125
1630067084395,-0.20330810546875,0.07623291015625,0.96881103515625
1630067084395,-0.19873046875,0.07611083984375,0.9725341796875
1630067084489,-0.2010498046875,0.0771484375,0.97418212890625
1630067084489,-0.199462890625,0.07171630859375,0.97369384765625
1630067084489,-0.19622802734375,0.07501220703125,0.97344970703125
1630067084520,-0.19818115234375,0.06964111328125,0.9735107421875
1630067084520,-0.2010498046875,0.06134033203125,0.97454833984375
1630067084520,-0.201416015625,0.0672607421875,0.97247314453125
1630067084552,-0.199951171875,0.071044921875,0.97430419921875
1630067084552,-0.20599365234375,0.069091796875,0.9793701171875
1630067084552,-0.2022705078125,0.06243896484375,0.97955322265625
1630067084598,-0.20806884765625,0.06195068359375,0.97576904296875
1630067084598,-0.20587158203125,0.0682373046875,0.97271728515625
1630067084598,-0.20599365234375,0.05987548828125,0.97149658203125
1630067084692,-0.20184326171875,0.0731201171875,0.97430419921875
1630067084692,-0.20672607421875,0.0628662109375,0.9676513671875
1630067084692,-0.2017822265625,0.07415771484375,0.97137451171875
1630067084739,-0.1973876953125,0.07427978515625,0.977783203125
1630067084739,-0.19781494140625,0.07989501953125,0.97967529296875
1630067084739,-0.20074462890625,0.082275390625,0.97882080078125
1630067084801,-0.203369140625,0.07342529296875,0.97308349609375
1630067084801,-0.20489501953125,0.0765380859375,0.9718017578125
1630067084801,-0.1978759765625,0.0826416015625,0.9761962890625
1630067084864,-0.2030029296875,0.06658935546875,0.97149658203125
1630067084864,-0.20623779296875,0.06512451171875,0.9757080078125
1630067084864,-0.20306396484375,0.06756591796875,0.974365234375
1630067084942,-0.2034912109375,0.064453125,0.97479248046875
1630067084958,-0.20281982421875,0.06585693359375,0.9776611328125
1630067084958,-0.19970703125,0.05694580078125,0.97467041015625
1630067084973,-0.20001220703125,0.06683349609375,0.9771728515625
1630067084973,-0.19989013671875,0.07025146484375,0.97808837890625
1630067085101,-0.201416015625,0.072509765625,0.97406005859375
1630067085101,-0.2052001953125,0.068603515625,0.978759765625
1630067085116,-0.20068359375,0.0709228515625,0.9713134765625
1630067085116,-0.2078857421875,0.0711669921875,0.97393798828125
1630067085116,-0.205078125,0.07086181640625,0.97491455078125
1630067085116,-0.1982421875,0.06488037109375,0.97808837890625
1630067085132,-0.20513916015625,0.0721435546875,0.971923828125
1630067085147,-0.20263671875,0.072021484375,0.969970703125
1630067085147,-0.203125,0.07122802734375,0.9686279296875
1630067085241,-0.19970703125,0.0711669921875,0.97003173828125
1630067085241,-0.20184326171875,0.06829833984375,0.9736328125
1630067085241,-0.201904296875,0.07318115234375,0.970458984375
1630067085272,-0.200927734375,0.065185546875,0.97650146484375
1630067085272,-0.197998046875,0.0648193359375,0.9783935546875
1630067085272,-0.199462890625,0.06414794921875,0.9769287109375
1630067085304,-0.19744873046875,0.07000732421875,0.98004150390625
1630067085304,-0.1983642578125,0.06341552734375,0.979736328125
1630067085304,-0.1947021484375,0.06793212890625,0.98101806640625
1630067085366,-0.19732666015625,0.07568359375,0.97808837890625
1630067085366,-0.19720458984375,0.07171630859375,0.982421875
1630067085366,-0.1986083984375,0.072998046875,0.97796630859375
1630067085444,-0.19873046875,0.0736083984375,0.97393798828125
1630067085444,-0.2015380859375,0.05828857421875,0.97314453125
1630067085444,-0.20050048828125,0.06695556640625,0.97760009765625
1630067085476,-0.19921875,0.05694580078125,0.97027587890625
1630067085476,-0.1981201171875,0.07403564453125,0.9725341796875
1630067085476,-0.20123291015625,0.0638427734375,0.97039794921875
1630067085569,-0.1951904296875,0.07891845703125,0.97454833984375
1630067085569,-0.19439697265625,0.076416015625,0.97283935546875
1630067085569,-0.20074462890625,0.07525634765625,0.97235107421875
1630067085679,-0.19537353515625,0.0634765625,0.97998046875
1630067085679,-0.197998046875,0.06268310546875,0.9752197265625
1630067085694,-0.19769287109375,0.08001708984375,0.97552490234375
1630067085694,-0.19921875,0.06732177734375,0.97662353515625
1630067085694,-0.1983642578125,0.06817626953125,0.9747314453125
1630067085694,-0.2010498046875,0.07403564453125,0.97442626953125
1630067085741,-0.20086669921875,0.05670166015625,0.97607421875
1630067085741,-0.19830322265625,0.06524658203125,0.977783203125
1630067085741,-0.20233154296875,0.0606689453125,0.9759521484375
1630067085819,-0.19976806640625,0.0657958984375,0.9739990234375
1630067085819,-0.19915771484375,0.0654296875,0.978271484375
1630067085819,-0.19964599609375,0.0640869140625,0.9781494140625
1630067085866,-0.19561767578125,0.064697265625,0.9810791015625
1630067085866,-0.197265625,0.06182861328125,0.98175048828125
1630067085882,-0.1961669921875,0.063720703125,0.98321533203125
1630067085913,-0.198486328125,0.06365966796875,0.97625732421875
1630067085913,-0.19989013671875,0.06396484375,0.9730224609375
1630067085913,-0.19879150390625,0.068115234375,0.97314453125
1630067085960,-0.1982421875,0.07318115234375,0.9698486328125
1630067085960,-0.19879150390625,0.07232666015625,0.97119140625
1630067085960,-0.19805908203125,0.078125,0.9658203125
1630067086023,-0.19757080078125,0.07232666015625,0.97406005859375
1630067086023,-0.197998046875,0.0728759765625,0.9691162109375
1630067086023,-0.2015380859375,0.0714111328125,0.97161865234375
1630067086103,-0.19940185546875,0.0653076171875,0.97601318359375
1630067086103,-0.19793701171875,0.06878662109375,0.97607421875
1630067086103,-0.19573974609375,0.063720703125,0.97589111328125
1630067086228,-0.19427490234375,0.0714111328125,0.98321533203125
1630067086243,-0.19561767578125,0.06781005859375,0.98333740234375
1630067086243,-0.19647216796875,0.0679931640625,0.976806640625
1630067086243,-0.1954345703125,0.06060791015625,0.97662353515625
1630067086243,-0.1986083984375,0.07305908203125,0.97723388671875
1630067086243,-0.1966552734375,0.0693359375,0.9820556640625
1630067086321,-0.20086669921875,0.0677490234375,0.9791259765625
1630067086321,-0.1998291015625,0.058837890625,0.9754638671875
1630067086321,-0.20086669921875,0.07147216796875,0.98077392578125
1630067086368,-0.19927978515625,0.07440185546875,0.97137451171875
1630067086368,-0.1988525390625,0.07049560546875,0.97015380859375
1630067086368,-0.1995849609375,0.06060791015625,0.97198486328125
1630067086400,-0.2010498046875,0.076171875,0.970703125
1630067086400,-0.2005615234375,0.07647705078125,0.97027587890625
1630067086400,-0.19915771484375,0.0750732421875,0.96978759765625
1630067086493,-0.2012939453125,0.06927490234375,0.9732666015625
1630067086493,-0.19769287109375,0.0733642578125,0.9716796875
1630067086493,-0.2003173828125,0.06292724609375,0.9739990234375
1630067086556,-0.19854736328125,0.0640869140625,0.98052978515625
1630067086556,-0.1983642578125,0.05841064453125,0.974609375
1630067086556,-0.20245361328125,0.0623779296875,0.9774169921875
1630067086618,-0.19879150390625,0.06890869140625,0.975830078125
1630067086634,-0.20074462890625,0.061767578125,0.98089599609375
1630067086634,-0.19842529296875,0.0614013671875,0.98089599609375
1630067086681,-0.19976806640625,0.068359375,0.9775390625
1630067086681,-0.20147705078125,0.068603515625,0.97607421875
1630067086681,-0.19915771484375,0.07080078125,0.97686767578125
1630067086712,-0.20477294921875,0.07342529296875,0.96942138671875
1630067086728,-0.20343017578125,0.07208251953125,0.97149658203125
1630067086728,-0.19683837890625,0.069580078125,0.97760009765625
1630067086728,-0.20037841796875,0.0718994140625,0.97821044921875
1630067086728,-0.2025146484375,0.06964111328125,0.97454833984375
1630067086728,-0.20343017578125,0.06903076171875,0.9775390625
1630067086790,-0.1993408203125,0.07305908203125,0.9720458984375
1630067086790,-0.20037841796875,0.07196044921875,0.96783447265625
1630067086790,-0.201904296875,0.0740966796875,0.967529296875
1630067086931,-0.20025634765625,0.0731201171875,0.970458984375
1630067086931,-0.19573974609375,0.06756591796875,0.9769287109375
1630067086946,-0.19439697265625,0.0672607421875,0.97589111328125
1630067086946,-0.195068359375,0.06427001953125,0.97894287109375
1630067086946,-0.19873046875,0.06793212890625,0.97528076171875
1630067086946,-0.20050048828125,0.07293701171875,0.975341796875
1630067086978,-0.19732666015625,0.06988525390625,0.98150634765625
1630067086978,-0.19464111328125,0.067138671875,0.98046875
1630067086978,-0.1959228515625,0.06805419921875,0.98382568359375
1630067087043,-0.1912841796875,0.06964111328125,0.9805908203125
1630067087043,-0.19580078125,0.07122802734375,0.9783935546875
1630067087043,-0.19488525390625,0.0682373046875,0.97100830078125
1630067087074,-0.19964599609375,0.057373046875,0.96990966796875
1630067087074,-0.19696044921875,0.063720703125,0.978271484375
1630067087074,-0.20074462890625,0.06011962890625,0.97161865234375
1630067087168,-0.19586181640625,0.07122802734375,0.974365234375
1630067087168,-0.1951904296875,0.0758056640625,0.9775390625
1630067087183,-0.19775390625,0.067138671875,0.97100830078125
1630067087230,-0.192138671875,0.07586669921875,0.9776611328125
1630067087230,-0.19525146484375,0.07696533203125,0.97515869140625
1630067087230,-0.19677734375,0.07794189453125,0.97686767578125
1630067087293,-0.1973876953125,0.07110595703125,0.97705078125
1630067087293,-0.19915771484375,0.0767822265625,0.97686767578125
1630067087293,-0.197265625,0.07684326171875,0.9757080078125
1630067087324,-0.199462890625,0.08245849609375,0.97296142578125
1630067087324,-0.2001953125,0.084228515625,0.974609375
1630067087371,-0.19720458984375,0.08050537109375,0.9727783203125
1630067087371,-0.20233154296875,0.078857421875,0.97955322265625
1630067087371,-0.19805908203125,0.08258056640625,0.967041015625
1630067087449,-0.1976318359375,0.06134033203125,0.97930908203125
1630067087449,-0.1986083984375,0.0677490234375,0.97607421875
1630067087449,-0.19732666015625,0.0631103515625,0.9742431640625
1630067087480,-0.1937255859375,0.05841064453125,0.978759765625
1630067087480,-0.1971435546875,0.055419921875,0.97674560546875
1630067087480,-0.2008056640625,0.06048583984375,0.97509765625
1630067087590,-0.19451904296875,0.0595703125,0.9747314453125
1630067087590,-0.1944580078125,0.05560302734375,0.98065185546875
1630067087605,-0.19781494140625,0.054931640625,0.97711181640625
1630067087636,-0.19378662109375,0.0679931640625,0.97442626953125
1630067087636,-0.1932373046875,0.072509765625,0.97186279296875
1630067087636,-0.19281005859375,0.06402587890625,0.98028564453125
1630067087746,-0.1925048828125,0.068115234375,0.97821044921875
1630067087746,-0.19451904296875,0.06988525390625,0.978515625
1630067087761,-0.19189453125,0.06866455078125,0.9805908203125
1630067087761,-0.1905517578125,0.07196044921875,0.9803466796875
1630067087761,-0.187744140625,0.0714111328125,0.978271484375
1630067087761,-0.1951904296875,0.07147216796875,0.97509765625
1630067087808,-0.1942138671875,0.07672119140625,0.97747802734375
1630067087808,-0.19427490234375,0.08013916015625,0.97589111328125
1630067087808,-0.19085693359375,0.0792236328125,0.979248046875
1630067087886,-0.19232177734375,0.08544921875,0.971923828125
1630067087902,-0.19122314453125,0.0828857421875,0.97418212890625
1630067087902,-0.19415283203125,0.0797119140625,0.9771728515625
1630067087933,-0.1954345703125,0.07196044921875,0.97296142578125
1630067087933,-0.2008056640625,0.07763671875,0.97760009765625
1630067087933,-0.1954345703125,0.06793212890625,0.9693603515625
1630067087980,-0.19384765625,0.0830078125,0.97540283203125
1630067087980,-0.19635009765625,0.07293701171875,0.97357177734375
1630067087980,-0.19451904296875,0.080322265625,0.97589111328125
1630067088076,-0.1905517578125,0.0833740234375,0.97674560546875
1630067088092,-0.190673828125,0.08441162109375,0.97662353515625
1630067088092,-0.19268798828125,0.081298828125,0.97650146484375
1630067088155,-0.1949462890625,0.07232666015625,0.976318359375
1630067088155,-0.19488525390625,0.065673828125,0.97515869140625
1630067088170,-0.19366455078125,0.0806884765625,0.9722900390625
1630067088326,-0.1962890625,0.065185546875,0.97821044921875
1630067088326,-0.193603515625,0.0616455078125,0.97625732421875
1630067088326,-0.1934814453125,0.061767578125,0.97711181640625
1630067088342,-0.19671630859375,0.06298828125,0.97625732421875
1630067088342,-0.19183349609375,0.072265625,0.9796142578125
1630067088342,-0.19500732421875,0.0701904296875,0.97894287109375
1630067088389,-0.1951904296875,0.0723876953125,0.97900390625
1630067088389,-0.19293212890625,0.0699462890625,0.97772216796875
1630067088389,-0.19464111328125,0.07049560546875,0.97930908203125
1630067088483,-0.19512939453125,0.0689697265625,0.97650146484375
1630067088483,-0.19720458984375,0.0712890625,0.97796630859375
1630067088483,-0.19512939453125,0.07305908203125,0.97625732421875
1630067088530,-0.19635009765625,0.07415771484375,0.97027587890625
1630067088530,-0.19549560546875,0.0751953125,0.97003173828125
1630067088530,-0.18975830078125,0.0701904296875,0.9793701171875
1630067088530,-0.19586181640625,0.0753173828125,0.97308349609375
1630067088545,-0.19622802734375,0.0699462890625,0.9757080078125
1630067088545,-0.19122314453125,0.0682373046875,0.9774169921875
1630067088545,-0.19744873046875,0.06939697265625,0.97564697265625
1630067088545,-0.1964111328125,0.07470703125,0.97454833984375
1630067088545,-0.19366455078125,0.07183837890625,0.97259521484375
1630067088561,-0.1923828125,0.06890869140625,0.98046875
1630067088576,-0.191162109375,0.069091796875,0.98272705078125
1630067088576,-0.1904296875,0.066162109375,0.97930908203125
1630067088686,-0.19171142578125,0.072998046875,0.977783203125
1630067088686,-0.19140625,0.066162109375,0.97845458984375
1630067088686,-0.19091796875,0.0711669921875,0.978515625
1630067088717,-0.194091796875,0.0693359375,0.975341796875
1630067088717,-0.19329833984375,0.07354736328125,0.97955322265625
1630067088717,-0.19439697265625,0.07061767578125,0.981689453125
1630067088842,-0.1953125,0.06182861328125,0.9686279296875
1630067088842,-0.1959228515625,0.06927490234375,0.9696044921875
1630067088842,-0.20111083984375,0.0667724609375,0.97283935546875
1630067088858,-0.19903564453125,0.054931640625,0.96990966796875
1630067088858,-0.1968994140625,0.068115234375,0.975830078125
1630067088858,-0.1990966796875,0.06109619140625,0.97564697265625
1630067088951,-0.18975830078125,0.080078125,0.98016357421875
1630067088951,-0.19146728515625,0.0711669921875,0.97393798828125
1630067088951,-0.1903076171875,0.0755615234375,0.974853515625
1630067088998,-0.1915283203125,0.07989501953125,0.980712890625
1630067088998,-0.18695068359375,0.08123779296875,0.980224609375
1630067088998,-0.195068359375,0.0716552734375,0.97918701171875
1630067089049,-0.19171142578125,0.06207275390625,0.97369384765625
1630067089049,-0.19677734375,0.06317138671875,0.97955322265625
1630067089065,-0.1917724609375,0.06683349609375,0.977294921875
1630067089065,-0.1907958984375,0.0631103515625,0.9757080078125
1630067089065,-0.192138671875,0.0654296875,0.9765625
1630067089065,-0.1947021484375,0.06536865234375,0.9749755859375
1630067089127,-0.19427490234375,0.06964111328125,0.97906494140625
1630067089127,-0.196533203125,0.0692138671875,0.9774169921875
1630067089143,-0.196533203125,0.069091796875,0.977294921875
1630067089143,-0.19598388671875,0.07025146484375,0.9830322265625
1630067089143,-0.19097900390625,0.06866455078125,0.97430419921875
1630067089158,-0.19677734375,0.06787109375,0.97808837890625
1630067089221,-0.20001220703125,0.06976318359375,0.97418212890625
1630067089221,-0.197998046875,0.06854248046875,0.97265625
1630067089237,-0.1942138671875,0.06829833984375,0.97564697265625
1630067089252,-0.19696044921875,0.07318115234375,0.97320556640625
1630067089268,-0.19647216796875,0.07220458984375,0.97052001953125
1630067089362,-0.19427490234375,0.06658935546875,0.97698974609375
1630067089362,-0.1939697265625,0.069580078125,0.9725341796875
1630067089362,-0.194091796875,0.0677490234375,0.97528076171875
1630067089408,-0.19317626953125,0.0628662109375,0.9798583984375
1630067089408,-0.19000244140625,0.0655517578125,0.97918701171875
1630067089408,-0.18896484375,0.063232421875,0.98089599609375
1630067089518,-0.19610595703125,0.0679931640625,0.980712890625
1630067089518,-0.19268798828125,0.06591796875,0.97991943359375
1630067089518,-0.19305419921875,0.0653076171875,0.9814453125
1630067089611,-0.1910400390625,0.0687255859375,0.9783935546875
1630067089611,-0.1947021484375,0.07049560546875,0.9815673828125
1630067089611,-0.1925048828125,0.06878662109375,0.97540283203125
1630067089658,-0.1907958984375,0.073486328125,0.975341796875
1630067089658,-0.19952392578125,0.07415771484375,0.97625732421875
1630067089658,-0.19305419921875,0.0697021484375,0.977783203125
1630067089658,-0.1953125,0.0721435546875,0.97430419921875
