timestamp,ax,ay,az
1631019914066,-0.7792749999999999,0.601094,-0.101931
1631019914076,-0.777628,0.600545,-0.101565
1631019914085,-0.7792749999999999,0.600789,-0.101382
1631019914095,-0.780922,0.599996,-0.10187
1631019914105,-0.780434,0.599447,-0.102968
1631019914114,-0.7801899999999999,0.599874,-0.101687
1631019914124,-0.780983,0.599691,-0.102297
1631019914133,-0.779946,0.598654,-0.102541
1631019914143,-0.780678,0.598349,-0.102541
1631019914153,-0.781959,0.59841,-0.10284599999999999
1631019914162,-0.782142,0.598349,-0.10309
1631019914172,-0.7835449999999999,0.599081,-0.105652
1631019914181,-0.783484,0.599386,-0.106018
1631019914191,-0.782569,0.600179,-0.104615
1631019914201,-0.782386,0.598837,-0.103517
1631019914210,-0.781349,0.596275,-0.102114
1631019914220,-0.782264,0.597129,-0.100955
1631019914229,-0.783423,0.59719,-0.100406
1631019914239,-0.786168,0.594994,-0.10083299999999999
1631019914249,-0.788059,0.594506,-0.10284599999999999
1631019914258,-0.791109,0.595604,-0.104859
1631019914268,-0.792268,0.598288,-0.105835
1631019914277,-0.79361,0.600301,-0.105408
1631019914287,-0.793244,0.603046,-0.104554
1631019914297,-0.790133,0.604571,-0.102724
1631019914306,-0.787693,0.605242,-0.099552
1631019914316,-0.786046,0.605913,-0.098698
1631019914325,-0.783362,0.604632,-0.098149
1631019914335,-0.7811049999999999,0.602802,-0.099552
1631019914345,-0.780068,0.601338,-0.102114
1631019914354,-0.779519,0.600362,-0.103273
1631019914364,-0.777933,0.599386,-0.107482
1631019914373,-0.777689,0.598471,-0.111203
1631019914383,-0.776774,0.59841,-0.113643
1631019914393,-0.7765299999999999,0.599386,-0.11315499999999999
1631019914402,-0.776591,0.600423,-0.111569
1631019914412,-0.776286,0.602314,-0.111081
1631019914421,-0.775249,0.604449,-0.110288
1631019914431,-0.774212,0.604754,-0.108092
1631019914441,-0.773236,0.606401,-0.10437099999999999
1631019914450,-0.773297,0.6085969999999999,-0.101687
1631019914460,-0.773175,0.60939,-0.100955
1631019914469,-0.772809,0.60695,-0.100894
1631019914479,-0.772931,0.607255,-0.10284599999999999
1631019914489,-0.774273,0.6085969999999999,-0.104859
1631019914498,-0.774456,0.60817,-0.108763
1631019914508,-0.77287,0.603961,-0.110471
1631019914517,-0.774273,0.601826,-0.112728
1631019914527,-0.775188,0.599752,-0.113277
1631019914537,-0.7759199999999999,0.598532,-0.114924
1631019914546,-0.777994,0.597373,-0.117181
1631019914556,-0.780922,0.597861,-0.116876
1631019914565,-0.781471,0.598898,-0.117913
1631019914575,-0.781532,0.597861,-0.117608
1631019914585,-0.783362,0.598959,-0.119194
1631019914594,-0.785497,0.599813,-0.11699799999999999
1631019914604,-0.785192,0.599874,-0.116022
1631019914613,-0.786046,0.599203,-0.11577799999999999
1631019914623,-0.785314,0.598898,-0.114375
1631019914633,-0.7850699999999999,0.599325,-0.11315499999999999
1631019914642,-0.785741,0.598898,-0.11254499999999999
1631019914652,-0.785192,0.598898,-0.11114199999999999
1631019914661,-0.7847649999999999,0.598288,-0.111264
1631019914671,-0.786107,0.597922,-0.110105
1631019914681,-0.7841549999999999,0.5978,-0.108214
1631019914690,-0.784216,0.597373,-0.107482
1631019914700,-0.7844599999999999,0.597251,-0.105896
1631019914709,-0.785131,0.597251,-0.105469
1631019914719,-0.784948,0.598227,-0.10431
1631019914729,-0.784826,0.598288,-0.10345599999999999
1631019914738,-0.785924,0.598105,-0.102785
1631019914748,-0.785314,0.600545,-0.101321
1631019914757,-0.784582,0.598044,-0.10083299999999999
1631019914767,-0.783728,0.596397,-0.099674
1631019914777,-0.7832399999999999,0.596946,-0.098637
1631019914786,-0.783118,0.5955429999999999,-0.099735
1631019914796,-0.783972,0.59475,-0.100284
1631019914805,-0.7844599999999999,0.59475,-0.102297
1631019914815,-0.785009,0.595116,-0.10248
1631019914825,-0.783423,0.593591,-0.100467
1631019914834,-0.7847649999999999,0.594811,-0.098271
1631019914844,-0.785314,0.595665,-0.098576
1631019914853,-0.786168,0.5958479999999999,-0.097966
1631019914863,-0.7868999999999999,0.5964579999999999,-0.098881
1631019914873,-0.788181,0.599447,-0.100467
1631019914882,-0.787144,0.60024,-0.101382
1631019914892,-0.788547,0.598166,-0.101626
1631019914901,-0.788059,0.5967629999999999,-0.10126
1631019914911,-0.7868999999999999,0.597007,-0.10187
1631019914921,-0.786412,0.596336,-0.102114
1631019914930,-0.785192,0.59597,-0.10126
1631019914940,-0.784399,0.59597,-0.102297
1631019914949,-0.783972,0.596702,-0.102602
1631019914959,-0.782691,0.597373,-0.10284599999999999
1631019914969,-0.7820199999999999,0.5978,-0.103944
1631019914978,-0.782569,0.597373,-0.103517
1631019914988,-0.7820199999999999,0.596031,-0.103334
1631019914997,-0.781898,0.595177,-0.104798
1631019915007,-0.782081,0.596092,-0.105042
1631019915017,-0.782264,0.596031,-0.10553
1631019915026,-0.782996,0.59658,-0.105896
1631019915036,-0.783057,0.596946,-0.105713
1631019915045,-0.7838499999999999,0.597922,-0.106262
1631019915055,-0.782142,0.59597,-0.108153
1631019915065,-0.7814099999999999,0.594201,-0.108885
1631019915074,-0.781166,0.594872,-0.107848
1631019915084,-0.782752,0.596946,-0.10900699999999999
1631019915093,-0.7826299999999999,0.596702,-0.108031
1631019915103,-0.782508,0.596702,-0.108214
1631019915113,-0.782569,0.598349,-0.110105
1631019915122,-0.783972,0.600423,-0.1098
1631019915132,-0.784704,0.599874,-0.108275
1631019915141,-0.784094,0.599996,-0.106567
1631019915151,-0.784216,0.599386,-0.10638399999999999
1631019915161,-0.785192,0.598959,-0.10607899999999999
1631019915170,-0.784826,0.598898,-0.105164
1631019915180,-0.784216,0.597678,-0.10406599999999999
1631019915189,-0.783423,0.597617,-0.103395
1631019915199,-0.783667,0.597861,-0.103334
1631019915209,-0.783972,0.596275,-0.103212
1631019915218,-0.784338,0.595909,-0.10309
1631019915228,-0.784643,0.595482,-0.102114
1631019915237,-0.786656,0.595787,-0.102724
1631019915247,-0.786839,0.595299,-0.103578
1631019915257,-0.785741,0.595299,-0.103944
1631019915266,-0.787876,0.594994,-0.103334
1631019915276,-0.7878149999999999,0.594262,-0.103517
1631019915285,-0.788608,0.594506,-0.102419
1631019915295,-0.7875099999999999,0.594811,-0.101992
1631019915305,-0.787022,0.594201,-0.101626
1631019915314,-0.787022,0.5943229999999999,-0.100955
1631019915324,-0.7881199999999999,0.593957,-0.10022299999999999
1631019915333,-0.7881199999999999,0.593469,-0.10065
1631019915343,-0.7887299999999999,0.5934079999999999,-0.10113799999999999
1631019915353,-0.789279,0.593042,-0.100894
1631019915362,-0.788913,0.5921879999999999,-0.101077
1631019915372,-0.7890349999999999,0.5927979999999999,-0.100406
1631019915381,-0.788791,0.592676,-0.100467
1631019915391,-0.787998,0.591761,-0.099491
1631019915401,-0.788486,0.593225,-0.09851499999999999
1631019915410,-0.790072,0.592859,-0.098637
1631019915420,-0.790194,0.592676,-0.098759
1631019915429,-0.790438,0.592676,-0.101077
1631019915439,-0.789523,0.591944,-0.10174799999999999
1631019915449,-0.788791,0.5900529999999999,-0.099735
1631019915458,-0.788547,0.591761,-0.096502
1631019915468,-0.788303,0.5937129999999999,-0.096014
1631019915477,-0.789462,0.5937129999999999,-0.09589199999999999
1631019915487,-0.788852,0.595299,-0.097417
1631019915497,-0.789767,0.597007,-0.098942
1631019915506,-0.789828,0.59658,-0.098759
1631019915516,-0.789889,0.595055,-0.09943
1631019915525,-0.7884249999999999,0.5952379999999999,-0.099064
1631019915535,-0.789401,0.5946279999999999,-0.098454
1631019915545,-0.788791,0.593652,-0.100162
1631019915554,-0.788486,0.593164,-0.101016
1631019915564,-0.7868999999999999,0.593774,-0.102236
1631019915573,-0.7859849999999999,0.593591,-0.102907
1631019915583,-0.786107,0.593957,-0.102297
1631019915593,-0.7856799999999999,0.59353,-0.102785
1631019915602,-0.785802,0.593042,-0.10187
1631019915612,-0.785009,0.593835,-0.10083299999999999
1631019915621,-0.785192,0.5931029999999999,-0.101992
1631019915631,-0.784521,0.593164,-0.101077
1631019915641,-0.7853749999999999,0.592615,-0.100955
1631019915650,-0.7862899999999999,0.591395,-0.10065
1631019915660,-0.787083,0.5927979999999999,-0.100406
1631019915669,-0.788364,0.5937129999999999,-0.100772
1631019915679,-0.788364,0.593225,-0.100467
1631019915689,-0.787449,0.591517,-0.098393
1631019915698,-0.788181,0.5927979999999999,-0.098332
1631019915708,-0.788059,0.5955429999999999,-0.097173
1631019915717,-0.788242,0.59475,-0.09455
1631019915727,-0.787754,0.59414,-0.095099
1631019915737,-0.787632,0.594689,-0.096258
1631019915746,-0.788303,0.5955429999999999,-0.096746
1631019915756,-0.788303,0.5967629999999999,-0.096319
1631019915765,-0.787998,0.597373,-0.096807
1631019915775,-0.786717,0.597129,-0.096136
1631019915785,-0.7862899999999999,0.594872,-0.097722
1631019915794,-0.785619,0.594506,-0.098393
1631019915804,-0.785802,0.594811,-0.099064
1631019915813,-0.786656,0.596092,-0.100406
1631019915823,-0.785924,0.595726,-0.10083299999999999
1631019915833,-0.7859849999999999,0.595177,-0.101687
1631019915842,-0.785924,0.594811,-0.102114
1631019915852,-0.786961,0.595787,-0.101504
1631019915861,-0.786961,0.5964579999999999,-0.103212
1631019915871,-0.786229,0.596641,-0.10345599999999999
1631019915881,-0.786961,0.595421,-0.103578
1631019915890,-0.787144,0.596031,-0.102114
1631019915900,-0.787632,0.5970679999999999,-0.101382
1631019915909,-0.786778,0.595482,-0.101931
1631019915919,-0.786351,0.595116,-0.10248
1631019915929,-0.785619,0.595909,-0.10187
1631019915938,-0.785558,0.596519,-0.101382
1631019915948,-0.785558,0.59597,-0.10174799999999999
1631019915957,-0.784887,0.5952379999999999,-0.10376099999999999
1631019915967,-0.784887,0.596031,-0.104005
1631019915977,-0.785741,0.594994,-0.101626
1631019915986,-0.7850699999999999,0.5943229999999999,-0.10174799999999999
1631019915996,-0.785924,0.594994,-0.10205299999999999
1631019916005,-0.786046,0.59536,-0.10065
1631019916015,-0.785497,0.5946279999999999,-0.099247
1631019916025,-0.786046,0.594201,-0.099247
1631019916034,-0.786656,0.593042,-0.099186
1631019916044,-0.786473,0.592615,-0.099247
1631019916053,-0.786656,0.591822,-0.098881
1631019916063,-0.787327,0.593164,-0.100711
1631019916073,-0.787266,0.5924929999999999,-0.100345
1631019916082,-0.786168,0.592554,-0.096441
1631019916092,-0.7862899999999999,0.593164,-0.094916
1631019916101,-0.787998,0.593835,-0.094001
1631019916111,-0.788791,0.596336,-0.094489
1631019916121,-0.790438,0.598044,-0.09528199999999999
1631019916130,-0.7899499999999999,0.599264,-0.098454
1631019916140,-0.790194,0.598105,-0.10083299999999999
1631019916149,-0.7896449999999999,0.596275,-0.099796
1631019916159,-0.7896449999999999,0.594506,-0.099308
1631019916169,-0.786839,0.592371,-0.100406
1631019916178,-0.787693,0.591456,-0.101199
1631019916188,-0.787144,0.592615,-0.10187
1631019916197,-0.785924,0.592432,-0.101992
1631019916207,-0.7862899999999999,0.593347,-0.102907
1631019916217,-0.785558,0.593164,-0.103029
1631019916226,-0.785192,0.593774,-0.103822
1631019916236,-0.785314,0.59231,-0.103395
1631019916245,-0.785192,0.59231,-0.103395
1631019916255,-0.7856799999999999,0.592371,-0.103517
1631019916265,-0.786412,0.5927979999999999,-0.103029
1631019916274,-0.787998,0.5924929999999999,-0.102968
1631019916284,-0.788913,0.592737,-0.101199
1631019916293,-0.7899499999999999,0.593164,-0.101992
1631019916303,-0.790377,0.592737,-0.102968
1631019916313,-0.789828,0.591151,-0.10065
1631019916322,-0.789889,0.591212,-0.097844
1631019916332,-0.789828,0.594079,-0.097417
1631019916341,-0.7908649999999999,0.595177,-0.097661
1631019916351,-0.790743,0.595299,-0.09577
1631019916361,-0.790804,0.594872,-0.09467199999999999
1631019916370,-0.790194,0.5949329999999999,-0.094428
1631019916380,-0.7884249999999999,0.596519,-0.094611
1631019916389,-0.7890349999999999,0.596397,-0.09394
1631019916399,-0.787754,0.596336,-0.093147
1631019916409,-0.7881199999999999,0.595726,-0.09406199999999999
1631019916418,-0.786961,0.59536,-0.093574
1631019916428,-0.7856799999999999,0.594811,-0.09467199999999999
1631019916437,-0.786168,0.593774,-0.095526
1631019916447,-0.785802,0.593896,-0.096441
1631019916457,-0.785924,0.593835,-0.097356
1631019916466,-0.786473,0.59414,-0.098393
1631019916476,-0.785741,0.595055,-0.097478
1631019916485,-0.785558,0.59414,-0.09820999999999999
1631019916495,-0.786412,0.593896,-0.098637
1631019916505,-0.786229,0.59353,-0.098942
1631019916514,-0.787144,0.595482,-0.09943
1631019916524,-0.786717,0.595482,-0.099064
1631019916533,-0.787022,0.5952379999999999,-0.099552
1631019916543,-0.786473,0.595177,-0.099796
1631019916553,-0.786534,0.594994,-0.100345
1631019916562,-0.7859849999999999,0.5940179999999999,-0.10052799999999999
1631019916572,-0.786961,0.5946279999999999,-0.100284
1631019916581,-0.787266,0.594262,-0.100101
1631019916591,-0.786473,0.595116,-0.10113799999999999
1631019916601,-0.786961,0.59536,-0.10065
1631019916610,-0.787449,0.595116,-0.100772
1631019916620,-0.7868999999999999,0.5943229999999999,-0.101199
1631019916629,-0.787632,0.594262,-0.101077
1631019916639,-0.787388,0.594506,-0.100955
1631019916649,-0.788852,0.59475,-0.100589
1631019916658,-0.787449,0.593896,-0.101382
1631019916668,-0.7875099999999999,0.593652,-0.100894
1631019916677,-0.788059,0.5946279999999999,-0.10065
1631019916687,-0.786961,0.5937129999999999,-0.101626
1631019916697,-0.787754,0.594384,-0.102358
1631019916706,-0.787083,0.595604,-0.102175
1631019916716,-0.787266,0.594262,-0.10083299999999999
1631019916725,-0.7856799999999999,0.592676,-0.100772
1631019916735,-0.785436,0.594689,-0.097844
1631019916745,-0.786046,0.59597,-0.096624
1631019916754,-0.787144,0.596336,-0.096685
1631019916764,-0.788364,0.5967629999999999,-0.099735
1631019916773,-0.789401,0.5978,-0.101321
1631019916783,-0.788181,0.596214,-0.1037
1631019916793,-0.788364,0.595909,-0.10309
1631019916802,-0.788181,0.595482,-0.10309
1631019916812,-0.7878149999999999,0.5952379999999999,-0.10126
1631019916821,-0.786046,0.595116,-0.101016
1631019916831,-0.7853749999999999,0.595482,-0.101016
1631019916841,-0.7841549999999999,0.595909,-0.100162
1631019916850,-0.783118,0.596946,-0.099796
1631019916860,-0.7832399999999999,0.59658,-0.099308
1631019916869,-0.780922,0.5952379999999999,-0.09991799999999999
1631019916879,-0.779946,0.593469,-0.10052799999999999
1631019916889,-0.782447,0.594506,-0.099613
1631019916898,-0.782691,0.593957,-0.099674
1631019916908,-0.782386,0.594872,-0.10052799999999999
1631019916917,-0.7838499999999999,0.595299,-0.099735
1631019916927,-0.784582,0.595665,-0.100345
1631019916937,-0.786412,0.5970679999999999,-0.100406
1631019916946,-0.786107,0.596885,-0.100894
1631019916956,-0.785741,0.5958479999999999,-0.099064
1631019916965,-0.784521,0.59536,-0.095953
1631019916975,-0.785741,0.596519,-0.095526
1631019916985,-0.787083,0.5967629999999999,-0.095099
1631019916994,-0.786534,0.596214,-0.09436699999999999
1631019917004,-0.786656,0.59719,-0.094855
1631019917013,-0.787022,0.598654,-0.095038
1631019917023,-0.7868999999999999,0.600057,-0.094794
1631019917033,-0.786168,0.599752,-0.094428
1631019917042,-0.786534,0.598654,-0.092903
1631019917052,-0.786412,0.598532,-0.09272
1631019917061,-0.784338,0.596885,-0.093635
1631019917071,-0.784582,0.596702,-0.09467199999999999
1631019917081,-0.785436,0.596336,-0.094733
1631019917090,-0.784521,0.596946,-0.09516
1631019917100,-0.784033,0.595909,-0.095709
1631019917109,-0.785009,0.59536,-0.095831
1631019917119,-0.784887,0.594994,-0.09528199999999999
1631019917129,-0.785009,0.59475,-0.095221
1631019917138,-0.7859849999999999,0.596031,-0.09589199999999999
1631019917148,-0.7868999999999999,0.596702,-0.09558699999999999
1631019917157,-0.785741,0.596336,-0.096014
1631019917167,-0.786534,0.595482,-0.094794
1631019917177,-0.786229,0.596031,-0.09455
1631019917186,-0.786473,0.596031,-0.094428
1631019917196,-0.786534,0.5958479999999999,-0.09436699999999999
1631019917205,-0.785802,0.595055,-0.094794
1631019917215,-0.784948,0.59414,-0.095648
1631019917225,-0.7872049999999999,0.594872,-0.094428
1631019917234,-0.786656,0.594384,-0.093879
1631019917244,-0.7868999999999999,0.594811,-0.09558699999999999
1631019917253,-0.785619,0.594384,-0.09558699999999999
1631019917263,-0.7847649999999999,0.593286,-0.096136
1631019917273,-0.786534,0.593774,-0.09638
1631019917282,-0.787144,0.593225,-0.096502
1631019917292,-0.786717,0.593164,-0.096868
1631019917301,-0.787937,0.592676,-0.097234
1631019917311,-0.788303,0.592859,-0.097173
1631019917321,-0.788791,0.592676,-0.096624
1631019917330,-0.7887299999999999,0.592127,-0.09698999999999999
1631019917340,-0.788791,0.590846,-0.097722
1631019917349,-0.7893399999999999,0.591395,-0.097051
1631019917359,-0.790743,0.591334,-0.09698999999999999
1631019917369,-0.791841,0.59292,-0.09881999999999999
1631019917378,-0.791231,0.592676,-0.100467
1631019917388,-0.790377,0.591944,-0.099796
1631019917397,-0.790072,0.5897479999999999,-0.097173
1631019917407,-0.790072,0.591212,-0.09333
1631019917417,-0.791658,0.5927979999999999,-0.09333
1631019917426,-0.792329,0.592249,-0.093757
1631019917436,-0.792939,0.59414,-0.096807
1631019917445,-0.793854,0.5967629999999999,-0.09881999999999999
1631019917455,-0.793488,0.597922,-0.100406
1631019917465,-0.792817,0.594445,-0.098942
1631019917474,-0.792207,0.592005,-0.097661
1631019917484,-0.791719,0.5912729999999999,-0.098576
1631019917493,-0.790926,0.5915779999999999,-0.097234
1631019917503,-0.790133,0.5912729999999999,-0.098149
1631019917513,-0.788242,0.59231,-0.097478
1631019917522,-0.787998,0.591334,-0.09698999999999999
1631019917532,-0.786534,0.592676,-0.097173
1631019917541,-0.786107,0.592432,-0.094916
1631019917551,-0.7853749999999999,0.591822,-0.094794
1631019917561,-0.784887,0.591639,-0.09406199999999999
1631019917570,-0.785314,0.591822,-0.094428
1631019917580,-0.785192,0.593347,-0.093391
1631019917589,-0.787449,0.5931029999999999,-0.092781
1631019917599,-0.785192,0.592981,-0.093391
1631019917609,-0.7853749999999999,0.592859,-0.092842
1631019917618,-0.787998,0.594079,-0.091317
1631019917628,-0.787632,0.59292,-0.09211
1631019917637,-0.786412,0.593347,-0.091073
1631019917647,-0.787571,0.5943229999999999,-0.090951
1631019917657,-0.789462,0.595482,-0.089975
1631019917666,-0.790133,0.594567,-0.089487
1631019917676,-0.788852,0.595055,-0.090341
1631019917685,-0.788852,0.5958479999999999,-0.091317
1631019917695,-0.787876,0.596092,-0.09174399999999999
1631019917705,-0.788486,0.597373,-0.091012
1631019917714,-0.787632,0.597556,-0.090524
1631019917724,-0.787388,0.597434,-0.089548
1631019917733,-0.786351,0.595909,-0.09028
1631019917743,-0.786107,0.594506,-0.089853
1631019917753,-0.786656,0.595909,-0.090341
1631019917762,-0.785802,0.59597,-0.090829
1631019917772,-0.786656,0.5958479999999999,-0.091622
1631019917781,-0.785802,0.59536,-0.092415
1631019917791,-0.786534,0.596275,-0.092476
1631019917801,-0.786839,0.596641,-0.092537
1631019917810,-0.787266,0.595787,-0.093147
1631019917820,-0.786839,0.595604,-0.093818
1631019917829,-0.788242,0.595726,-0.094489
1631019917839,-0.787754,0.5955429999999999,-0.095343
1631019917849,-0.788303,0.5955429999999999,-0.096624
1631019917858,-0.788303,0.595055,-0.096319
1631019917868,-0.787632,0.5940179999999999,-0.096258
1631019917877,-0.787449,0.5927979999999999,-0.098393
1631019917887,-0.789157,0.5931029999999999,-0.09759999999999999
1631019917897,-0.788608,0.593591,-0.097783
1631019917906,-0.788242,0.593286,-0.097356
1631019917916,-0.787754,0.593042,-0.097112
1631019917925,-0.787144,0.592066,-0.09759999999999999
1631019917935,-0.788242,0.5912729999999999,-0.097966
1631019917945,-0.788181,0.591517,-0.097722
1631019917954,-0.789462,0.590541,-0.097539
1631019917964,-0.7893399999999999,0.590724,-0.097844
1631019917973,-0.789462,0.5909679999999999,-0.097356
1631019917983,-0.789889,0.590846,-0.097539
1631019917993,-0.7899499999999999,0.590907,-0.097234
1631019918002,-0.7899499999999999,0.592127,-0.096197
1631019918012,-0.7905599999999999,0.59231,-0.095831
1631019918021,-0.790804,0.591761,-0.096563
1631019918031,-0.791292,0.59109,-0.096502
1631019918041,-0.791353,0.590602,-0.096624
1631019918050,-0.790743,0.589809,-0.097844
1631019918060,-0.791109,0.5882229999999999,-0.097356
1631019918069,-0.7902549999999999,0.587552,-0.09589199999999999
1631019918079,-0.791231,0.590541,-0.09577
1631019918089,-0.793366,0.592615,-0.09455
1631019918098,-0.793244,0.593286,-0.09698999999999999
1631019918108,-0.793976,0.595909,-0.097722
1631019918117,-0.793488,0.596214,-0.099247
1631019918127,-0.792634,0.595604,-0.097722
1631019918137,-0.791292,0.593591,-0.09851499999999999
1631019918146,-0.790682,0.5934079999999999,-0.098271
1631019918156,-0.789889,0.5940179999999999,-0.098576
1631019918165,-0.787693,0.593896,-0.099613
1631019918175,-0.786107,0.5931029999999999,-0.098393
1631019918185,-0.7856799999999999,0.5937129999999999,-0.098698
1631019918194,-0.784887,0.594872,-0.099857
1631019918204,-0.784277,0.59475,-0.101382
1631019918213,-0.7841549999999999,0.594079,-0.100955
1631019918223,-0.783972,0.593347,-0.100894
1631019918233,-0.783362,0.593225,-0.100894
1631019918242,-0.781837,0.59292,-0.100589
1631019918252,-0.783606,0.59292,-0.099857
1631019918261,-0.7838499999999999,0.59292,-0.098759
1631019918271,-0.784399,0.593286,-0.098759
1631019918281,-0.786778,0.59353,-0.097112
1631019918290,-0.787571,0.593591,-0.096929
1631019918300,-0.787388,0.593347,-0.096136
1631019918309,-0.786534,0.5931029999999999,-0.094489
1631019918319,-0.7865949999999999,0.59414,-0.09455
1631019918329,-0.787449,0.596092,-0.09272
1631019918338,-0.787571,0.5943229999999999,-0.092781
1631019918348,-0.788852,0.593286,-0.092476
1631019918357,-0.7890349999999999,0.595055,-0.092781
1631019918367,-0.788608,0.595726,-0.09406199999999999
1631019918377,-0.7890349999999999,0.595909,-0.09394
1631019918386,-0.790011,0.596702,-0.094489
1631019918396,-0.7896449999999999,0.596885,-0.094184
1631019918405,-0.788852,0.594872,-0.094855
1631019918415,-0.788364,0.5955429999999999,-0.094855
1631019918425,-0.787876,0.5958479999999999,-0.096014
1631019918434,-0.787266,0.5961529999999999,-0.097173
1631019918444,-0.787388,0.594384,-0.097234
1631019918453,-0.786229,0.595787,-0.09698999999999999
1631019918463,-0.786961,0.595909,-0.097478
1631019918473,-0.787632,0.5955429999999999,-0.097539
1631019918482,-0.786473,0.5952379999999999,-0.099003
1631019918492,-0.787266,0.594262,-0.10065
1631019918501,-0.786107,0.595421,-0.102175
1631019918511,-0.786656,0.597007,-0.10113799999999999
1631019918521,-0.787937,0.597312,-0.100345
1631019918530,-0.787754,0.595299,-0.10187
1631019918540,-0.788486,0.595116,-0.102236
1631019918549,-0.786717,0.594689,-0.10248
1631019918559,-0.7865949999999999,0.59475,-0.100894
1631019918569,-0.785741,0.594384,-0.10083299999999999
1631019918578,-0.785741,0.594811,-0.099979
1631019918588,-0.786656,0.59414,-0.100589
1631019918597,-0.786961,0.594445,-0.099857
1631019918607,-0.785924,0.594201,-0.099552
1631019918617,-0.785741,0.593774,-0.098881
1631019918626,-0.7868999999999999,0.59414,-0.099369
1631019918636,-0.786168,0.5934079999999999,-0.097783
1631019918645,-0.785558,0.594262,-0.096502
1631019918655,-0.7862899999999999,0.592371,-0.097051
1631019918665,-0.786534,0.59292,-0.096136
1631019918674,-0.786778,0.593042,-0.096197
1631019918684,-0.785924,0.5927979999999999,-0.096807
1631019918693,-0.787998,0.591151,-0.098332
1631019918703,-0.787998,0.59109,-0.10083299999999999
1631019918713,-0.7887299999999999,0.590541,-0.099003
1631019918722,-0.788486,0.589626,-0.098881
1631019918732,-0.788547,0.591639,-0.09851499999999999
1631019918741,-0.789096,0.594262,-0.098088
1631019918751,-0.790987,0.595726,-0.09790499999999999
1631019918761,-0.790926,0.596702,-0.100589
1631019918770,-0.791963,0.59658,-0.103578
1631019918780,-0.790133,0.595726,-0.105103
1631019918789,-0.790499,0.59414,-0.103578
1631019918799,-0.789584,0.591639,-0.102785
1631019918809,-0.788852,0.591639,-0.10498099999999999
1631019918818,-0.788608,0.5909679999999999,-0.10638399999999999
1631019918828,-0.789218,0.591822,-0.105591
1631019918837,-0.7887299999999999,0.5937129999999999,-0.106811
1631019918847,-0.7878149999999999,0.5940179999999999,-0.106018
1631019918857,-0.787632,0.593774,-0.105164
1631019918866,-0.786412,0.593469,-0.10467599999999999
1631019918876,-0.786717,0.593225,-0.105164
1631019918885,-0.7859849999999999,0.5917,-0.10437099999999999
1631019918895,-0.785314,0.590541,-0.105225
1631019918905,-0.7856799999999999,0.590907,-0.104554
1631019918914,-0.786656,0.591334,-0.105225
1631019918924,-0.786778,0.59231,-0.104615
1631019918933,-0.787022,0.593469,-0.10406599999999999
1631019918943,-0.788852,0.594506,-0.103822
1631019918953,-0.7881199999999999,0.594201,-0.103029
1631019918962,-0.786656,0.5921879999999999,-0.10248
1631019918972,-0.787571,0.593042,-0.099552
1631019918981,-0.788242,0.594689,-0.098576
1631019918991,-0.788913,0.593591,-0.097112
1631019919001,-0.788791,0.59414,-0.097173
1631019919010,-0.788303,0.595299,-0.097417
1631019919020,-0.788303,0.597007,-0.097722
1631019919029,-0.788364,0.5967629999999999,-0.097234
1631019919039,-0.7887299999999999,0.59719,-0.096624
1631019919049,-0.787144,0.59597,-0.097783
1631019919058,-0.787266,0.5958479999999999,-0.098698
1631019919068,-0.786412,0.5955429999999999,-0.098027
1631019919077,-0.785253,0.595055,-0.098942
1631019919087,-0.783972,0.594506,-0.099491
1631019919097,-0.784216,0.594262,-0.10022299999999999
1631019919106,-0.784399,0.594445,-0.10022299999999999
1631019919116,-0.784826,0.596336,-0.10144299999999999
1631019919125,-0.784277,0.595055,-0.10187
1631019919135,-0.785253,0.595665,-0.102358
1631019919145,-0.7853749999999999,0.595177,-0.101931
1631019919154,-0.786229,0.5952379999999999,-0.102907
1631019919164,-0.787083,0.595909,-0.10315099999999999
1631019919173,-0.7865949999999999,0.595116,-0.102419
1631019919183,-0.7865949999999999,0.595665,-0.10315099999999999
1631019919193,-0.786412,0.595604,-0.10248
1631019919202,-0.7859849999999999,0.595726,-0.10187
1631019919212,-0.786412,0.595116,-0.10113799999999999
1631019919221,-0.785436,0.59414,-0.100162
1631019919231,-0.786473,0.595482,-0.099979
1631019919241,-0.786168,0.595421,-0.100589
1631019919250,-0.786168,0.5940179999999999,-0.101199
1631019919260,-0.786473,0.593591,-0.101687
1631019919269,-0.7872049999999999,0.594201,-0.100589
1631019919279,-0.786961,0.594689,-0.099369
1631019919289,-0.787998,0.5949329999999999,-0.099308
1631019919298,-0.786961,0.594689,-0.09820999999999999
1631019919308,-0.786717,0.593347,-0.09851499999999999
1631019919317,-0.7856799999999999,0.593347,-0.098149
1631019919327,-0.7875099999999999,0.5927979999999999,-0.097966
1631019919337,-0.7875099999999999,0.592737,-0.099979
1631019919346,-0.787571,0.593286,-0.099491
1631019919356,-0.787022,0.592737,-0.098942
1631019919365,-0.7868999999999999,0.5906629999999999,-0.095709
1631019919375,-0.7865949999999999,0.59109,-0.09558699999999999
1631019919385,-0.7887299999999999,0.594262,-0.094794
1631019919394,-0.790011,0.5955429999999999,-0.095526
1631019919404,-0.7908649999999999,0.596214,-0.097722
1631019919413,-0.791109,0.596702,-0.099857
1631019919423,-0.791048,0.596885,-0.100589
1631019919433,-0.790682,0.595726,-0.099369
1631019919442,-0.7893399999999999,0.593957,-0.099247
1631019919452,-0.7884249999999999,0.5940179999999999,-0.098454
1631019919461,-0.788486,0.594262,-0.098881
1631019919471,-0.7887299999999999,0.59536,-0.097844
1631019919481,-0.786961,0.595421,-0.097722
1631019919490,-0.785253,0.595055,-0.097417
1631019919500,-0.7844599999999999,0.595055,-0.09851499999999999
1631019919509,-0.7838499999999999,0.594384,-0.098881
1631019919519,-0.783911,0.59475,-0.098576
1631019919529,-0.784399,0.592981,-0.098698
1631019919538,-0.785802,0.592981,-0.099369
1631019919548,-0.785497,0.5927979999999999,-0.099674
1631019919557,-0.785192,0.593835,-0.100284
1631019919567,-0.786778,0.594872,-0.10004
1631019919577,-0.787937,0.595726,-0.10065
1631019919586,-0.788486,0.5958479999999999,-0.10083299999999999
1631019919596,-0.786717,0.593286,-0.098027
1631019919605,-0.786107,0.5937129999999999,-0.096441
1631019919615,-0.786839,0.596092,-0.09638
1631019919625,-0.788303,0.596397,-0.095831
1631019919634,-0.787754,0.595482,-0.094184
1631019919644,-0.787693,0.595909,-0.095038
1631019919653,-0.7865949999999999,0.5967629999999999,-0.096929
1631019919663,-0.787022,0.596885,-0.09497699999999999
1631019919673,-0.787022,0.596702,-0.094306
1631019919682,-0.786046,0.596092,-0.09436699999999999
1631019919692,-0.784521,0.5949329999999999,-0.095343
1631019919701,-0.785009,0.594384,-0.09558699999999999
1631019919711,-0.786351,0.594994,-0.095465
1631019919721,-0.7856799999999999,0.5946279999999999,-0.097356
1631019919730,-0.785253,0.593835,-0.09790499999999999
1631019919740,-0.785924,0.5940179999999999,-0.097722
1631019919749,-0.785863,0.593835,-0.097539
1631019919759,-0.7862899999999999,0.595116,-0.09881999999999999
1631019919769,-0.786473,0.594567,-0.099064
1631019919778,-0.786961,0.594262,-0.099186
1631019919788,-0.786961,0.594506,-0.098759
1631019919797,-0.7865949999999999,0.595177,-0.098637
1631019919807,-0.787876,0.596519,-0.09881999999999999
1631019919817,-0.787327,0.596275,-0.098637
1631019919826,-0.787876,0.5955429999999999,-0.097539
1631019919836,-0.787388,0.596092,-0.095953
1631019919845,-0.788059,0.59597,-0.096014
1631019919855,-0.787571,0.5955429999999999,-0.09577
1631019919865,-0.7865949999999999,0.59414,-0.095526
1631019919874,-0.7868999999999999,0.593591,-0.095099
1631019919884,-0.7875099999999999,0.593896,-0.095953
1631019919893,-0.788608,0.5943229999999999,-0.097783
1631019919903,-0.788669,0.5940179999999999,-0.09820999999999999
1631019919913,-0.789401,0.593042,-0.098027
1631019919922,-0.788791,0.593835,-0.097966
1631019919932,-0.789523,0.592859,-0.097661
1631019919941,-0.788608,0.5921879999999999,-0.097234
1631019919951,-0.787998,0.591334,-0.096258
1631019919961,-0.7887299999999999,0.590785,-0.096319
1631019919970,-0.788913,0.590785,-0.096929
1631019919980,-0.790621,0.591334,-0.09851499999999999
1631019919989,-0.792573,0.59109,-0.097661
1631019919999,-0.792756,0.591456,-0.096258
1631019920009,-0.791719,0.5897479999999999,-0.094001
1631019920018,-0.792573,0.5912729999999999,-0.091927
1631019920028,-0.794098,0.593225,-0.08973099999999999
1631019920037,-0.79483,0.59475,-0.088938
1631019920047,-0.795745,0.596336,-0.091012
1631019920057,-0.79483,0.59841,-0.0915
1631019920066,-0.795989,0.59902,-0.092232
1631019920076,-0.79422,0.597434,-0.092415
1631019920085,-0.793732,0.595116,-0.092537
1631019920095,-0.791292,0.595055,-0.094001
1631019920105,-0.7896449999999999,0.594201,-0.095221
1631019920114,-0.788913,0.593896,-0.096441
1631019920124,-0.787022,0.593591,-0.097478
1631019920133,-0.785802,0.595116,-0.099064
1631019920143,-0.7841549999999999,0.594689,-0.099674
1631019920153,-0.783484,0.593774,-0.100162
1631019920162,-0.780983,0.593286,-0.100467
1631019920172,-0.779092,0.593835,-0.100589
1631019920181,-0.779946,0.594201,-0.100345
1631019920191,-0.7783599999999999,0.593286,-0.100406
1631019920201,-0.778604,0.594079,-0.100162
1631019920210,-0.779458,0.594384,-0.099613
1631019920220,-0.7801899999999999,0.595116,-0.100711
1631019920229,-0.780312,0.595604,-0.101382
1631019920239,-0.7801899999999999,0.593835,-0.10205299999999999
1631019920249,-0.7814099999999999,0.5943229999999999,-0.09851499999999999
1631019920258,-0.782142,0.59719,-0.098942
1631019920268,-0.7844599999999999,0.598166,-0.097722
1631019920277,-0.784704,0.597373,-0.097173
1631019920287,-0.785619,0.600179,-0.097051
1631019920297,-0.786778,0.602131,-0.09759999999999999
1631019920306,-0.787022,0.603412,-0.095465
1631019920316,-0.787632,0.603473,-0.095465
1631019920325,-0.786107,0.601643,-0.094245
1631019920335,-0.7856799999999999,0.600301,-0.094611
1631019920345,-0.785314,0.598593,-0.096319
1631019920354,-0.785131,0.59719,-0.095953
1631019920364,-0.7850699999999999,0.598715,-0.097234
1631019920373,-0.784948,0.599386,-0.099064
1631019920383,-0.784094,0.598776,-0.099064
1631019920393,-0.784582,0.599081,-0.098576
1631019920402,-0.783972,0.59902,-0.100406
1631019920412,-0.783911,0.598288,-0.100101
1631019920421,-0.783667,0.597373,-0.10065
1631019920431,-0.784521,0.597434,-0.100101
1631019920441,-0.7850699999999999,0.597617,-0.10022299999999999
1631019920450,-0.785802,0.5978,-0.101504
1631019920460,-0.784399,0.597312,-0.10083299999999999
1631019920469,-0.784094,0.596702,-0.100955
1631019920479,-0.783972,0.597495,-0.10004
1631019920489,-0.783301,0.598532,-0.099369
1631019920498,-0.7826299999999999,0.598288,-0.097966
1631019920508,-0.783972,0.59719,-0.097356
1631019920517,-0.783362,0.597678,-0.097356
1631019920527,-0.783179,0.598349,-0.09698999999999999
1631019920537,-0.7826299999999999,0.597495,-0.097112
1631019920546,-0.783362,0.596275,-0.096868
1631019920556,-0.783301,0.596214,-0.095709
1631019920565,-0.782569,0.596702,-0.095099
1631019920575,-0.782081,0.594872,-0.094733
1631019920585,-0.780983,0.5940179999999999,-0.094245
1631019920594,-0.782386,0.5949329999999999,-0.09455
1631019920604,-0.783789,0.594811,-0.095038
1631019920613,-0.784948,0.5955429999999999,-0.096258
1631019920623,-0.785558,0.5949329999999999,-0.09729499999999999
1631019920633,-0.786534,0.5931029999999999,-0.096502
1631019920642,-0.787083,0.592554,-0.095526
1631019920652,-0.788608,0.597373,-0.095099
1631019920661,-0.789828,0.598593,-0.093147
1631019920671,-0.791109,0.599142,-0.093147
1631019920681,-0.790438,0.600362,-0.094611
1631019920690,-0.790377,0.599996,-0.095831
1631019920700,-0.790621,0.598044,-0.09558699999999999
1631019920709,-0.790926,0.597129,-0.095709
1631019920719,-0.7905599999999999,0.596336,-0.096319
1631019920729,-0.7896449999999999,0.5949329999999999,-0.096258
1631019920738,-0.789096,0.594506,-0.096502
1631019920748,-0.7881199999999999,0.595116,-0.09729499999999999
1631019920757,-0.787754,0.595604,-0.099491
1631019920767,-0.7868999999999999,0.5955429999999999,-0.099796
1631019920777,-0.7865949999999999,0.594872,-0.100345
1631019920786,-0.787022,0.5958479999999999,-0.098881
1631019920796,-0.785863,0.595177,-0.099613
1631019920805,-0.784338,0.593652,-0.100345
1631019920815,-0.785192,0.591334,-0.100162
1631019920825,-0.785497,0.591761,-0.098942
1631019920834,-0.785863,0.591212,-0.098576
1631019920844,-0.7856799999999999,0.591334,-0.099308
1631019920853,-0.786778,0.59231,-0.098881
1631019920863,-0.787998,0.593652,-0.096746
1631019920873,-0.786839,0.5921879999999999,-0.096868
1631019920882,-0.787571,0.592859,-0.093879
1631019920892,-0.788791,0.59597,-0.093879
1631019920901,-0.788913,0.5958479999999999,-0.09235399999999999
1631019920911,-0.789096,0.5943229999999999,-0.09204899999999999
1631019920921,-0.787937,0.594079,-0.091927
1631019920930,-0.7875099999999999,0.596092,-0.093025
1631019920940,-0.789767,0.596336,-0.093574
1631019920949,-0.789401,0.596824,-0.092903
1631019920959,-0.7887299999999999,0.59597,-0.09394
1631019920969,-0.787083,0.59414,-0.094733
1631019920978,-0.787388,0.593225,-0.09436699999999999
1631019920988,-0.786656,0.593652,-0.095404
1631019920997,-0.787327,0.593896,-0.09577
1631019921007,-0.787022,0.59231,-0.09589199999999999
1631019921017,-0.787083,0.594201,-0.096685
1631019921026,-0.788364,0.5940179999999999,-0.09790499999999999
1631019921036,-0.787693,0.594384,-0.097173
1631019921045,-0.787571,0.593957,-0.09729499999999999
1631019921055,-0.7884249999999999,0.593652,-0.096624
1631019921065,-0.7893399999999999,0.593957,-0.096258
1631019921074,-0.789096,0.594079,-0.097112
1631019921084,-0.789523,0.593286,-0.096929
1631019921093,-0.790804,0.593957,-0.09851499999999999
1631019921103,-0.7908649999999999,0.594811,-0.097051
1631019921113,-0.791597,0.594201,-0.099247
1631019921122,-0.7914749999999999,0.594262,-0.097234
1631019921132,-0.790743,0.593469,-0.097112
1631019921141,-0.790072,0.593835,-0.097661
1631019921151,-0.788791,0.593469,-0.098393
1631019921161,-0.787998,0.593286,-0.097966
1631019921170,-0.788303,0.593774,-0.098027
1631019921180,-0.789462,0.593042,-0.098637
1631019921189,-0.788974,0.593286,-0.098271
1631019921199,-0.787876,0.593286,-0.09638
1631019921209,-0.788364,0.593347,-0.096441
1631019921218,-0.7868999999999999,0.59231,-0.097417
1631019921228,-0.787754,0.591761,-0.09729499999999999
1631019921237,-0.7887299999999999,0.592127,-0.09698999999999999
1631019921247,-0.788852,0.592737,-0.097966
1631019921257,-0.7872049999999999,0.5915779999999999,-0.096502
1631019921266,-0.786473,0.590297,-0.095099
1631019921276,-0.786656,0.5912729999999999,-0.09333
1631019921285,-0.789462,0.594201,-0.093391
1631019921295,-0.788913,0.593774,-0.093391
1631019921305,-0.790316,0.595604,-0.093452
1631019921314,-0.7908649999999999,0.598654,-0.094184
1631019921324,-0.789889,0.598471,-0.09558699999999999
1631019921333,-0.789279,0.594872,-0.095709
1631019921343,-0.7887299999999999,0.592676,-0.09558699999999999
1631019921353,-0.787937,0.5934079999999999,-0.095648
1631019921362,-0.787937,0.5931029999999999,-0.09638
1631019921372,-0.787693,0.5927979999999999,-0.097722
1631019921381,-0.7868999999999999,0.592554,-0.098576
1631019921391,-0.785619,0.593652,-0.099491
1631019921401,-0.7862899999999999,0.59353,-0.099369
1631019921410,-0.785924,0.59414,-0.099125
1631019921420,-0.7850699999999999,0.593225,-0.098454
1631019921429,-0.785131,0.592981,-0.099125
1631019921439,-0.785558,0.591517,-0.099613
1631019921449,-0.785558,0.591517,-0.098576
1631019921458,-0.786534,0.591944,-0.097966
1631019921468,-0.786351,0.591822,-0.098698
1631019921477,-0.786778,0.5918829999999999,-0.098454
1631019921487,-0.788547,0.593469,-0.097539
1631019921497,-0.7878149999999999,0.592371,-0.097722
1631019921506,-0.787937,0.592066,-0.09577
1631019921516,-0.789523,0.5931029999999999,-0.09558699999999999
1631019921525,-0.7905599999999999,0.594262,-0.095404
1631019921535,-0.791109,0.595604,-0.093818
1631019921545,-0.790682,0.595421,-0.094489
1631019921554,-0.791048,0.59536,-0.096441
1631019921564,-0.790133,0.59597,-0.09589199999999999
1631019921573,-0.790377,0.595421,-0.095404
1631019921583,-0.790072,0.595665,-0.094916
1631019921593,-0.7887299999999999,0.594262,-0.09516
1631019921602,-0.787876,0.594567,-0.095343
1631019921612,-0.788242,0.594872,-0.09497699999999999
1631019921621,-0.788059,0.59353,-0.09558699999999999
1631019921631,-0.7881199999999999,0.59353,-0.096868
1631019921641,-0.787693,0.594506,-0.097539
1631019921650,-0.787937,0.5961529999999999,-0.096868
1631019921660,-0.787754,0.5952379999999999,-0.095526
1631019921669,-0.7878149999999999,0.59475,-0.095648
1631019921679,-0.786473,0.59353,-0.094733
1631019921689,-0.787022,0.594201,-0.094611
1631019921698,-0.7878149999999999,0.593286,-0.093757
1631019921708,-0.787266,0.5943229999999999,-0.093391
1631019921717,-0.7875099999999999,0.593957,-0.09406199999999999
1631019921727,-0.787937,0.594079,-0.094245
1631019921737,-0.788303,0.59414,-0.095038
1631019921746,-0.787754,0.593957,-0.09467199999999999
1631019921756,-0.7878149999999999,0.593835,-0.095404
1631019921765,-0.7875099999999999,0.594262,-0.094306
1631019921775,-0.788608,0.594567,-0.092171
1631019921785,-0.788547,0.595482,-0.091683
1631019921794,-0.7875099999999999,0.5955429999999999,-0.091622
1631019921804,-0.786961,0.594201,-0.091195
1631019921813,-0.7868999999999999,0.5931029999999999,-0.09089
1631019921823,-0.7865949999999999,0.592432,-0.091378
1631019921833,-0.7859849999999999,0.592554,-0.091805
1631019921842,-0.786656,0.5921879999999999,-0.093513
1631019921852,-0.786534,0.592066,-0.094184
1631019921861,-0.787266,0.593652,-0.096014
1631019921871,-0.787632,0.594384,-0.096258
1631019921881,-0.787693,0.593652,-0.094794
1631019921890,-0.787632,0.592676,-0.09204899999999999
1631019921900,-0.787327,0.593774,-0.089914
1631019921909,-0.788486,0.5967629999999999,-0.089548
1631019921919,-0.789767,0.597373,-0.090768
1631019921929,-0.790804,0.598837,-0.094306
1631019921938,-0.791719,0.59841,-0.094916
1631019921948,-0.789828,0.597678,-0.095648
1631019921957,-0.7893399999999999,0.596275,-0.094184
1631019921967,-0.788852,0.5955429999999999,-0.093879
1631019921977,-0.789584,0.595665,-0.094184
1631019921986,-0.7890349999999999,0.597922,-0.093452
1631019921996,-0.7884249999999999,0.598715,-0.093086
1631019922005,-0.787388,0.599264,-0.091866
1631019922015,-0.7850699999999999,0.598044,-0.092537
1631019922025,-0.783362,0.597922,-0.091683
1631019922034,-0.782996,0.597739,-0.091195
1631019922044,-0.782691,0.596336,-0.090951
1631019922053,-0.782386,0.5955429999999999,-0.092842
1631019922063,-0.781898,0.595726,-0.09333
1631019922073,-0.782691,0.595909,-0.093086
1631019922082,-0.784704,0.596031,-0.093574
1631019922092,-0.785863,0.596641,-0.094611
1631019922101,-0.787022,0.597861,-0.09497699999999999
1631019922111,-0.785314,0.5943229999999999,-0.09211
1631019922121,-0.784643,0.5946279999999999,-0.090768
1631019922130,-0.785619,0.596702,-0.090707
1631019922140,-0.7859849999999999,0.59658,-0.088999
1631019922149,-0.786778,0.597373,-0.088084
1631019922159,-0.786534,0.59719,-0.08967
1631019922169,-0.786717,0.598776,-0.090768
1631019922178,-0.786656,0.598105,-0.091073
1631019922188,-0.786046,0.597617,-0.088328
1631019922197,-0.786168,0.5961529999999999,-0.088999
1631019922207,-0.785314,0.596336,-0.090524
1631019922217,-0.784582,0.5940179999999999,-0.09204899999999999
1631019922226,-0.7850699999999999,0.593774,-0.091927
1631019922236,-0.7862899999999999,0.593957,-0.09089
1631019922245,-0.787022,0.594445,-0.0915
1631019922255,-0.786473,0.5946279999999999,-0.09235399999999999
1631019922265,-0.787632,0.594811,-0.093513
1631019922274,-0.7878149999999999,0.594079,-0.094306
1631019922284,-0.788486,0.593286,-0.092903
1631019922293,-0.788242,0.592676,-0.094123
1631019922303,-0.7896449999999999,0.591822,-0.09406199999999999
1631019922313,-0.788913,0.591151,-0.09455
1631019922322,-0.790011,0.5917,-0.092537
1631019922332,-0.790194,0.591334,-0.092476
1631019922341,-0.790804,0.591761,-0.092415
1631019922351,-0.790926,0.592066,-0.09113399999999999
1631019922361,-0.790987,0.593164,-0.091195
1631019922370,-0.791414,0.5921879999999999,-0.092232
1631019922380,-0.791963,0.592615,-0.09235399999999999
1631019922389,-0.791963,0.591822,-0.091988
1631019922399,-0.7917799999999999,0.5918829999999999,-0.092537
1631019922409,-0.791963,0.5915779999999999,-0.092842
1631019922418,-0.792207,0.591517,-0.092537
1631019922428,-0.791719,0.592676,-0.0915
1631019922437,-0.791109,0.5924929999999999,-0.091256
1631019922447,-0.790194,0.590541,-0.091988
1631019922457,-0.7908649999999999,0.592066,-0.091561
1631019922466,-0.790072,0.592249,-0.091927
1631019922476,-0.789767,0.592554,-0.09204899999999999
1631019922485,-0.789279,0.592981,-0.090585
1631019922495,-0.787632,0.592066,-0.091378
1631019922505,-0.787083,0.590175,-0.089609
1631019922514,-0.786351,0.592066,-0.088389
1631019922524,-0.789096,0.594994,-0.086681
1631019922533,-0.790194,0.595177,-0.087291
1631019922543,-0.7899499999999999,0.595665,-0.089243
1631019922553,-0.789828,0.59719,-0.091256
1631019922562,-0.790682,0.5964579999999999,-0.092171
1631019922572,-0.790438,0.595299,-0.092476
1631019922581,-0.790926,0.594567,-0.092293
1631019922591,-0.789523,0.59292,-0.092842
1631019922601,-0.787998,0.5934079999999999,-0.093025
1631019922610,-0.787388,0.593286,-0.092781
1631019922620,-0.7865949999999999,0.593835,-0.092842
1631019922629,-0.786656,0.5937129999999999,-0.094184
1631019922639,-0.785802,0.595055,-0.093452
1631019922649,-0.785802,0.594567,-0.092842
1631019922658,-0.785802,0.593164,-0.091378
1631019922668,-0.7847649999999999,0.593469,-0.091866
1631019922677,-0.785558,0.592554,-0.093208
1631019922687,-0.7878149999999999,0.592615,-0.093147
1631019922697,-0.787876,0.593164,-0.093086
1631019922706,-0.788181,0.592554,-0.09272
1631019922716,-0.789218,0.593469,-0.093086
1631019922725,-0.789279,0.5931029999999999,-0.094001
1631019922735,-0.789157,0.59231,-0.092903
1631019922745,-0.788181,0.5927979999999999,-0.091012
1631019922754,-0.789828,0.593652,-0.09174399999999999
1631019922764,-0.790072,0.593225,-0.090646
1631019922773,-0.790438,0.593957,-0.090707
1631019922783,-0.790316,0.595055,-0.091378
1631019922793,-0.790804,0.595909,-0.093147
1631019922802,-0.789706,0.594994,-0.092476
1631019922812,-0.789584,0.594262,-0.092476
1631019922821,-0.789584,0.5937129999999999,-0.093208
1631019922831,-0.789218,0.59231,-0.094489
1631019922841,-0.788791,0.592737,-0.094916
1631019922850,-0.7881199999999999,0.593652,-0.09497699999999999
1631019922860,-0.787998,0.5940179999999999,-0.096258
1631019922869,-0.787876,0.5943229999999999,-0.096624
1631019922879,-0.7878149999999999,0.5949329999999999,-0.097417
1631019922889,-0.787449,0.5946279999999999,-0.097783
1631019922898,-0.787937,0.594567,-0.097417
1631019922908,-0.787571,0.5943229999999999,-0.099064
1631019922917,-0.786778,0.5937129999999999,-0.09820999999999999
1631019922927,-0.787144,0.592615,-0.098454
1631019922937,-0.787449,0.591639,-0.10004
1631019922946,-0.787937,0.5921879999999999,-0.100284
1631019922956,-0.788547,0.592066,-0.09991799999999999
1631019922965,-0.788242,0.593225,-0.100162
1631019922975,-0.788913,0.592249,-0.09881999999999999
1631019922985,-0.7881199999999999,0.592676,-0.098942
1631019922994,-0.7884249999999999,0.592554,-0.099125
1631019923004,-0.788364,0.591456,-0.097051
1631019923013,-0.789096,0.592981,-0.095038
1631019923023,-0.789462,0.592432,-0.09516
1631019923033,-0.788303,0.591944,-0.093147
1631019923042,-0.788608,0.591334,-0.09211
1631019923052,-0.788486,0.592432,-0.091195
1631019923061,-0.7887299999999999,0.5912729999999999,-0.09211
1631019923071,-0.7893399999999999,0.589809,-0.090951
1631019923081,-0.790804,0.5903579999999999,-0.09174399999999999
1631019923090,-0.790682,0.590846,-0.091317
1631019923100,-0.792451,0.591029,-0.09265899999999999
1631019923109,-0.791109,0.591334,-0.09235399999999999
1631019923119,-0.789828,0.59048,-0.090951
1631019923129,-0.791353,0.5912729999999999,-0.08942599999999999
1631019923138,-0.792451,0.5943229999999999,-0.087413
1631019923148,-0.793915,0.59475,-0.08784
1631019923157,-0.793244,0.594872,-0.088755
1631019923167,-0.793671,0.59536,-0.09204899999999999
1631019923177,-0.793305,0.5955429999999999,-0.093147
1631019923186,-0.793122,0.595055,-0.092842
1631019923196,-0.792146,0.593164,-0.09394
1631019923205,-0.792451,0.591822,-0.094428
1631019923215,-0.790621,0.5906629999999999,-0.095648
1631019923225,-0.788669,0.591212,-0.096685
1631019923234,-0.789157,0.591395,-0.098149
1631019923244,-0.788303,0.591517,-0.098576
1631019923253,-0.787327,0.591151,-0.09881999999999999
1631019923263,-0.786656,0.592005,-0.098454
1631019923273,-0.786656,0.592005,-0.097051
1631019923282,-0.786168,0.59048,-0.09577
1631019923292,-0.785497,0.5894429999999999,-0.097417
1631019923301,-0.786168,0.589504,-0.097783
1631019923311,-0.787754,0.589626,-0.097539
1631019923321,-0.788669,0.588955,-0.097417
1631019923330,-0.790072,0.5897479999999999,-0.097234
1631019923340,-0.790804,0.590907,-0.096746
1631019923349,-0.789706,0.590175,-0.09516
1631019923359,-0.789096,0.588162,-0.09333
1631019923369,-0.789401,0.590114,-0.09235399999999999
1631019923378,-0.790194,0.592371,-0.091988
1631019923388,-0.791841,0.5906629999999999,-0.090585
1631019923397,-0.791048,0.591334,-0.09028
1631019923407,-0.790621,0.591944,-0.090463
1631019923417,-0.789401,0.593347,-0.090707
1631019923426,-0.790743,0.593286,-0.09113399999999999
1631019923436,-0.790804,0.5937129999999999,-0.089914
1631019923445,-0.791292,0.59292,-0.08881599999999999
1631019923455,-0.790682,0.59292,-0.090951
1631019923465,-0.791292,0.5921879999999999,-0.0915
1631019923474,-0.792207,0.592127,-0.092415
1631019923484,-0.791536,0.591761,-0.093086
1631019923493,-0.790011,0.5909679999999999,-0.093757
1631019923503,-0.791048,0.591151,-0.095038
1631019923513,-0.791292,0.5915779999999999,-0.09577
1631019923522,-0.790926,0.5903579999999999,-0.096014
1631019923532,-0.791597,0.5906629999999999,-0.09577
1631019923541,-0.791231,0.590602,-0.096502
1631019923551,-0.7917799999999999,0.5924929999999999,-0.095648
1631019923561,-0.791658,0.592981,-0.095038
1631019923570,-0.791048,0.5924929999999999,-0.09516
1631019923580,-0.790621,0.592066,-0.094733
1631019923589,-0.790194,0.592676,-0.093696
1631019923599,-0.790316,0.592127,-0.094306
1631019923609,-0.790133,0.592066,-0.09516
1631019923618,-0.789462,0.590907,-0.095526
1631019923628,-0.7890349999999999,0.5900529999999999,-0.096685
1631019923637,-0.7887299999999999,0.589382,-0.098027
1631019923647,-0.789889,0.590236,-0.097722
1631019923657,-0.790804,0.590236,-0.09759999999999999
1631019923666,-0.790987,0.591334,-0.096868
1631019923676,-0.790438,0.5909679999999999,-0.09698999999999999
1631019923685,-0.789462,0.589931,-0.097051
1631019923695,-0.787998,0.589016,-0.096319
1631019923705,-0.7887299999999999,0.589992,-0.095526
1631019923714,-0.789584,0.589382,-0.09558699999999999
1631019923724,-0.790072,0.590114,-0.096685
1631019923733,-0.789218,0.58926,-0.095953
1631019923743,-0.788608,0.588284,-0.094123
1631019923753,-0.789828,0.590419,-0.093147
1631019923762,-0.790804,0.592005,-0.09174399999999999
1631019923772,-0.791048,0.592615,-0.091561
1631019923781,-0.7917799999999999,0.593652,-0.093574
1631019923791,-0.792268,0.595909,-0.095038
1631019923801,-0.79239,0.595055,-0.09589199999999999
1631019923810,-0.792512,0.593164,-0.096624
1631019923820,-0.790804,0.591517,-0.096563
1631019923829,-0.790682,0.590114,-0.09759999999999999
1631019923839,-0.790499,0.589992,-0.098393
1631019923849,-0.791231,0.5912729999999999,-0.098454
1631019923858,-0.791048,0.593042,-0.098637
1631019923868,-0.790621,0.592676,-0.099979
1631019923877,-0.788059,0.59353,-0.098881
1631019923887,-0.789157,0.593347,-0.096502
1631019923897,-0.787632,0.593591,-0.09528199999999999
1631019923906,-0.787449,0.59353,-0.09558699999999999
1631019923916,-0.786839,0.592676,-0.094489
1631019923925,-0.787754,0.592005,-0.093818
1631019923935,-0.786229,0.591517,-0.093208
1631019923945,-0.787388,0.591029,-0.092476
1631019923954,-0.788547,0.592005,-0.09406199999999999
1631019923964,-0.789401,0.593591,-0.095831
1631019923973,-0.788486,0.59231,-0.095526
1631019923983,-0.788059,0.591639,-0.094184
1631019923993,-0.7881199999999999,0.592981,-0.091256
1631019924002,-0.790194,0.59353,-0.09174399999999999
1631019924012,-0.788974,0.592981,-0.090768
1631019924021,-0.789218,0.5937129999999999,-0.090707
1631019924031,-0.788974,0.596702,-0.08973099999999999
1631019924041,-0.789157,0.597312,-0.090036
1631019924050,-0.789462,0.5961529999999999,-0.08973099999999999
1631019924060,-0.788364,0.5949329999999999,-0.089792
1631019924069,-0.788486,0.594201,-0.090341
1631019924079,-0.787449,0.5934079999999999,-0.091805
1631019924089,-0.787571,0.593286,-0.09235399999999999
1631019924098,-0.787754,0.593347,-0.093269
1631019924108,-0.787937,0.593042,-0.094733
1631019924117,-0.786412,0.5918829999999999,-0.09516
1631019924127,-0.7865949999999999,0.59231,-0.096746
1631019924137,-0.787571,0.592737,-0.097112
1631019924146,-0.788364,0.592859,-0.097356
1631019924156,-0.788974,0.5934079999999999,-0.097417
1631019924165,-0.7893399999999999,0.593896,-0.098027
1631019924175,-0.7905599999999999,0.593164,-0.097783
1631019924185,-0.789706,0.593652,-0.097722
1631019924194,-0.7896449999999999,0.5927979999999999,-0.098088
1631019924204,-0.790987,0.592066,-0.098454
1631019924213,-0.789706,0.5921879999999999,-0.097417
1631019924223,-0.788852,0.593042,-0.097173
1631019924233,-0.788669,0.591822,-0.097661
1631019924242,-0.788974,0.591517,-0.097539
1631019924252,-0.790438,0.591334,-0.098393
1631019924261,-0.7902549999999999,0.5912729999999999,-0.097173
1631019924271,-0.789767,0.592005,-0.096624
1631019924281,-0.789279,0.592127,-0.097051
1631019924290,-0.790316,0.592066,-0.09698999999999999
1631019924300,-0.7905599999999999,0.5909679999999999,-0.09698999999999999
1631019924309,-0.790011,0.590419,-0.096746
1631019924319,-0.7890349999999999,0.590419,-0.096136
1631019924329,-0.790072,0.590785,-0.096441
1631019924338,-0.789767,0.591761,-0.097417
1631019924348,-0.790194,0.5917,-0.097966
1631019924357,-0.7899499999999999,0.591334,-0.095953
1631019924367,-0.789096,0.589321,-0.092903
1631019924377,-0.7887299999999999,0.589565,-0.090463
1631019924386,-0.789889,0.592249,-0.090036
1631019924396,-0.790072,0.593347,-0.091256
1631019924405,-0.7914749999999999,0.594262,-0.092964
1631019924415,-0.792939,0.5961529999999999,-0.095404
1631019924425,-0.793183,0.595177,-0.097234
1631019924434,-0.792024,0.5940179999999999,-0.097051
1631019924444,-0.791292,0.5912729999999999,-0.096136
1631019924453,-0.7914749999999999,0.590785,-0.094733
1631019924463,-0.7905599999999999,0.591029,-0.094001
1631019924473,-0.789523,0.589992,-0.093757
1631019924482,-0.7884249999999999,0.590724,-0.093818
1631019924492,-0.7881199999999999,0.591761,-0.094916
1631019924501,-0.788486,0.591944,-0.095404
1631019924511,-0.788242,0.59109,-0.094916
1631019924521,-0.7884249999999999,0.591029,-0.095099
1631019924530,-0.787571,0.5906629999999999,-0.095221
1631019924540,-0.787998,0.591334,-0.09467199999999999
1631019924549,-0.788364,0.5921879999999999,-0.094916
1631019924559,-0.788364,0.5924929999999999,-0.09467199999999999
1631019924569,-0.788791,0.591517,-0.094489
1631019924578,-0.7902549999999999,0.593347,-0.094306
1631019924588,-0.791292,0.593225,-0.09497699999999999
1631019924597,-0.789828,0.5906629999999999,-0.094001
1631019924607,-0.7893399999999999,0.590175,-0.093086
1631019924617,-0.790804,0.592066,-0.0915
1631019924626,-0.7917799999999999,0.592859,-0.091073
1631019924636,-0.791109,0.5931029999999999,-0.091866
1631019924645,-0.791048,0.5943229999999999,-0.09211
1631019924655,-0.790377,0.596275,-0.09211
1631019924665,-0.790438,0.596336,-0.089975
1631019924674,-0.790438,0.597251,-0.089487
1631019924684,-0.7890349999999999,0.596275,-0.08906
1631019924693,-0.788181,0.594811,-0.090097
1631019924703,-0.787876,0.5946279999999999,-0.088694
1631019924713,-0.787632,0.5940179999999999,-0.08845
1631019924722,-0.7878149999999999,0.593774,-0.089609
1631019924732,-0.785924,0.593347,-0.091073
1631019924741,-0.786534,0.592859,-0.09211
1631019924751,-0.786656,0.594079,-0.092293
1631019924761,-0.786961,0.593896,-0.093208
1631019924770,-0.787449,0.594567,-0.09333
1631019924780,-0.787876,0.59475,-0.094855
1631019924789,-0.788486,0.5946279999999999,-0.094489
1631019924799,-0.787998,0.59536,-0.093452
1631019924809,-0.788547,0.5955429999999999,-0.092903
1631019924818,-0.7887299999999999,0.595116,-0.09211
1631019924828,-0.787632,0.5937129999999999,-0.092537
1631019924837,-0.787693,0.594384,-0.091561
1631019924847,-0.787998,0.594872,-0.091866
1631019924857,-0.787571,0.59414,-0.090524
1631019924866,-0.7881199999999999,0.594506,-0.09204899999999999
1631019924876,-0.787449,0.59414,-0.092598
1631019924885,-0.788364,0.5934079999999999,-0.092598
1631019924895,-0.788486,0.594506,-0.09204899999999999
1631019924905,-0.788974,0.593591,-0.091683
1631019924914,-0.789279,0.5934079999999999,-0.09272
1631019924924,-0.788669,0.59292,-0.09204899999999999
1631019924933,-0.788669,0.592432,-0.091195
1631019924943,-0.789279,0.5918829999999999,-0.09089
1631019924953,-0.787937,0.591822,-0.092415
1631019924962,-0.787754,0.590602,-0.09174399999999999
1631019924972,-0.788791,0.59109,-0.093574
1631019924981,-0.788486,0.591944,-0.093025
1631019924991,-0.789279,0.59109,-0.09174399999999999
1631019925001,-0.788974,0.588711,-0.090097
1631019925010,-0.787754,0.588406,-0.08906
1631019925020,-0.789401,0.591212,-0.08881599999999999
1631019925029,-0.7908649999999999,0.59231,-0.08851099999999999
1631019925039,-0.792817,0.594262,-0.090341
1631019925049,-0.793793,0.59536,-0.093635
1631019925058,-0.793732,0.593774,-0.095404
1631019925068,-0.793549,0.592737,-0.09516
1631019925077,-0.792634,0.591151,-0.093269
1631019925087,-0.791597,0.592005,-0.09333
1631019925097,-0.789584,0.591029,-0.09406199999999999
1631019925106,-0.789401,0.5906629999999999,-0.093818
1631019925116,-0.789157,0.591639,-0.093574
1631019925125,-0.788852,0.591395,-0.094611
1631019925135,-0.788547,0.591334,-0.09436699999999999
1631019925145,-0.788059,0.59109,-0.094001
1631019925154,-0.788181,0.590785,-0.095099
1631019925164,-0.7887299999999999,0.591334,-0.095099
1631019925173,-0.7899499999999999,0.5912729999999999,-0.094428
1631019925183,-0.790438,0.591395,-0.094916
1631019925193,-0.7902549999999999,0.592615,-0.093879
1631019925202,-0.7908649999999999,0.592859,-0.093513
1631019925212,-0.791719,0.59231,-0.092537
1631019925221,-0.791536,0.592371,-0.091683
1631019925231,-0.789706,0.5912729999999999,-0.09028
1631019925241,-0.789584,0.590907,-0.088633
1631019925250,-0.790011,0.59353,-0.087413
1631019925260,-0.790438,0.5937129999999999,-0.085705
1631019925269,-0.7908649999999999,0.5937129999999999,-0.0854
1631019925279,-0.790072,0.594445,-0.086376
1631019925289,-0.790438,0.595177,-0.08680299999999999
1631019925298,-0.790133,0.5964579999999999,-0.087474
1631019925308,-0.790926,0.595726,-0.08649799999999999
1631019925317,-0.791353,0.594811,-0.085949
1631019925327,-0.790194,0.594201,-0.087047
1631019925337,-0.788486,0.592615,-0.088938
1631019925346,-0.7884249999999999,0.591151,-0.087047
1631019925356,-0.788486,0.5924929999999999,-0.087962
1631019925365,-0.7896449999999999,0.593347,-0.089365
1631019925375,-0.788547,0.593164,-0.090219
1631019925385,-0.787937,0.5934079999999999,-0.09028
1631019925394,-0.787632,0.592554,-0.090097
1631019925404,-0.788181,0.592615,-0.089914
1631019925413,-0.788791,0.59231,-0.090768
1631019925423,-0.788852,0.592127,-0.091378
1631019925433,-0.790438,0.592066,-0.09204899999999999
1631019925442,-0.790194,0.592127,-0.09211
1631019925452,-0.790621,0.592432,-0.09406199999999999
1631019925461,-0.7908649999999999,0.5924929999999999,-0.093391
1631019925471,-0.790621,0.592371,-0.09174399999999999
1631019925481,-0.791292,0.59292,-0.092171
1631019925490,-0.790926,0.593286,-0.093025
1631019925500,-0.790621,0.592981,-0.09272
1631019925509,-0.790133,0.592371,-0.091927
1631019925519,-0.790682,0.5918829999999999,-0.091378
1631019925529,-0.789401,0.5915779999999999,-0.091012
1631019925538,-0.789889,0.591944,-0.092232
1631019925548,-0.789279,0.5912729999999999,-0.093086
1631019925557,-0.789584,0.5915779999999999,-0.092781
1631019925567,-0.789218,0.591151,-0.091561
1631019925577,-0.789401,0.589992,-0.091988
1631019925586,-0.789157,0.588467,-0.093086
1631019925596,-0.790194,0.5888329999999999,-0.094428
1631019925605,-0.792634,0.590419,-0.094123
1631019925615,-0.7911699999999999,0.591456,-0.094794
1631019925625,-0.790499,0.592615,-0.095709
1631019925634,-0.790682,0.59109,-0.09406199999999999
1631019925644,-0.7896449999999999,0.5897479999999999,-0.09204899999999999
1631019925653,-0.790499,0.591944,-0.089914
1631019925663,-0.790926,0.593652,-0.088084
1631019925673,-0.7911699999999999,0.593835,-0.08973099999999999
1631019925682,-0.790926,0.5946279999999999,-0.09204899999999999
1631019925692,-0.791109,0.5958479999999999,-0.09406199999999999
1631019925701,-0.791841,0.59536,-0.094001
1631019925711,-0.7911699999999999,0.593896,-0.093818
1631019925721,-0.789462,0.5924929999999999,-0.09394
1631019925730,-0.788364,0.591334,-0.09497699999999999
1631019925740,-0.788852,0.5917,-0.09467199999999999
1631019925749,-0.7881199999999999,0.591639,-0.093818
1631019925759,-0.788547,0.592676,-0.095953
1631019925769,-0.787998,0.593896,-0.096258
1631019925778,-0.787388,0.5934079999999999,-0.09589199999999999
1631019925788,-0.787754,0.593164,-0.096258
1631019925797,-0.786839,0.59292,-0.096319
1631019925807,-0.784643,0.59231,-0.09497699999999999
1631019925817,-0.785558,0.591212,-0.093574
1631019925826,-0.786717,0.590785,-0.092964
1631019925836,-0.785741,0.58987,-0.091927
1631019925845,-0.786412,0.5906629999999999,-0.092232
1631019925855,-0.788608,0.5924929999999999,-0.090829
1631019925865,-0.790133,0.593896,-0.09143899999999999
1631019925874,-0.790499,0.593225,-0.090768
1631019925884,-0.789096,0.593164,-0.08845
1631019925893,-0.790194,0.5946279999999999,-0.08851099999999999
1631019925903,-0.791658,0.594994,-0.08619299999999999
1631019925913,-0.790621,0.595116,-0.085339
1631019925922,-0.790133,0.5943229999999999,-0.085522
1631019925932,-0.790011,0.594262,-0.086986
1631019925941,-0.790499,0.595055,-0.086986
1631019925951,-0.7914749999999999,0.595604,-0.087718
1631019925961,-0.792146,0.595055,-0.088633
1631019925970,-0.790926,0.593347,-0.088023
1631019925980,-0.789157,0.592554,-0.088694
1631019925989,-0.789279,0.591944,-0.088633
1631019925999,-0.7890349999999999,0.591456,-0.08906
1631019926009,-0.788974,0.59231,-0.089609
1631019926018,-0.789218,0.59231,-0.09143899999999999
1631019926028,-0.789828,0.592676,-0.0915
1631019926037,-0.7896449999999999,0.593042,-0.091378
1631019926047,-0.7887299999999999,0.592554,-0.091073
1631019926057,-0.7899499999999999,0.592127,-0.092598
1631019926066,-0.7893399999999999,0.5912729999999999,-0.091805
1631019926076,-0.789828,0.592554,-0.091012
1631019926085,-0.7905599999999999,0.5921879999999999,-0.091622
1631019926095,-0.790194,0.592432,-0.091805
1631019926105,-0.789828,0.59231,-0.09113399999999999
1631019926114,-0.790194,0.5917,-0.090829
1631019926124,-0.790316,0.58987,-0.09089
1631019926133,-0.790316,0.589016,-0.09028
1631019926143,-0.790926,0.5891379999999999,-0.091073
1631019926153,-0.790987,0.5909679999999999,-0.090402
1631019926162,-0.792024,0.592127,-0.089609
1631019926172,-0.792695,0.59109,-0.090036
1631019926181,-0.7917799999999999,0.58987,-0.08973099999999999
1631019926191,-0.792451,0.58987,-0.08967
1631019926201,-0.7917799999999999,0.5917,-0.088145
1631019926210,-0.790987,0.59109,-0.088084
1631019926220,-0.790621,0.5909679999999999,-0.089365
1631019926229,-0.7899499999999999,0.590785,-0.088023
1631019926239,-0.790194,0.590114,-0.088755
1631019926249,-0.789828,0.589992,-0.08912099999999999
1631019926258,-0.791597,0.590236,-0.090951
1631019926268,-0.791658,0.589016,-0.093879
1631019926277,-0.790682,0.586759,-0.09467199999999999
1631019926287,-0.790926,0.585051,-0.09497699999999999
1631019926297,-0.791902,0.586759,-0.095709
1631019926306,-0.793,0.589565,-0.094794
1631019926316,-0.794037,0.5903579999999999,-0.094855
1631019926325,-0.794098,0.591212,-0.096624
1631019926335,-0.794037,0.592615,-0.09943
1631019926345,-0.793793,0.59231,-0.098271
1631019926354,-0.794281,0.590907,-0.095526
1631019926364,-0.793244,0.5894429999999999,-0.09528199999999999
1631019926373,-0.793183,0.589382,-0.09528199999999999
1631019926383,-0.791963,0.589931,-0.093818
1631019926393,-0.791597,0.5906629999999999,-0.093635
1631019926402,-0.7902549999999999,0.5915779999999999,-0.093513
1631019926412,-0.789828,0.5915779999999999,-0.095648
1631019926421,-0.789401,0.591944,-0.094855
1631019926431,-0.789401,0.5912729999999999,-0.094184
1631019926441,-0.789279,0.590846,-0.09406199999999999
1631019926450,-0.788059,0.591761,-0.09516
1631019926460,-0.787998,0.592005,-0.094245
1631019926469,-0.788486,0.591151,-0.09333
1631019926479,-0.788608,0.591029,-0.09455
1631019926489,-0.788913,0.591944,-0.09265899999999999
1631019926498,-0.7890349999999999,0.593347,-0.092598
1631019926508,-0.7893399999999999,0.593774,-0.093391
1631019926517,-0.788303,0.593896,-0.092598
1631019926527,-0.7862899999999999,0.5934079999999999,-0.092903
1631019926537,-0.7875099999999999,0.593957,-0.091378
1631019926546,-0.787632,0.596092,-0.09174399999999999
1631019926556,-0.787022,0.595726,-0.091622
1631019926565,-0.7868999999999999,0.593164,-0.092537
1631019926575,-0.785802,0.593957,-0.094001
1631019926585,-0.785436,0.594872,-0.09516
1631019926594,-0.787144,0.596092,-0.094855
1631019926604,-0.7859849999999999,0.595421,-0.095953
1631019926613,-0.786412,0.595116,-0.094733
1631019926623,-0.787083,0.595116,-0.096014
1631019926633,-0.787144,0.594201,-0.09759999999999999
1631019926642,-0.7872049999999999,0.59414,-0.09790499999999999
1631019926652,-0.787937,0.593652,-0.097051
1631019926661,-0.787998,0.593652,-0.097539
1631019926671,-0.787144,0.5934079999999999,-0.097844
1631019926681,-0.7878149999999999,0.59231,-0.09759999999999999
1631019926690,-0.788364,0.593652,-0.09589199999999999
1631019926700,-0.789218,0.592981,-0.096014
1631019926709,-0.790743,0.59353,-0.096197
1631019926719,-0.790743,0.5937129999999999,-0.094916
1631019926729,-0.791963,0.5940179999999999,-0.093696
1631019926738,-0.791902,0.594079,-0.093818
1631019926748,-0.791841,0.59353,-0.093696
1631019926757,-0.791292,0.59292,-0.09333
