timestamp,ax,ay,az
1631018753893,-0.22027587890625,0.10205078125,0.9598388671875
1631018753893,-0.2147216796875,0.106201171875,0.96990966796875
1631018753893,-0.2177734375,0.105224609375,0.96551513671875
1631018753971,-0.2088623046875,0.119384765625,0.96160888671875
1631018753971,-0.21148681640625,0.1119384765625,0.96429443359375
1631018753971,-0.20849609375,0.1114501953125,0.9691162109375
1631018753987,-0.2047119140625,0.12811279296875,0.9599609375
1631018753987,-0.204345703125,0.1322021484375,0.95953369140625
1631018753987,-0.203857421875,0.1368408203125,0.95928955078125
1631018754081,-0.20111083984375,0.14044189453125,0.96044921875
1631018754081,-0.2052001953125,0.13934326171875,0.96026611328125
1631018754081,-0.19775390625,0.1376953125,0.959716796875
1631018754096,-0.2001953125,0.1258544921875,0.97125244140625
1631018754112,-0.20001220703125,0.1041259765625,0.9805908203125
1631018754112,-0.20269775390625,0.112548828125,0.98187255859375
1631018754175,-0.2100830078125,0.091552734375,0.981689453125
1631018754175,-0.2147216796875,0.08807373046875,0.97698974609375
1631018754206,-0.218017578125,0.091796875,0.96539306640625
1631018754206,-0.220458984375,0.08795166015625,0.9725341796875
1631018754206,-0.21539306640625,0.10089111328125,0.96221923828125
1631018754315,-0.2135009765625,0.112060546875,0.96466064453125
1631018754315,-0.21197509765625,0.12188720703125,0.95977783203125
1631018754315,-0.2132568359375,0.12762451171875,0.95953369140625
1631018754346,-0.20977783203125,0.12615966796875,0.9639892578125
1631018754346,-0.208740234375,0.1285400390625,0.9632568359375
1631018754346,-0.20635986328125,0.1201171875,0.97137451171875
1631018754411,-0.201904296875,0.09002685546875,0.9739990234375
1631018754411,-0.2060546875,0.1072998046875,0.97052001953125
1631018754411,-0.20611572265625,0.097900390625,0.97381591796875
1631018754458,-0.20654296875,0.0838623046875,0.97833251953125
1631018754458,-0.2020263671875,0.0794677734375,0.9830322265625
1631018754458,-0.20379638671875,0.07623291015625,0.9769287109375
1631018754551,-0.20623779296875,0.07666015625,0.9771728515625
1631018754551,-0.20404052734375,0.0804443359375,0.97900390625
1631018754551,-0.2064208984375,0.08709716796875,0.9832763671875
1631018754614,-0.211181640625,0.09844970703125,0.97210693359375
1631018754614,-0.20611572265625,0.0975341796875,0.97174072265625
1631018754614,-0.2066650390625,0.09381103515625,0.97900390625
1631018754661,-0.21600341796875,0.101318359375,0.9744873046875
1631018754661,-0.21990966796875,0.10089111328125,0.97259521484375
1631018754661,-0.21441650390625,0.1026611328125,0.98040771484375
1631018754724,-0.2244873046875,0.09625244140625,0.9696044921875
1631018754724,-0.23260498046875,0.09625244140625,0.961181640625
1631018754724,-0.22796630859375,0.1036376953125,0.97576904296875
1631018754770,-0.23822021484375,0.09588623046875,0.9505615234375
1631018754770,-0.242431640625,0.092529296875,0.947998046875
1631018754770,-0.24859619140625,0.09429931640625,0.9498291015625
1631018754817,-0.25518798828125,0.09234619140625,0.94158935546875
1631018754817,-0.2581787109375,0.09478759765625,0.93902587890625
1631018754817,-0.26763916015625,0.0970458984375,0.9420166015625
1631018754895,-0.2852783203125,0.0975341796875,0.9337158203125
1631018754895,-0.2716064453125,0.0975341796875,0.93505859375
1631018754895,-0.29656982421875,0.0972900390625,0.93206787109375
1631018754958,-0.31103515625,0.08770751953125,0.9251708984375
1631018754958,-0.31842041015625,0.08935546875,0.91424560546875
1631018754958,-0.30224609375,0.0950927734375,0.9239501953125
1631018755004,-0.3233642578125,0.0838623046875,0.91552734375
1631018755004,-0.32452392578125,0.09124755859375,0.91766357421875
1631018755004,-0.32525634765625,0.08612060546875,0.9239501953125
1631018755067,-0.3604736328125,0.0340576171875,0.9442138671875
1631018755067,-0.30767822265625,0.09869384765625,0.9517822265625
1631018755067,-0.3258056640625,0.09063720703125,0.9300537109375
1631018755114,-0.2896728515625,0.0986328125,0.971435546875
1631018755114,-0.2396240234375,0.09051513671875,1.065673828125
1631018755114,-0.272705078125,0.08721923828125,1.01983642578125
1631018755176,-0.22296142578125,0.10400390625,1.11181640625
1631018755176,-0.2196044921875,0.12237548828125,1.1082763671875
1631018755176,-0.2275390625,0.13818359375,1.07513427734375
1631018755239,-0.25396728515625,0.16607666015625,0.9649658203125
1631018755239,-0.26019287109375,0.17120361328125,0.92547607421875
1631018755332,-0.273193359375,0.16571044921875,0.896728515625
1631018755332,-0.262451171875,0.17242431640625,0.90521240234375
1631018755332,-0.2769775390625,0.15325927734375,0.88433837890625
1631018755348,-0.2784423828125,0.1488037109375,0.87213134765625
1631018755348,-0.25927734375,0.13134765625,0.86578369140625
1631018755348,-0.26422119140625,0.1395263671875,0.8526611328125
1631018755444,-0.2481689453125,0.1068115234375,0.85565185546875
1631018755444,-0.22357177734375,0.0703125,0.86285400390625
1631018755444,-0.23876953125,0.08642578125,0.84661865234375
1631018755522,-0.1851806640625,0.05926513671875,0.960693359375
1631018755522,-0.20452880859375,0.0556640625,0.92864990234375
1631018755522,-0.2177734375,0.05865478515625,0.89501953125
1631018755538,-0.12738037109375,0.02154541015625,1.04461669921875
1631018755538,-0.13897705078125,0.049072265625,1.01812744140625
1631018755538,-0.15728759765625,0.05560302734375,0.99267578125
1631018755600,-0.11846923828125,0.017578125,1.05133056640625
1631018755600,-0.11572265625,0.01959228515625,1.08349609375
1631018755600,-0.1165771484375,0.0146484375,1.06878662109375
1631018755662,-0.11669921875,0.02117919921875,1.08489990234375
1631018755662,-0.13641357421875,0.024658203125,1.016845703125
1631018755662,-0.1181640625,0.0211181640625,1.0489501953125
1631018755741,-0.1473388671875,0.0303955078125,1.000732421875
1631018755756,-0.15447998046875,0.02691650390625,0.99676513671875
1631018755756,-0.16180419921875,0.01971435546875,0.989501953125
1631018755772,-0.1685791015625,0.0081787109375,0.977783203125
1631018755772,-0.17254638671875,-0.001220703125,0.966064453125
1631018755772,-0.1783447265625,-0.00750732421875,0.96307373046875
1631018755881,-0.17950439453125,-0.00372314453125,0.97686767578125
1631018755881,-0.17822265625,-0.00250244140625,0.97149658203125
1631018755881,-0.17999267578125,-0.003662109375,0.97998046875
1631018755897,-0.182861328125,0.01300048828125,0.98028564453125
1631018755897,-0.1778564453125,0.0203857421875,0.98419189453125
1631018755897,-0.17767333984375,0.02862548828125,0.99908447265625
1631018755959,-0.174560546875,0.031005859375,1.017822265625
1631018755975,-0.177490234375,0.0333251953125,1.02099609375
1631018755975,-0.1798095703125,0.02685546875,1.014404296875
1631018756022,-0.1807861328125,0.03082275390625,1.0045166015625
1631018756022,-0.19720458984375,0.0460205078125,0.99261474609375
1631018756022,-0.18927001953125,0.04052734375,0.9996337890625
1631018756069,-0.21234130859375,0.0517578125,0.98046875
1631018756069,-0.2237548828125,0.0545654296875,0.97509765625
1631018756147,-0.24755859375,0.06915283203125,0.94989013671875
1631018756147,-0.22540283203125,0.06195068359375,0.960205078125
1631018756147,-0.24078369140625,0.067138671875,0.9586181640625
1631018756209,-0.266845703125,0.050537109375,0.94305419921875
1631018756209,-0.25079345703125,0.06085205078125,0.9434814453125
1631018756209,-0.25958251953125,0.05572509765625,0.946044921875
1631018756256,-0.27923583984375,0.04010009765625,0.9366455078125
1631018756256,-0.2822265625,0.0325927734375,0.93280029296875
1631018756256,-0.28546142578125,0.0247802734375,0.933349609375
1631018756319,-0.3072509765625,0.00335693359375,0.938720703125
1631018756319,-0.29742431640625,0.0047607421875,0.94110107421875
1631018756319,-0.288818359375,0.011474609375,0.93402099609375
1631018756365,-0.31011962890625,0.00433349609375,0.93292236328125
1631018756365,-0.3116455078125,0.00360107421875,0.9283447265625
1631018756365,-0.3135986328125,0.0130615234375,0.9305419921875
1631018756428,-0.31011962890625,0.055908203125,0.9273681640625
1631018756428,-0.308837890625,0.04498291015625,0.93438720703125
1631018756475,-0.3021240234375,0.02850341796875,0.938232421875
1631018756475,-0.305419921875,0.0423583984375,0.925048828125
1631018756475,-0.3123779296875,0.05645751953125,0.9195556640625
1631018756553,-0.29339599609375,-0.00933837890625,0.9508056640625
1631018756553,-0.30126953125,0.0169677734375,0.94805908203125
1631018756553,-0.2955322265625,0.0009765625,0.954833984375
1631018756600,-0.30126953125,-0.02813720703125,0.95831298828125
1631018756600,-0.292724609375,-0.0206298828125,0.95074462890625
1631018756600,-0.29443359375,-0.0299072265625,0.95294189453125
1631018756666,-0.3028564453125,-0.01495361328125,0.95867919921875
1631018756666,-0.30078125,-0.0074462890625,0.94207763671875
1631018756666,-0.29931640625,-0.01904296875,0.95947265625
1631018756713,-0.2974853515625,0.00927734375,0.92791748046875
1631018756713,-0.29815673828125,-0.0006103515625,0.932861328125
1631018756729,-0.2967529296875,0.01849365234375,0.9322509765625
1631018756760,-0.29107666015625,0.01947021484375,0.9359130859375
1631018756760,-0.28839111328125,0.02606201171875,0.939208984375
1631018756760,-0.2857666015625,0.02398681640625,0.94256591796875
1631018756916,-0.27044677734375,0.0220947265625,0.9554443359375
1631018756916,-0.2760009765625,0.02459716796875,0.95166015625
1631018756916,-0.2830810546875,0.025390625,0.9483642578125
1631018756932,-0.26458740234375,0.01898193359375,0.964599609375
1631018756932,-0.2579345703125,0.01373291015625,0.962646484375
1631018756932,-0.25848388671875,0.01336669921875,0.96392822265625
1631018756947,-0.25689697265625,0.016845703125,0.968505859375
1631018756947,-0.249267578125,0.01690673828125,0.968994140625
1631018756947,-0.2518310546875,0.01519775390625,0.968017578125
1631018757010,-0.250732421875,0.0145263671875,0.96630859375
1631018757010,-0.2523193359375,0.0106201171875,0.96612548828125
1631018757010,-0.25115966796875,0.01373291015625,0.9619140625
1631018757088,-0.25872802734375,0.00726318359375,0.95501708984375
1631018757088,-0.25506591796875,0.0087890625,0.94915771484375
1631018757119,-0.25140380859375,0.00830078125,0.958984375
1631018757135,-0.250732421875,0.00677490234375,0.9644775390625
1631018757135,-0.2508544921875,0.0069580078125,0.959228515625
1631018757213,-0.24713134765625,0.00848388671875,0.96600341796875
1631018757213,-0.24993896484375,0.00665283203125,0.97113037109375
1631018757213,-0.24847412109375,0.0078125,0.9664306640625
1631018757307,-0.2498779296875,0.00347900390625,0.969482421875
1631018757307,-0.25311279296875,0.01092529296875,0.97259521484375
1631018757307,-0.2501220703125,0.00872802734375,0.97637939453125
1631018757338,-0.2547607421875,0.01617431640625,0.96319580078125
1631018757338,-0.25299072265625,0.0146484375,0.96722412109375
1631018757338,-0.25286865234375,0.01287841796875,0.96942138671875
1631018757369,-0.26153564453125,0.02001953125,0.96002197265625
1631018757369,-0.2608642578125,0.02215576171875,0.9564208984375
1631018757369,-0.2564697265625,0.01763916015625,0.9656982421875
1631018757432,-0.26458740234375,0.0263671875,0.953125
1631018757432,-0.26409912109375,0.02471923828125,0.954345703125
1631018757432,-0.267822265625,0.02606201171875,0.95550537109375
1631018757463,-0.2681884765625,0.0245361328125,0.95574951171875
1631018757463,-0.26885986328125,0.01580810546875,0.95733642578125
1631018757463,-0.26861572265625,0.02374267578125,0.956787109375
1631018757541,-0.26806640625,0.0126953125,0.95306396484375
1631018757556,-0.267333984375,0.01300048828125,0.95330810546875
1631018757556,-0.2647705078125,0.01409912109375,0.9521484375
1631018757603,-0.2667236328125,0.01239013671875,0.95166015625
1631018757603,-0.2733154296875,0.01080322265625,0.94976806640625
1631018757603,-0.27069091796875,0.0115966796875,0.94696044921875
1631018757653,-0.269287109375,0.00726318359375,0.95489501953125
1631018757653,-0.27099609375,0.00701904296875,0.9508056640625
1631018757668,-0.268798828125,0.00482177734375,0.95306396484375
1631018757700,-0.2662353515625,0.008056640625,0.94769287109375
1631018757700,-0.26422119140625,0.00689697265625,0.95452880859375
1631018757715,-0.26470947265625,0.007080078125,0.959716796875
1631018757793,-0.2625732421875,-0.0001220703125,0.95477294921875
1631018757793,-0.25885009765625,0.001220703125,0.961669921875
1631018757793,-0.26312255859375,0.006591796875,0.966796875
1631018757856,-0.25726318359375,0.0057373046875,0.95733642578125
1631018757856,-0.25811767578125,0.0042724609375,0.96258544921875
1631018757856,-0.26007080078125,0.00384521484375,0.949462890625
1631018757903,-0.25836181640625,0.00274658203125,0.96429443359375
1631018757903,-0.25482177734375,0.00531005859375,0.962890625
1631018757903,-0.25396728515625,0.0032958984375,0.96295166015625
1631018757996,-0.25445556640625,0.0045166015625,0.9630126953125
1631018757996,-0.2520751953125,0.00372314453125,0.9666748046875
1631018758028,-0.258544921875,0.003662109375,0.964111328125
1631018758028,-0.25335693359375,0.00604248046875,0.96142578125
1631018758043,-0.25958251953125,0.002197265625,0.96368408203125
1631018758075,-0.2598876953125,0.00762939453125,0.96063232421875
1631018758075,-0.256591796875,0.00604248046875,0.958251953125
1631018758075,-0.2603759765625,0.0020751953125,0.958984375
1631018758106,-0.25787353515625,0.01275634765625,0.95672607421875
1631018758106,-0.25836181640625,0.01287841796875,0.9598388671875
1631018758106,-0.259033203125,0.01165771484375,0.958251953125
1631018758215,-0.2574462890625,0.0096435546875,0.96868896484375
1631018758215,-0.2540283203125,0.0111083984375,0.96405029296875
1631018758215,-0.25799560546875,0.0089111328125,0.9635009765625
1631018758246,-0.25775146484375,0.01318359375,0.96136474609375
1631018758246,-0.2608642578125,0.00982666015625,0.95562744140625
1631018758246,-0.25946044921875,0.01129150390625,0.9681396484375
1631018758293,-0.263671875,0.00848388671875,0.94952392578125
1631018758293,-0.25982666015625,0.01019287109375,0.957763671875
1631018758293,-0.262939453125,0.00970458984375,0.9539794921875
1631018758356,-0.260986328125,0.00537109375,0.9603271484375
1631018758356,-0.2618408203125,0.00738525390625,0.959228515625
1631018758356,-0.26373291015625,0.009521484375,0.958984375
1631018758449,-0.2607421875,0.005126953125,0.95306396484375
1631018758449,-0.274169921875,-0.01568603515625,0.9456787109375
1631018758449,-0.26202392578125,0.00677490234375,0.9559326171875
1631018758496,-0.2581787109375,0.00347900390625,0.95391845703125
1631018758496,-0.25616455078125,0.0054931640625,0.956298828125
1631018758528,-0.25921630859375,0.0048828125,0.9569091796875
1631018758528,-0.2586669921875,0.00811767578125,0.95721435546875
1631018758590,-0.25897216796875,6.103515625e-05,0.9471435546875
1631018758590,-0.25860595703125,0.00067138671875,0.94073486328125
1631018758590,-0.2625732421875,0.00244140625,0.95501708984375
1631018758686,-0.25762939453125,0.00958251953125,0.93292236328125
1631018758686,-0.2535400390625,0.00469970703125,0.92816162109375
1631018758686,-0.25048828125,0.000732421875,0.94403076171875
1631018758733,-0.237060546875,0.00555419921875,0.9832763671875
1631018758733,-0.2489013671875,-0.00433349609375,0.96685791015625
1631018758733,-0.2437744140625,0.0042724609375,0.98138427734375
1631018758780,-0.23193359375,0.00579833984375,0.97161865234375
1631018758780,-0.21826171875,0.00018310546875,0.93756103515625
1631018758780,-0.2255859375,0.0045166015625,0.9593505859375
1631018758842,-0.22491455078125,0.00335693359375,0.89892578125
1631018758842,-0.22509765625,-0.00689697265625,0.91265869140625
1631018758842,-0.22369384765625,-0.0111083984375,0.926513671875
1631018758889,-0.21636962890625,0.01336669921875,0.90545654296875
1631018758889,-0.2144775390625,0.01513671875,0.90338134765625
1631018758889,-0.20843505859375,-0.0010986328125,0.91912841796875
1631018758967,-0.1485595703125,0.03460693359375,0.993896484375
1631018758967,-0.185791015625,0.0203857421875,0.9251708984375
1631018758967,-0.1693115234375,0.0277099609375,0.93389892578125
1631018759014,-0.0823974609375,0.05133056640625,1.1593017578125
1631018759014,-0.13397216796875,0.03863525390625,1.07354736328125
1631018759014,-0.10101318359375,0.04815673828125,1.14599609375
1631018759077,-0.071044921875,0.05621337890625,1.23199462890625
1631018759077,-0.03790283203125,0.05523681640625,1.28094482421875
1631018759077,-0.047607421875,0.06280517578125,1.3564453125
1631018759155,-0.03765869140625,0.0560302734375,1.17572021484375
1631018759155,-0.09423828125,0.04083251953125,0.997802734375
1631018759155,-0.063232421875,0.05224609375,1.1060791015625
1631018759201,-0.216064453125,0.01708984375,0.82061767578125
1631018759201,-0.15057373046875,0.0341796875,0.8848876953125
1631018759201,-0.2637939453125,0.01007080078125,0.76190185546875
1631018759217,-0.33380126953125,-0.00665283203125,0.749755859375
1631018759217,-0.34588623046875,-0.00726318359375,0.74920654296875
1631018759217,-0.30633544921875,0.0047607421875,0.75457763671875
1631018759311,-0.32965087890625,0.001708984375,0.7960205078125
1631018759311,-0.3465576171875,-0.0032958984375,0.7613525390625
1631018759311,-0.33673095703125,0.00067138671875,0.7713623046875
1631018759405,-0.2835693359375,0.00384521484375,0.88836669921875
1631018759405,-0.3011474609375,0.00469970703125,0.83489990234375
1631018759405,-0.24969482421875,0.0072021484375,0.923828125
1631018759420,-0.19256591796875,0.01409912109375,1.07476806640625
1631018759420,-0.16278076171875,0.009521484375,1.137451171875
1631018759420,-0.2218017578125,0.01153564453125,0.9671630859375
1631018759483,-0.137939453125,0.0079345703125,1.1610107421875
1631018759483,-0.147216796875,0.013916015625,1.16583251953125
1631018759483,-0.13671875,0.00848388671875,1.1326904296875
1631018759530,-0.16754150390625,0.0009765625,1.0560302734375
1631018759530,-0.15185546875,0.00152587890625,1.0965576171875
1631018759530,-0.18292236328125,0.0028076171875,1.019775390625
1631018759657,-0.20416259765625,0.00299072265625,0.9840087890625
1631018759657,-0.23382568359375,0.007080078125,0.92449951171875
1631018759657,-0.21929931640625,0.0067138671875,0.95001220703125
1631018759672,-0.2601318359375,0.00604248046875,0.87969970703125
1631018759672,-0.24554443359375,0.009033203125,0.906005859375
1631018759719,-0.26007080078125,0.00079345703125,0.8731689453125
1631018759719,-0.25457763671875,0.00732421875,0.8836669921875
1631018759766,-0.24609375,0.010498046875,0.90423583984375
1631018759766,-0.22979736328125,0.01043701171875,0.9249267578125
1631018759766,-0.21319580078125,0.0157470703125,0.9615478515625
1631018759844,-0.197021484375,0.01513671875,1.00347900390625
1631018759844,-0.168212890625,0.02593994140625,1.06036376953125
1631018759844,-0.18487548828125,0.0147705078125,1.03912353515625
1631018759907,-0.1669921875,0.02587890625,1.066650390625
1631018759907,-0.16510009765625,0.0303955078125,1.078125
1631018759907,-0.1650390625,0.02978515625,1.076416015625
1631018759953,-0.17889404296875,0.0228271484375,1.045166015625
1631018759953,-0.18896484375,0.01629638671875,1.00909423828125
1631018759953,-0.203857421875,0.01556396484375,0.98065185546875
1631018760032,-0.224609375,0.0142822265625,0.93267822265625
1631018760032,-0.21612548828125,0.01458740234375,0.955078125
1631018760032,-0.2373046875,0.00970458984375,0.911865234375
1631018760141,-0.2490234375,0.0111083984375,0.9044189453125
1631018760141,-0.2489013671875,0.00787353515625,0.90020751953125
1631018760141,-0.2432861328125,0.009765625,0.90679931640625
1631018760188,-0.23504638671875,0.0101318359375,0.9310302734375
1631018760188,-0.22662353515625,0.010009765625,0.94879150390625
1631018760188,-0.24365234375,0.0111083984375,0.91680908203125
1631018760235,-0.20526123046875,0.00921630859375,1.00640869140625
1631018760235,-0.218994140625,0.01373291015625,0.97308349609375
1631018760235,-0.2119140625,0.01702880859375,0.99468994140625
1631018760282,-0.202880859375,0.007080078125,1.0118408203125
1631018760282,-0.207275390625,0.00518798828125,1.0047607421875
1631018760282,-0.2027587890625,0.00714111328125,1.00775146484375
1631018760297,-0.20977783203125,0.0074462890625,1.00054931640625
1631018760297,-0.22381591796875,0.00604248046875,0.974609375
1631018760297,-0.2177734375,0.00714111328125,0.98590087890625
1631018760360,-0.22906494140625,0.00506591796875,0.96527099609375
1631018760360,-0.23980712890625,0.00982666015625,0.95977783203125
1631018760360,-0.23687744140625,0.00787353515625,0.9459228515625
1631018760424,-0.23785400390625,0.00836181640625,0.93402099609375
1631018760424,-0.239013671875,0.00689697265625,0.93719482421875
1631018760424,-0.2353515625,0.0115966796875,0.95245361328125
1631018760502,-0.23272705078125,0.0130615234375,0.96197509765625
1631018760518,-0.22491455078125,0.01214599609375,0.96734619140625
1631018760518,-0.221435546875,0.0146484375,0.96551513671875
1631018760518,-0.21533203125,0.01593017578125,0.9671630859375
1631018760518,-0.21490478515625,0.0201416015625,0.9779052734375
1631018760596,-0.21697998046875,0.01727294921875,0.98614501953125
1631018760596,-0.2137451171875,0.015869140625,0.99066162109375
1631018760596,-0.2120361328125,0.01416015625,0.99005126953125
1631018760658,-0.22039794921875,0.02301025390625,0.96917724609375
1631018760658,-0.2177734375,0.01715087890625,0.97216796875
1631018760721,-0.2275390625,0.02569580078125,0.9686279296875
1631018760721,-0.22265625,0.0225830078125,0.96746826171875
1631018760768,-0.22412109375,0.01837158203125,0.96630859375
1631018760768,-0.22039794921875,0.01873779296875,0.963134765625
1631018760768,-0.22454833984375,0.0216064453125,0.96575927734375
1631018760830,-0.2244873046875,0.01239013671875,0.9700927734375
1631018760830,-0.22418212890625,0.010009765625,0.9710693359375
1631018760830,-0.2269287109375,0.01171875,0.96820068359375
1631018760892,-0.22607421875,0.01116943359375,0.96466064453125
1631018760892,-0.22296142578125,0.01568603515625,0.96405029296875
1631018760993,-0.219482421875,0.01739501953125,0.97137451171875
1631018760993,-0.21820068359375,0.02093505859375,0.9736328125
1631018761013,-0.22265625,0.01824951171875,0.96905517578125
1631018761014,-0.21881103515625,0.01666259765625,0.97265625
1631018761014,-0.22418212890625,0.0167236328125,0.9747314453125
1631018761074,-0.22515869140625,0.016357421875,0.97125244140625
1631018761076,-0.22540283203125,0.01544189453125,0.9610595703125
1631018761141,-0.22833251953125,0.0101318359375,0.96258544921875
1631018761142,-0.2264404296875,0.007080078125,0.96923828125
1631018761142,-0.22613525390625,0.01104736328125,0.97027587890625
1631018761218,-0.22998046875,0.00616455078125,0.96875
1631018761220,-0.2333984375,0.0020751953125,0.96160888671875
1631018761227,-0.2318115234375,0.00238037109375,0.95489501953125
1631018761259,-0.2294921875,0.01019287109375,0.96282958984375
1631018761260,-0.2294921875,0.01171875,0.9693603515625
1631018761261,-0.229736328125,0.01068115234375,0.973388671875
1631018761449,-0.22998046875,0.0103759765625,0.970458984375
1631018761450,-0.22802734375,0.00933837890625,0.968017578125
1631018761452,-0.22833251953125,0.01104736328125,0.9693603515625
1631018761521,-0.2308349609375,0.00994873046875,0.96746826171875
1631018761523,-0.22735595703125,0.00994873046875,0.9691162109375
1631018761527,-0.22833251953125,0.00860595703125,0.967529296875
1631018761685,-0.23052978515625,0.01007080078125,0.96588134765625
1631018761685,-0.23101806640625,0.00738525390625,0.96942138671875
1631018761688,-0.232421875,0.0069580078125,0.96734619140625
1631018761766,-0.2314453125,0.00506591796875,0.96356201171875
1631018761767,-0.232177734375,0.00543212890625,0.96136474609375
1631018761769,-0.22998046875,0.008056640625,0.9642333984375
1631018761795,-0.22723388671875,0.0069580078125,0.9674072265625
1631018761796,-0.22784423828125,0.00421142578125,0.96905517578125
1631018761798,-0.22576904296875,0.00677490234375,0.97283935546875
1631018761864,-0.22540283203125,0.00762939453125,0.97454833984375
1631018761868,-0.22528076171875,0.00946044921875,0.97418212890625
1631018761870,-0.22674560546875,0.00421142578125,0.97039794921875
1631018761920,-0.22698974609375,0.00592041015625,0.9688720703125
1631018761920,-0.22882080078125,0.00811767578125,0.9693603515625
1631018761921,-0.22882080078125,0.00726318359375,0.96710205078125
1631018761954,-0.22430419921875,0.01043701171875,0.96893310546875
1631018761954,-0.225830078125,0.00927734375,0.962646484375
1631018761970,-0.226806640625,0.010009765625,0.9622802734375
1631018761985,-0.22625732421875,0.01123046875,0.96795654296875
1631018761985,-0.22528076171875,0.00860595703125,0.968505859375
1631018761985,-0.22637939453125,0.00921630859375,0.967041015625
1631018762032,-0.22314453125,0.00836181640625,0.97369384765625
1631018762032,-0.22113037109375,0.00555419921875,0.97503662109375
1631018762032,-0.2279052734375,0.005859375,0.9725341796875
1631018762079,-0.22393798828125,0.00750732421875,0.98004150390625
1631018762079,-0.22137451171875,0.01214599609375,0.973388671875
1631018762079,-0.22528076171875,0.01226806640625,0.97711181640625
1631018762157,-0.225341796875,0.00286865234375,0.97760009765625
1631018762157,-0.22491455078125,-0.0015869140625,0.970703125
1631018762173,-0.22772216796875,-0.00128173828125,0.9674072265625
1631018762235,-0.22882080078125,0.00103759765625,0.9688720703125
1631018762235,-0.22723388671875,0.00799560546875,0.967529296875
1631018762235,-0.22869873046875,0.00128173828125,0.96502685546875
1631018762282,-0.23077392578125,0.006103515625,0.96392822265625
1631018762282,-0.224853515625,0.01153564453125,0.9661865234375
1631018762282,-0.22979736328125,0.009765625,0.96356201171875
1631018762428,-0.22552490234375,0.00537109375,0.97027587890625
1631018762428,-0.2236328125,0.00823974609375,0.9683837890625
1631018762428,-0.2261962890625,0.00390625,0.96826171875
1631018762506,-0.22540283203125,0.00421142578125,0.9722900390625
1631018762521,-0.22320556640625,-0.00091552734375,0.97467041015625
1631018762521,-0.2288818359375,0.00164794921875,0.9755859375
1631018762568,-0.2220458984375,-0.00164794921875,0.97479248046875
1631018762584,-0.211181640625,0.0050048828125,0.98284912109375
1631018762584,-0.2164306640625,-0.0025634765625,0.97674560546875
1631018762655,-0.21044921875,0.0087890625,0.99542236328125
1631018762655,-0.209716796875,0.01165771484375,0.994140625
1631018762655,-0.20770263671875,0.010986328125,0.9896240234375
1631018762686,-0.213134765625,0.00311279296875,0.984130859375
1631018762686,-0.220703125,0.00384521484375,0.97967529296875
1631018762686,-0.22808837890625,0.002197265625,0.970947265625
1631018762718,-0.24090576171875,-0.01556396484375,0.95025634765625
1631018762718,-0.2301025390625,-0.00177001953125,0.9638671875
1631018762718,-0.23468017578125,-0.00457763671875,0.9561767578125
1631018762749,-0.2581787109375,-0.0244140625,0.9659423828125
1631018762749,-0.25518798828125,-0.02069091796875,0.9578857421875
1631018762749,-0.24853515625,-0.01953125,0.95562744140625
1631018762796,-0.26123046875,-0.02374267578125,0.97979736328125
1631018762811,-0.26007080078125,-0.020751953125,0.967529296875
1631018762811,-0.258544921875,-0.01806640625,0.96112060546875
1631018762874,-0.25469970703125,-0.01226806640625,0.9593505859375
1631018762874,-0.259521484375,-0.0106201171875,0.965087890625
1631018762874,-0.26080322265625,-0.00537109375,0.9730224609375
1631018762921,-0.27239990234375,-0.00518798828125,0.96234130859375
1631018762921,-0.27978515625,-0.00970458984375,0.94744873046875
1631018762921,-0.28814697265625,-0.017822265625,0.9342041015625
1631018763046,-0.301513671875,-0.02459716796875,0.93035888671875
1631018763046,-0.321533203125,-0.03411865234375,0.91650390625
1631018763046,-0.31109619140625,-0.03167724609375,0.9210205078125
1631018763155,-0.32794189453125,-0.0413818359375,0.92071533203125
1631018763155,-0.34210205078125,-0.02471923828125,0.9359130859375
1631018763155,-0.338134765625,-0.0394287109375,0.93353271484375
1631018763186,-0.33935546875,-0.03118896484375,0.929931640625
1631018763186,-0.34619140625,-0.02593994140625,0.9349365234375
1631018763186,-0.33551025390625,-0.0352783203125,0.935791015625
1631018763217,-0.33074951171875,-0.03662109375,0.94781494140625
1631018763217,-0.3297119140625,-0.02447509765625,0.94659423828125
1631018763217,-0.3297119140625,-0.0299072265625,0.955322265625
1631018763249,-0.32635498046875,-0.01898193359375,0.91876220703125
1631018763249,-0.3299560546875,-0.020263671875,0.9134521484375
1631018763296,-0.3358154296875,-0.02154541015625,0.90576171875
1631018763296,-0.33648681640625,-0.02838134765625,0.89654541015625
1631018763311,-0.3388671875,-0.04052734375,0.89154052734375
1631018763311,-0.34185791015625,-0.0567626953125,0.89666748046875
1631018763311,-0.348388671875,-0.0726318359375,0.91656494140625
1631018763327,-0.34698486328125,-0.08782958984375,0.91943359375
1631018763358,-0.340576171875,-0.0924072265625,0.91937255859375
1631018763358,-0.34710693359375,-0.0938720703125,0.94085693359375
1631018763358,-0.35772705078125,-0.10723876953125,0.95147705078125
1631018763384,-0.353759765625,-0.10174560546875,0.9466552734375
1631018763385,-0.3555908203125,-0.09930419921875,0.95184326171875
1631018763385,-0.35906982421875,-0.0926513671875,0.94647216796875
1631018763455,-0.341064453125,-0.0709228515625,0.911376953125
1631018763455,-0.34014892578125,-0.05596923828125,0.9139404296875
1631018763455,-0.35504150390625,-0.08380126953125,0.9320068359375
1631018763533,-0.3323974609375,-0.0286865234375,0.91778564453125
1631018763533,-0.33447265625,-0.040283203125,0.9183349609375
1631018763564,-0.3287353515625,-0.058349609375,0.91326904296875
1631018763564,-0.3260498046875,-0.04217529296875,0.92022705078125
1631018763564,-0.32965087890625,-0.02911376953125,0.91864013671875
1631018763627,-0.32257080078125,-0.0703125,0.9093017578125
1631018763627,-0.3282470703125,-0.07012939453125,0.911376953125
1631018763627,-0.32208251953125,-0.06256103515625,0.9219970703125
1631018763695,-0.32781982421875,-0.05767822265625,0.93756103515625
1631018763695,-0.33636474609375,-0.054931640625,0.94683837890625
1631018763695,-0.34490966796875,-0.05462646484375,0.94927978515625
1631018763741,-0.35797119140625,-0.06732177734375,0.94268798828125
1631018763741,-0.34710693359375,-0.06219482421875,0.94769287109375
1631018763757,-0.361328125,-0.06536865234375,0.93634033203125
1631018763788,-0.3687744140625,-0.061767578125,0.9381103515625
1631018763788,-0.38873291015625,-0.0555419921875,0.93121337890625
1631018763788,-0.3770751953125,-0.05755615234375,0.93212890625
1631018763835,-0.3973388671875,-0.05047607421875,0.9449462890625
1631018763835,-0.394775390625,-0.0089111328125,0.93756103515625
1631018763835,-0.37945556640625,0.04461669921875,0.902587890625
1631018763913,-0.394775390625,-0.00823974609375,0.88714599609375
1631018763913,-0.38934326171875,0.03045654296875,0.88958740234375
1631018763913,-0.381103515625,0.05450439453125,0.9012451171875
1631018763929,-0.394287109375,-0.0552978515625,0.87493896484375
1631018763929,-0.39935302734375,-0.04248046875,0.88604736328125
1631018763929,-0.39105224609375,-0.05963134765625,0.87188720703125
1631018763976,-0.38916015625,-0.05120849609375,0.88720703125
1631018763976,-0.385986328125,-0.05084228515625,0.88848876953125
1631018763976,-0.37750244140625,-0.04949951171875,0.8961181640625
1631018763991,-0.37127685546875,-0.03173828125,0.90875244140625
1631018763991,-0.37567138671875,-0.0252685546875,0.9232177734375
1631018763991,-0.37359619140625,-0.04522705078125,0.90264892578125
1631018764038,-0.36859130859375,-0.0189208984375,0.91143798828125
1631018764038,-0.37335205078125,-0.01953125,0.92230224609375
1631018764054,-0.3612060546875,-0.0244140625,0.90338134765625
1631018764085,-0.36181640625,-0.0560302734375,0.90594482421875
1631018764085,-0.36358642578125,-0.02874755859375,0.8985595703125
1631018764085,-0.35919189453125,-0.0447998046875,0.89813232421875
1631018764101,-0.356689453125,-0.0640869140625,0.91241455078125
1631018764101,-0.36474609375,-0.06317138671875,0.9078369140625
1631018764101,-0.3603515625,-0.06170654296875,0.9095458984375
1631018764163,-0.34246826171875,-0.05792236328125,0.941162109375
1631018764163,-0.35162353515625,-0.064208984375,0.92376708984375
1631018764163,-0.348876953125,-0.06463623046875,0.93536376953125
1631018764210,-0.3353271484375,-0.05303955078125,0.95330810546875
1631018764210,-0.33782958984375,-0.056396484375,0.95159912109375
1631018764226,-0.3282470703125,-0.0467529296875,0.95526123046875
1631018764257,-0.32769775390625,-0.01812744140625,0.94476318359375
1631018764257,-0.328125,-0.02398681640625,0.9510498046875
1631018764257,-0.3275146484375,-0.0355224609375,0.9541015625
1631018764319,-0.3326416015625,-0.0145263671875,0.9473876953125
1631018764319,-0.341552734375,-0.01605224609375,0.944091796875
1631018764400,-0.34423828125,-0.01287841796875,0.937744140625
1631018764400,-0.34735107421875,-0.005859375,0.93243408203125
1631018764400,-0.346923828125,-0.00885009765625,0.92095947265625
1631018764478,-0.35260009765625,-0.0108642578125,0.91375732421875
1631018764478,-0.3411865234375,-0.02960205078125,0.9176025390625
1631018764478,-0.33392333984375,-0.03546142578125,0.9232177734375
1631018764478,-0.35125732421875,-0.013671875,0.91461181640625
1631018764478,-0.34552001953125,-0.0252685546875,0.9144287109375
1631018764478,-0.3330078125,-0.03955078125,0.92681884765625
1631018764572,-0.330322265625,-0.0479736328125,0.93768310546875
1631018764572,-0.33172607421875,-0.04541015625,0.9332275390625
1631018764572,-0.3310546875,-0.052734375,0.93951416015625
1631018764650,-0.33197021484375,-0.06494140625,0.93609619140625
1631018764650,-0.3302001953125,-0.0665283203125,0.93585205078125
1631018764650,-0.328369140625,-0.05804443359375,0.936767578125
1631018764681,-0.3292236328125,-0.07305908203125,0.93255615234375
1631018764681,-0.32550048828125,-0.0748291015625,0.93603515625
1631018764681,-0.32904052734375,-0.07220458984375,0.932861328125
1631018764713,-0.32843017578125,-0.0775146484375,0.9344482421875
1631018764713,-0.3248291015625,-0.07568359375,0.93572998046875
1631018764713,-0.32562255859375,-0.08087158203125,0.9326171875
1631018764775,-0.327392578125,-0.07562255859375,0.93243408203125
1631018764775,-0.32720947265625,-0.080810546875,0.93023681640625
1631018764884,-0.3233642578125,-0.0440673828125,0.9271240234375
1631018764884,-0.32379150390625,-0.0517578125,0.9287109375
1631018764900,-0.3218994140625,-0.0216064453125,0.9398193359375
1631018764900,-0.3250732421875,-0.0303955078125,0.93487548828125
1631018764900,-0.32110595703125,-0.019287109375,0.94000244140625
1631018764963,-0.3187255859375,-0.01873779296875,0.9442138671875
1631018764963,-0.32122802734375,-0.015869140625,0.94427490234375
1631018764963,-0.322509765625,-0.01922607421875,0.9473876953125
1631018765009,-0.3245849609375,-0.01947021484375,0.94366455078125
1631018765009,-0.324462890625,-0.026611328125,0.940673828125
1631018765009,-0.32745361328125,-0.03436279296875,0.934326171875
1631018765072,-0.328125,-0.03839111328125,0.925537109375
1631018765072,-0.32708740234375,-0.04656982421875,0.92877197265625
1631018765134,-0.32745361328125,-0.05010986328125,0.93310546875
1631018765134,-0.327392578125,-0.04779052734375,0.9324951171875
1631018765134,-0.3255615234375,-0.049072265625,0.9312744140625
1631018765197,-0.32440185546875,-0.0523681640625,0.934814453125
1631018765197,-0.32794189453125,-0.052734375,0.93310546875
1631018765212,-0.3248291015625,-0.05078125,0.93011474609375
1631018765291,-0.32623291015625,-0.0482177734375,0.9332275390625
1631018765291,-0.3214111328125,-0.04736328125,0.9317626953125
1631018765291,-0.32183837890625,-0.04937744140625,0.933837890625
1631018765337,-0.320068359375,-0.04437255859375,0.9356689453125
1631018765337,-0.31329345703125,-0.0404052734375,0.9371337890625
1631018765337,-0.31390380859375,-0.04400634765625,0.93487548828125
1631018765390,-0.31268310546875,-0.041015625,0.94207763671875
1631018765390,-0.3118896484375,-0.0479736328125,0.94659423828125
1631018765448,-0.315185546875,-0.04345703125,0.94384765625
1631018765449,-0.3184814453125,-0.04412841796875,0.94793701171875
1631018765449,-0.313720703125,-0.047119140625,0.9490966796875
1631018765496,-0.31304931640625,-0.045654296875,0.940185546875
1631018765497,-0.3109130859375,-0.0400390625,0.9371337890625
1631018765498,-0.31231689453125,-0.03741455078125,0.935302734375
1631018765561,-0.30804443359375,-0.03363037109375,0.9361572265625
1631018765562,-0.310302734375,-0.0299072265625,0.93682861328125
1631018765563,-0.3165283203125,-0.026123046875,0.94171142578125
1631018765631,-0.31182861328125,-0.028564453125,0.93914794921875
1631018765632,-0.31549072265625,-0.02825927734375,0.93914794921875
1631018765634,-0.312255859375,-0.0318603515625,0.9420166015625
1631018765667,-0.3154296875,-0.03436279296875,0.941162109375
1631018765667,-0.3116455078125,-0.0333251953125,0.94256591796875
1631018765668,-0.3160400390625,-0.0338134765625,0.93756103515625
1631018765735,-0.3182373046875,-0.0390625,0.93548583984375
1631018765735,-0.31512451171875,-0.0419921875,0.93701171875
1631018765735,-0.32086181640625,-0.03875732421875,0.9326171875
1631018765782,-0.31329345703125,-0.0467529296875,0.9443359375
1631018765782,-0.315185546875,-0.04705810546875,0.94390869140625
1631018765860,-0.31842041015625,-0.05023193359375,0.9423828125
1631018765860,-0.31298828125,-0.0543212890625,0.9354248046875
1631018765860,-0.3087158203125,-0.05108642578125,0.93731689453125
1631018765918,-0.31182861328125,-0.05096435546875,0.9366455078125
1631018765919,-0.3133544921875,-0.05023193359375,0.9351806640625
1631018765920,-0.312255859375,-0.049560546875,0.93939208984375
1631018765972,-0.310546875,-0.04559326171875,0.9405517578125
1631018765972,-0.31060791015625,-0.04144287109375,0.93499755859375
1631018766035,-0.31134033203125,-0.0418701171875,0.93621826171875
1631018766035,-0.3131103515625,-0.0452880859375,0.94061279296875
1631018766097,-0.3123779296875,-0.03753662109375,0.9539794921875
1631018766097,-0.30584716796875,-0.03314208984375,0.95343017578125
1631018766128,-0.31451416015625,-0.0390625,0.95025634765625
1631018766128,-0.31292724609375,-0.0347900390625,0.96014404296875
1631018766128,-0.3109130859375,-0.0350341796875,0.95538330078125
1631018766206,-0.31378173828125,-0.04248046875,0.93231201171875
1631018766206,-0.313232421875,-0.0452880859375,0.94256591796875
1631018766206,-0.3060302734375,-0.0380859375,0.93450927734375
1631018766284,-0.30718994140625,-0.0382080078125,0.930419921875
1631018766284,-0.300537109375,-0.03338623046875,0.92724609375
1631018766284,-0.30865478515625,-0.03485107421875,0.93292236328125
1631018766316,-0.3017578125,-0.04107666015625,0.94061279296875
1631018766316,-0.30413818359375,-0.04730224609375,0.9456787109375
1631018766363,-0.3040771484375,-0.06036376953125,0.94140625
1631018766363,-0.30072021484375,-0.063720703125,0.92974853515625
1631018766443,-0.3006591796875,-0.054443359375,0.916748046875
1631018766443,-0.301513671875,-0.06097412109375,0.9246826171875
1631018766459,-0.29815673828125,-0.05242919921875,0.92901611328125
1631018766490,-0.2960205078125,-0.0467529296875,0.94390869140625
1631018766490,-0.29779052734375,-0.0399169921875,0.965576171875
1631018766490,-0.29937744140625,-0.04632568359375,0.94366455078125
1631018766553,-0.30224609375,-0.04217529296875,0.9637451171875
1631018766553,-0.30181884765625,-0.05279541015625,0.9747314453125
1631018766553,-0.2999267578125,-0.0484619140625,0.97509765625
1631018766600,-0.30181884765625,-0.058837890625,0.968505859375
1631018766600,-0.31890869140625,-0.061767578125,0.95758056640625
1631018766600,-0.30718994140625,-0.06103515625,0.96209716796875
1631018766700,-0.31512451171875,-0.05322265625,0.932373046875
1631018766700,-0.3214111328125,-0.03717041015625,0.916259765625
1631018766700,-0.32037353515625,-0.04736328125,0.92803955078125
1631018766708,-0.324462890625,-0.0284423828125,0.92523193359375
1631018766724,-0.33111572265625,-0.02313232421875,0.92926025390625
1631018766787,-0.33685302734375,-0.0113525390625,0.93316650390625
1631018766787,-0.33489990234375,-0.020263671875,0.93133544921875
1631018766787,-0.33673095703125,-0.02044677734375,0.93023681640625
1631018766865,-0.3310546875,-0.00921630859375,0.9222412109375
1631018766865,-0.32952880859375,-0.0078125,0.93157958984375
1631018766865,-0.3321533203125,-0.00341796875,0.927978515625
1631018766931,-0.3297119140625,-0.0157470703125,0.91595458984375
1631018766932,-0.33013916015625,-0.02178955078125,0.91802978515625
1631018766933,-0.3277587890625,-0.0294189453125,0.9210205078125
1631018766964,-0.33099365234375,-0.03546142578125,0.923583984375
1631018766980,-0.31927490234375,-0.03900146484375,0.932861328125
1631018766980,-0.3197021484375,-0.03839111328125,0.942626953125
1631018767027,-0.30657958984375,-0.0423583984375,0.95068359375
1631018767027,-0.3092041015625,-0.0406494140625,0.9505615234375
1631018767027,-0.3184814453125,-0.0362548828125,0.9481201171875
1631018767089,-0.31121826171875,-0.0433349609375,0.94866943359375
1631018767089,-0.30023193359375,-0.0433349609375,0.9468994140625
1631018767089,-0.303955078125,-0.05023193359375,0.95098876953125
1631018767120,-0.3031005859375,-0.05364990234375,0.94842529296875
1631018767120,-0.30828857421875,-0.05950927734375,0.9498291015625
1631018767120,-0.30804443359375,-0.06048583984375,0.95098876953125
1631018767214,-0.3134765625,-0.05670166015625,0.94012451171875
1631018767214,-0.31683349609375,-0.05499267578125,0.93402099609375
1631018767214,-0.3150634765625,-0.05810546875,0.94427490234375
1631018767261,-0.3175048828125,-0.05194091796875,0.9334716796875
1631018767261,-0.319091796875,-0.03570556640625,0.93902587890625
1631018767308,-0.31756591796875,-0.03082275390625,0.9385986328125
1631018767308,-0.31756591796875,-0.01715087890625,0.94403076171875
1631018767308,-0.3162841796875,-0.01654052734375,0.9381103515625
1631018767399,-0.3209228515625,-0.0174560546875,0.94525146484375
1631018767400,-0.31982421875,-0.025634765625,0.937255859375
1631018767400,-0.322265625,-0.01983642578125,0.94207763671875
1631018767440,-0.3240966796875,-0.0333251953125,0.9345703125
1631018767441,-0.325927734375,-0.03997802734375,0.93597412109375
1631018767441,-0.3258056640625,-0.0372314453125,0.937744140625
1631018767492,-0.328369140625,-0.0386962890625,0.94061279296875
1631018767493,-0.32781982421875,-0.03912353515625,0.93975830078125
1631018767493,-0.32330322265625,-0.03387451171875,0.9344482421875
1631018767560,-0.32452392578125,-0.0391845703125,0.92498779296875
1631018767561,-0.32147216796875,-0.04302978515625,0.92742919921875
1631018767639,-0.32403564453125,-0.04345703125,0.9300537109375
1631018767641,-0.32244873046875,-0.04022216796875,0.927490234375
1631018767643,-0.32275390625,-0.04193115234375,0.9278564453125
1631018767706,-0.3162841796875,-0.03533935546875,0.9305419921875
1631018767706,-0.3203125,-0.02923583984375,0.9393310546875
1631018767706,-0.31475830078125,-0.03057861328125,0.95013427734375
1631018767721,-0.30987548828125,-0.03173828125,0.94866943359375
1631018767721,-0.31036376953125,-0.0294189453125,0.94091796875
1631018767721,-0.30999755859375,-0.02734375,0.943359375
1631018767799,-0.30743408203125,-0.03009033203125,0.94793701171875
1631018767799,-0.31048583984375,-0.033935546875,0.94207763671875
1631018767799,-0.31121826171875,-0.03350830078125,0.948974609375
1631018767862,-0.3092041015625,-0.0355224609375,0.93951416015625
1631018767862,-0.3148193359375,-0.0328369140625,0.935546875
1631018767862,-0.3150634765625,-0.0360107421875,0.9388427734375
1631018767924,-0.31439208984375,-0.0360107421875,0.940185546875
1631018767924,-0.320556640625,-0.0377197265625,0.94219970703125
1631018767924,-0.31707763671875,-0.03656005859375,0.9432373046875
1631018767955,-0.32354736328125,-0.04083251953125,0.93072509765625
1631018767955,-0.32073974609375,-0.039306640625,0.9307861328125
1631018767971,-0.32275390625,-0.04248046875,0.93316650390625
1631018768018,-0.31903076171875,-0.04119873046875,0.9378662109375
1631018768018,-0.3162841796875,-0.03741455078125,0.94610595703125
1631018768018,-0.31512451171875,-0.03717041015625,0.9434814453125
1631018768101,-0.317626953125,-0.03424072265625,0.94476318359375
1631018768102,-0.3177490234375,-0.02825927734375,0.94134521484375
1631018768102,-0.3177490234375,-0.0308837890625,0.94000244140625
1631018768130,-0.3199462890625,-0.0361328125,0.94012451171875
1631018768130,-0.31982421875,-0.03955078125,0.93914794921875
1631018768199,-0.32501220703125,-0.0400390625,0.93560791015625
1631018768200,-0.32550048828125,-0.03814697265625,0.9298095703125
1631018768200,-0.3231201171875,-0.04022216796875,0.92889404296875
1631018768280,-0.3201904296875,-0.0347900390625,0.93353271484375
1631018768281,-0.31988525390625,-0.036376953125,0.9375
1631018768281,-0.32781982421875,-0.03826904296875,0.941162109375
1631018768340,-0.3218994140625,-0.046142578125,0.9403076171875
1631018768341,-0.31060791015625,-0.04791259765625,0.93505859375
1631018768382,-0.31024169921875,-0.0401611328125,0.94195556640625
1631018768383,-0.31646728515625,-0.03509521484375,0.939453125
1631018768385,-0.3160400390625,-0.03302001953125,0.9403076171875
1631018768467,-0.3197021484375,-0.03363037109375,0.93450927734375
1631018768468,-0.32330322265625,-0.033447265625,0.9368896484375
1631018768468,-0.3221435546875,-0.03582763671875,0.93536376953125
1631018768544,-0.32537841796875,-0.0374755859375,0.93994140625
1631018768545,-0.3221435546875,-0.03314208984375,0.93408203125
1631018768546,-0.32421875,-0.02935791015625,0.93438720703125
1631018768561,-0.3238525390625,-0.02325439453125,0.9285888671875
1631018768562,-0.3248291015625,-0.02032470703125,0.93292236328125
1631018768562,-0.32720947265625,-0.02069091796875,0.9342041015625
1631018768606,-0.32550048828125,-0.0274658203125,0.93548583984375
1631018768606,-0.32672119140625,-0.02301025390625,0.93377685546875
1631018768606,-0.3240966796875,-0.02435302734375,0.93133544921875
1631018768699,-0.32635498046875,-0.03662109375,0.93548583984375
1631018768699,-0.32275390625,-0.03619384765625,0.9364013671875
1631018768699,-0.3233642578125,-0.033935546875,0.9368896484375
1631018768746,-0.3272705078125,-0.0386962890625,0.94073486328125
1631018768746,-0.32574462890625,-0.042236328125,0.9351806640625
1631018768824,-0.3270263671875,-0.0341796875,0.9346923828125
1631018768824,-0.32830810546875,-0.0391845703125,0.934814453125
1631018768840,-0.330322265625,-0.03338623046875,0.9332275390625
1631018768840,-0.3291015625,-0.0325927734375,0.93609619140625
1631018768856,-0.32763671875,-0.032470703125,0.9315185546875
1631018768902,-0.32891845703125,-0.03643798828125,0.9322509765625
1631018768902,-0.32672119140625,-0.03472900390625,0.93145751953125
1631018768902,-0.32391357421875,-0.0302734375,0.931884765625
1631018768986,-0.32757568359375,-0.0430908203125,0.9324951171875
1631018768986,-0.32708740234375,-0.037109375,0.93072509765625
1631018769044,-0.32537841796875,-0.0435791015625,0.93206787109375
1631018769045,-0.32720947265625,-0.03973388671875,0.9315185546875
1631018769046,-0.32476806640625,-0.04052734375,0.93646240234375
1631018769097,-0.32379150390625,-0.042236328125,0.93212890625
1631018769098,-0.32073974609375,-0.03790283203125,0.93988037109375
1631018769098,-0.32415771484375,-0.03826904296875,0.9373779296875
1631018769137,-0.32025146484375,-0.0384521484375,0.9375
1631018769137,-0.32012939453125,-0.03717041015625,0.93927001953125
1631018769265,-0.32177734375,-0.03857421875,0.93560791015625
1631018769265,-0.3233642578125,-0.0343017578125,0.929931640625
1631018769265,-0.33056640625,-0.03515625,0.93804931640625
1631018769265,-0.32733154296875,-0.03887939453125,0.93060302734375
1631018769265,-0.32366943359375,-0.0302734375,0.93328857421875
1631018769265,-0.3280029296875,-0.036376953125,0.9324951171875
1631018769358,-0.322265625,-0.0286865234375,0.93707275390625
1631018769358,-0.31982421875,-0.02532958984375,0.94384765625
1631018769358,-0.316162109375,-0.02825927734375,0.94219970703125
1631018769382,-0.31658935546875,-0.02587890625,0.94512939453125
1631018769384,-0.31689453125,-0.02947998046875,0.940185546875
1631018769384,-0.3201904296875,-0.03125,0.9417724609375
1631018769489,-0.323974609375,-0.03692626953125,0.9383544921875
1631018769489,-0.32049560546875,-0.03582763671875,0.93914794921875
1631018769489,-0.32293701171875,-0.03314208984375,0.94268798828125
1631018769504,-0.3236083984375,-0.03436279296875,0.92974853515625
1631018769504,-0.32537841796875,-0.03497314453125,0.9334716796875
1631018769504,-0.3245849609375,-0.035888671875,0.931640625
1631018769551,-0.32208251953125,-0.03497314453125,0.93701171875
1631018769551,-0.32403564453125,-0.0341796875,0.94110107421875
1631018769551,-0.32049560546875,-0.03106689453125,0.9388427734375
1631018769598,-0.32537841796875,-0.03765869140625,0.9365234375
1631018769598,-0.323486328125,-0.033935546875,0.93511962890625
1631018769598,-0.3240966796875,-0.0360107421875,0.93804931640625
1631018769692,-0.32818603515625,-0.04150390625,0.93438720703125
1631018769692,-0.3265380859375,-0.0389404296875,0.9315185546875
1631018769692,-0.3240966796875,-0.04058837890625,0.93255615234375
1631018769801,-0.32464599609375,-0.04010009765625,0.93292236328125
1631018769801,-0.32489013671875,-0.0400390625,0.9351806640625
1631018769801,-0.32611083984375,-0.03924560546875,0.9295654296875
1631018769832,-0.322021484375,-0.0361328125,0.93438720703125
1631018769832,-0.3251953125,-0.03936767578125,0.93951416015625
1631018769832,-0.32464599609375,-0.036865234375,0.93902587890625
1631018769864,-0.3262939453125,-0.03436279296875,0.93878173828125
1631018769864,-0.3267822265625,-0.0360107421875,0.93939208984375
1631018769864,-0.3221435546875,-0.0313720703125,0.93994140625
1631018769957,-0.3199462890625,-0.034912109375,0.9345703125
1631018769957,-0.3232421875,-0.0291748046875,0.93682861328125
1631018769957,-0.32025146484375,-0.0325927734375,0.9337158203125
1631018769989,-0.32733154296875,-0.03729248046875,0.93359375
1631018769989,-0.32586669921875,-0.03912353515625,0.93206787109375
1631018769989,-0.32659912109375,-0.0352783203125,0.93731689453125
1631018770036,-0.325439453125,-0.0389404296875,0.93109130859375
1631018770036,-0.32476806640625,-0.0362548828125,0.930419921875
1631018770036,-0.32098388671875,-0.03643798828125,0.93450927734375
1631018770098,-0.32110595703125,-0.03375244140625,0.9376220703125
1631018770098,-0.31768798828125,-0.03125,0.9373779296875
1631018770098,-0.31890869140625,-0.0296630859375,0.9365234375
1631018770129,-0.319580078125,-0.032470703125,0.93707275390625
1631018770129,-0.3194580078125,-0.0364990234375,0.9390869140625
1631018770145,-0.32220458984375,-0.0369873046875,0.935791015625
1631018770207,-0.32525634765625,-0.03692626953125,0.9368896484375
1631018770207,-0.32720947265625,-0.03509521484375,0.93975830078125
1631018770207,-0.31982421875,-0.0396728515625,0.93365478515625
1631018770270,-0.32220458984375,-0.03472900390625,0.93353271484375
1631018770270,-0.3214111328125,-0.03887939453125,0.931396484375
1631018770270,-0.32537841796875,-0.03948974609375,0.9322509765625
1631018770363,-0.32025146484375,-0.02783203125,0.94525146484375
1631018770363,-0.32080078125,-0.03009033203125,0.94171142578125
1631018770363,-0.31787109375,-0.0306396484375,0.94024658203125
1631018770400,-0.32049560546875,-0.02923583984375,0.94293212890625
1631018770401,-0.3197021484375,-0.03106689453125,0.9381103515625
1631018770444,-0.3175048828125,-0.0323486328125,0.93768310546875
1631018770460,-0.3206787109375,-0.0372314453125,0.934326171875
1631018770460,-0.31842041015625,-0.03814697265625,0.9337158203125
1631018770491,-0.32305908203125,-0.03326416015625,0.9302978515625
1631018770491,-0.3212890625,-0.03375244140625,0.9344482421875
1631018770592,-0.32061767578125,-0.03509521484375,0.93359375
1631018770593,-0.32037353515625,-0.03619384765625,0.93572998046875
1631018770594,-0.31903076171875,-0.03564453125,0.93896484375
1631018770636,-0.31597900390625,-0.03802490234375,0.93841552734375
1631018770637,-0.313720703125,-0.0328369140625,0.93768310546875
1631018770637,-0.3133544921875,-0.033203125,0.943603515625
1631018770662,-0.31549072265625,-0.0333251953125,0.94805908203125
1631018770663,-0.31500244140625,-0.03387451171875,0.9498291015625
1631018770664,-0.31365966796875,-0.0367431640625,0.94580078125
1631018770727,-0.3173828125,-0.03717041015625,0.93853759765625
1631018770727,-0.3157958984375,-0.031005859375,0.93829345703125
1631018770727,-0.31536865234375,-0.03802490234375,0.943359375
1631018770838,-0.31256103515625,-0.02557373046875,0.93743896484375
1631018770839,-0.3101806640625,-0.02862548828125,0.93939208984375
1631018770841,-0.31182861328125,-0.027099609375,0.9398193359375
1631018770887,-0.3150634765625,-0.02691650390625,0.94097900390625
1631018770888,-0.3115234375,-0.02947998046875,0.935546875
1631018770920,-0.31683349609375,-0.03375244140625,0.94110107421875
1631018770920,-0.315185546875,-0.03375244140625,0.932373046875
1631018770920,-0.3160400390625,-0.03411865234375,0.9376220703125
1631018770982,-0.3150634765625,-0.03564453125,0.94024658203125
1631018770982,-0.31591796875,-0.033203125,0.9356689453125
1631018770982,-0.31915283203125,-0.033203125,0.9368896484375
1631018771045,-0.3143310546875,-0.03143310546875,0.9400634765625
1631018771045,-0.31341552734375,-0.0245361328125,0.94403076171875
1631018771107,-0.31109619140625,-0.02655029296875,0.9444580078125
1631018771107,-0.30908203125,-0.02947998046875,0.9449462890625
1631018771107,-0.31304931640625,-0.0281982421875,0.9451904296875
1631018771205,-0.31256103515625,-0.03082275390625,0.94561767578125
1631018771205,-0.3134765625,-0.03118896484375,0.937255859375
1631018771205,-0.31494140625,-0.028564453125,0.93829345703125
1631018771205,-0.313232421875,-0.03485107421875,0.93511962890625
1631018771220,-0.31781005859375,-0.02923583984375,0.93499755859375
1631018771220,-0.31494140625,-0.0277099609375,0.93621826171875
1631018771292,-0.3143310546875,-0.02685546875,0.93780517578125
1631018771292,-0.31085205078125,-0.02777099609375,0.9359130859375
1631018771292,-0.3134765625,-0.028076171875,0.94012451171875
1631018771323,-0.312255859375,-0.02911376953125,0.9356689453125
1631018771323,-0.315673828125,-0.0308837890625,0.94097900390625
1631018771323,-0.31036376953125,-0.03216552734375,0.9415283203125
1631018771402,-0.30853271484375,-0.03118896484375,0.9442138671875
1631018771402,-0.30950927734375,-0.03082275390625,0.9403076171875
1631018771404,-0.31048583984375,-0.02862548828125,0.9490966796875
1631018771450,-0.311279296875,-0.02362060546875,0.9456787109375
1631018771466,-0.31207275390625,-0.03021240234375,0.94635009765625
1631018771466,-0.311767578125,-0.0343017578125,0.937255859375
1631018771482,-0.3106689453125,-0.027099609375,0.9376220703125
1631018771482,-0.30767822265625,-0.03106689453125,0.9373779296875
1631018771482,-0.30792236328125,-0.02685546875,0.9420166015625
1631018771607,-0.302490234375,-0.03033447265625,0.94256591796875
1631018771607,-0.3089599609375,-0.0286865234375,0.94305419921875
1631018771607,-0.30828857421875,-0.0291748046875,0.94146728515625
1631018771638,-0.30828857421875,-0.03155517578125,0.94097900390625
1631018771638,-0.30682373046875,-0.02838134765625,0.94146728515625
1631018771638,-0.3062744140625,-0.029541015625,0.9425048828125
1631018771669,-0.30828857421875,-0.03558349609375,0.9398193359375
1631018771669,-0.3096923828125,-0.03656005859375,0.937744140625
1631018771669,-0.31060791015625,-0.0328369140625,0.942138671875
1631018771778,-0.30572509765625,-0.0333251953125,0.942626953125
1631018771778,-0.3099365234375,-0.031982421875,0.942138671875
1631018771778,-0.30621337890625,-0.0301513671875,0.94415283203125
1631018771810,-0.30413818359375,-0.02349853515625,0.9503173828125
1631018771810,-0.3040771484375,-0.025146484375,0.9468994140625
1631018771810,-0.3038330078125,-0.0238037109375,0.951171875
1631018771872,-0.3065185546875,-0.027587890625,0.94659423828125
1631018771872,-0.3077392578125,-0.02667236328125,0.946533203125
1631018771919,-0.3077392578125,-0.02734375,0.9395751953125
1631018771919,-0.31182861328125,-0.02667236328125,0.9361572265625
1631018771966,-0.31292724609375,-0.0257568359375,0.93389892578125
1631018771966,-0.31256103515625,-0.03021240234375,0.93048095703125
1631018771966,-0.31243896484375,-0.02825927734375,0.93414306640625
1631018772028,-0.31207275390625,-0.03607177734375,0.94091796875
1631018772028,-0.312744140625,-0.03125,0.9400634765625
1631018772028,-0.3087158203125,-0.0322265625,0.9349365234375
1631018772091,-0.3096923828125,-0.03277587890625,0.9373779296875
1631018772091,-0.30767822265625,-0.03076171875,0.9417724609375
1631018772091,-0.30902099609375,-0.0338134765625,0.93743896484375
1631018772169,-0.30487060546875,-0.03375244140625,0.94683837890625
1631018772169,-0.30926513671875,-0.033203125,0.94573974609375
1631018772169,-0.30535888671875,-0.03033447265625,0.9471435546875
1631018772231,-0.3055419921875,-0.03094482421875,0.94921875
1631018772231,-0.30792236328125,-0.03094482421875,0.94952392578125
1631018772231,-0.30609130859375,-0.03204345703125,0.95166015625
1631018772263,-0.312744140625,-0.04034423828125,0.93646240234375
1631018772263,-0.30712890625,-0.03887939453125,0.94256591796875
1631018772263,-0.30902099609375,-0.03582763671875,0.935302734375
1631018772325,-0.30792236328125,-0.03076171875,0.93646240234375
1631018772325,-0.3079833984375,-0.02972412109375,0.940185546875
1631018772325,-0.30584716796875,-0.02783203125,0.94061279296875
1631018772413,-0.30487060546875,-0.02557373046875,0.940673828125
1631018772413,-0.3062744140625,-0.02606201171875,0.942626953125
1631018772413,-0.3101806640625,-0.0233154296875,0.94140625
1631018772453,-0.3087158203125,-0.032470703125,0.942138671875
1631018772453,-0.30804443359375,-0.031005859375,0.9404296875
1631018772453,-0.30804443359375,-0.03363037109375,0.93878173828125
1631018772500,-0.3118896484375,-0.03521728515625,0.93896484375
1631018772500,-0.30926513671875,-0.03631591796875,0.93975830078125
1631018772500,-0.31024169921875,-0.0338134765625,0.94061279296875
1631018772562,-0.30792236328125,-0.03594970703125,0.9404296875
1631018772562,-0.30804443359375,-0.02783203125,0.9432373046875
1631018772562,-0.308837890625,-0.03204345703125,0.945068359375
1631018772640,-0.30535888671875,-0.0267333984375,0.9456787109375
1631018772640,-0.3057861328125,-0.02703857421875,0.9449462890625
1631018772640,-0.30859375,-0.02862548828125,0.94866943359375
1631018772718,-0.30584716796875,-0.02996826171875,0.94586181640625
1631018772718,-0.311767578125,-0.033447265625,0.94366455078125
1631018772718,-0.30889892578125,-0.03460693359375,0.9383544921875
1631018772734,-0.30938720703125,-0.034912109375,0.93597412109375
1631018772734,-0.3101806640625,-0.031982421875,0.93389892578125
1631018772734,-0.31573486328125,-0.03466796875,0.9364013671875
1631018772812,-0.30828857421875,-0.0345458984375,0.93896484375
1631018772812,-0.3087158203125,-0.0340576171875,0.94091796875
1631018772812,-0.31353759765625,-0.03411865234375,0.93756103515625
1631018772874,-0.306884765625,-0.0333251953125,0.9454345703125
1631018772874,-0.30657958984375,-0.033935546875,0.94189453125
1631018772874,-0.30596923828125,-0.0330810546875,0.9434814453125
1631018772922,-0.30694580078125,-0.03375244140625,0.946044921875
1631018772922,-0.3045654296875,-0.03564453125,0.9449462890625
1631018772922,-0.30902099609375,-0.03094482421875,0.94305419921875
1631018772983,-0.30657958984375,-0.033203125,0.9437255859375
1631018772983,-0.307861328125,-0.0289306640625,0.9427490234375
1631018772983,-0.30975341796875,-0.02947998046875,0.9420166015625
1631018773055,-0.31011962890625,-0.026611328125,0.94110107421875
1631018773056,-0.309326171875,-0.03057861328125,0.93975830078125
1631018773117,-0.31195068359375,-0.0364990234375,0.94073486328125
1631018773117,-0.31341552734375,-0.03167724609375,0.94378662109375
1631018773191,-0.31048583984375,-0.0352783203125,0.939208984375
1631018773193,-0.30718994140625,-0.022216796875,0.941162109375
1631018773193,-0.30853271484375,-0.03228759765625,0.93829345703125
1631018773213,-0.30438232421875,-0.0269775390625,0.94232177734375
1631018773214,-0.30877685546875,-0.0250244140625,0.94171142578125
1631018773214,-0.30828857421875,-0.029541015625,0.94427490234375
1631018773277,-0.30718994140625,-0.03228759765625,0.9444580078125
1631018773277,-0.307861328125,-0.0242919921875,0.94744873046875
1631018773278,-0.31329345703125,-0.03424072265625,0.94366455078125
1631018773354,-0.310302734375,-0.0390625,0.94403076171875
1631018773355,-0.31524658203125,-0.04095458984375,0.9388427734375
1631018773355,-0.31634521484375,-0.0406494140625,0.93951416015625
1631018773395,-0.31256103515625,-0.03204345703125,0.93670654296875
1631018773397,-0.31329345703125,-0.0352783203125,0.93505859375
1631018773466,-0.3126220703125,-0.03411865234375,0.937744140625
1631018773467,-0.313720703125,-0.0340576171875,0.94219970703125
1631018773467,-0.3133544921875,-0.03167724609375,0.94329833984375
1631018773512,-0.3148193359375,-0.03009033203125,0.94219970703125
1631018773513,-0.31378173828125,-0.02996826171875,0.9447021484375
1631018773513,-0.3089599609375,-0.0286865234375,0.940673828125
1631018773573,-0.31085205078125,-0.0277099609375,0.9422607421875
1631018773575,-0.31085205078125,-0.0352783203125,0.93719482421875
1631018773575,-0.31280517578125,-0.03021240234375,0.9376220703125
1631018773639,-0.30975341796875,-0.039306640625,0.93988037109375
1631018773641,-0.3099365234375,-0.0390625,0.941650390625
1631018773643,-0.3087158203125,-0.032958984375,0.94134521484375
1631018773689,-0.31207275390625,-0.0316162109375,0.9373779296875
1631018773689,-0.31036376953125,-0.02764892578125,0.9376220703125
1631018773689,-0.3094482421875,-0.02880859375,0.94134521484375
1631018773736,-0.3094482421875,-0.02740478515625,0.94091796875
1631018773736,-0.3084716796875,-0.02813720703125,0.94293212890625
1631018773736,-0.30767822265625,-0.02935791015625,0.942138671875
1631018773796,-0.30804443359375,-0.0306396484375,0.93804931640625
1631018773796,-0.31268310546875,-0.031005859375,0.9403076171875
1631018773796,-0.30682373046875,-0.02899169921875,0.94140625
1631018773877,-0.31048583984375,-0.02984619140625,0.94610595703125
1631018773878,-0.30645751953125,-0.03057861328125,0.94525146484375
1631018773878,-0.30780029296875,-0.02935791015625,0.9437255859375
1631018773913,-0.30560302734375,-0.02862548828125,0.9434814453125
1631018773914,-0.304931640625,-0.0303955078125,0.94256591796875
1631018773914,-0.30718994140625,-0.03411865234375,0.94696044921875
1631018773961,-0.31304931640625,-0.03485107421875,0.94580078125
1631018773961,-0.30859375,-0.033447265625,0.9462890625
1631018773962,-0.3104248046875,-0.042236328125,0.94427490234375
1631018774032,-0.31109619140625,-0.04034423828125,0.93798828125
1631018774032,-0.3101806640625,-0.03216552734375,0.934814453125
1631018774033,-0.3062744140625,-0.029052734375,0.93487548828125
1631018774138,-0.304931640625,-0.02752685546875,0.9434814453125
1631018774138,-0.305908203125,-0.0294189453125,0.94525146484375
1631018774138,-0.30560302734375,-0.02606201171875,0.93975830078125
1631018774154,-0.3056640625,-0.02850341796875,0.94647216796875
1631018774154,-0.30364990234375,-0.02630615234375,0.94891357421875
1631018774201,-0.30767822265625,-0.031005859375,0.94573974609375
1631018774201,-0.30511474609375,-0.0299072265625,0.9515380859375
1631018774201,-0.30377197265625,-0.02813720703125,0.9473876953125
1631018774310,-0.30816650390625,-0.03326416015625,0.94073486328125
1631018774311,-0.3072509765625,-0.033447265625,0.940185546875
1631018774312,-0.3082275390625,-0.0308837890625,0.93896484375
1631018774322,-0.30548095703125,-0.031005859375,0.94061279296875
1631018774323,-0.30731201171875,-0.0303955078125,0.94189453125
1631018774324,-0.308349609375,-0.0283203125,0.94085693359375
1631018774400,-0.31048583984375,-0.02764892578125,0.94598388671875
1631018774402,-0.306640625,-0.03082275390625,0.93994140625
1631018774404,-0.306884765625,-0.033447265625,0.94049072265625
1631018774474,-0.3101806640625,-0.03662109375,0.93939208984375
1631018774474,-0.3099365234375,-0.03533935546875,0.94097900390625
1631018774475,-0.307861328125,-0.0374755859375,0.943115234375
1631018774527,-0.30474853515625,-0.0303955078125,0.94647216796875
1631018774527,-0.30792236328125,-0.0335693359375,0.94293212890625
1631018774586,-0.30731201171875,-0.02642822265625,0.94097900390625
1631018774586,-0.30621337890625,-0.0322265625,0.945068359375
1631018774586,-0.303466796875,-0.02947998046875,0.944580078125
1631018774648,-0.31201171875,-0.02947998046875,0.93994140625
1631018774648,-0.307373046875,-0.03082275390625,0.9447021484375
1631018774648,-0.31048583984375,-0.0286865234375,0.93853759765625
1631018774695,-0.30865478515625,-0.03521728515625,0.9393310546875
1631018774695,-0.31134033203125,-0.0338134765625,0.93914794921875
1631018774695,-0.31011962890625,-0.0330810546875,0.9393310546875
1631018774747,-0.310302734375,-0.0361328125,0.9404296875
1631018774748,-0.30841064453125,-0.0335693359375,0.94384765625
1631018774749,-0.312255859375,-0.03424072265625,0.93927001953125
1631018774804,-0.309326171875,-0.03253173828125,0.9420166015625
1631018774805,-0.30926513671875,-0.0323486328125,0.9437255859375
1631018774805,-0.3131103515625,-0.029541015625,0.94793701171875
1631018774921,-0.3133544921875,-0.03070068359375,0.94573974609375
1631018774923,-0.3123779296875,-0.03448486328125,0.93408203125
1631018774926,-0.308837890625,-0.03472900390625,0.933349609375
1631018774990,-0.311767578125,-0.02960205078125,0.93316650390625
1631018774991,-0.3070068359375,-0.02850341796875,0.9417724609375
1631018774992,-0.3060302734375,-0.02789306640625,0.94158935546875
1631018775011,-0.30535888671875,-0.0264892578125,0.94366455078125
1631018775013,-0.3070068359375,-0.0262451171875,0.94219970703125
1631018775014,-0.3084716796875,-0.02484130859375,0.94287109375
1631018775046,-0.30859375,-0.03167724609375,0.94000244140625
1631018775046,-0.30767822265625,-0.03265380859375,0.94378662109375
1631018775047,-0.3079833984375,-0.03570556640625,0.94268798828125
1631018775101,-0.31182861328125,-0.03546142578125,0.94244384765625
1631018775102,-0.310302734375,-0.0367431640625,0.94281005859375
1631018775103,-0.3084716796875,-0.03936767578125,0.94012451171875
1631018775178,-0.30767822265625,-0.03802490234375,0.93902587890625
1631018775179,-0.30877685546875,-0.0308837890625,0.939697265625
1631018775179,-0.3060302734375,-0.03753662109375,0.9425048828125
1631018775232,-0.31036376953125,-0.027587890625,0.944091796875
1631018775233,-0.30999755859375,-0.02911376953125,0.9478759765625
1631018775299,-0.3095703125,-0.029541015625,0.9459228515625
1631018775300,-0.308837890625,-0.03485107421875,0.9442138671875
1631018775300,-0.30621337890625,-0.031005859375,0.9439697265625
1631018775333,-0.3101806640625,-0.03070068359375,0.94256591796875
1631018775334,-0.30975341796875,-0.03485107421875,0.9345703125
1631018775427,-0.31085205078125,-0.03594970703125,0.9371337890625
1631018775428,-0.30926513671875,-0.03326416015625,0.93743896484375
1631018775430,-0.3087158203125,-0.03009033203125,0.94097900390625
1631018775467,-0.31036376953125,-0.03399658203125,0.94012451171875
1631018775468,-0.30572509765625,-0.0347900390625,0.941162109375
1631018775553,-0.31011962890625,-0.0328369140625,0.94525146484375
1631018775553,-0.311767578125,-0.034423828125,0.94317626953125
1631018775554,-0.3084716796875,-0.03082275390625,0.941650390625
1631018775577,-0.30657958984375,-0.02972412109375,0.94384765625
1631018775578,-0.30755615234375,-0.0299072265625,0.94287109375
1631018775578,-0.30560302734375,-0.03265380859375,0.9447021484375
1631018775622,-0.3077392578125,-0.0316162109375,0.9447021484375
1631018775623,-0.306884765625,-0.03216552734375,0.9456787109375
1631018775625,-0.30859375,-0.03155517578125,0.94775390625
1631018775684,-0.306884765625,-0.03424072265625,0.9461669921875
1631018775685,-0.309326171875,-0.0338134765625,0.94732666015625
1631018775687,-0.30657958984375,-0.03717041015625,0.942626953125
1631018775727,-0.30999755859375,-0.0380859375,0.93890380859375
1631018775729,-0.3101806640625,-0.0384521484375,0.93890380859375
1631018775729,-0.30657958984375,-0.0311279296875,0.94049072265625
1631018775814,-0.3070068359375,-0.03155517578125,0.94183349609375
1631018775815,-0.31005859375,-0.03228759765625,0.940673828125
1631018775817,-0.30743408203125,-0.0252685546875,0.94171142578125
1631018775885,-0.30682373046875,-0.02606201171875,0.94049072265625
1631018775886,-0.30572509765625,-0.0301513671875,0.93975830078125
1631018775887,-0.30712890625,-0.03216552734375,0.9395751953125
1631018775937,-0.314453125,-0.03790283203125,0.93841552734375
1631018775938,-0.31329345703125,-0.0386962890625,0.942626953125
1631018775938,-0.3077392578125,-0.0361328125,0.9356689453125
1631018775989,-0.3099365234375,-0.039306640625,0.940185546875
1631018775989,-0.3101806640625,-0.03314208984375,0.93927001953125
1631018775989,-0.31085205078125,-0.03515625,0.93682861328125
1631018776041,-0.31011962890625,-0.03363037109375,0.94293212890625
1631018776041,-0.30914306640625,-0.0294189453125,0.94512939453125
1631018776041,-0.311767578125,-0.0350341796875,0.93719482421875
1631018776217,-0.3060302734375,-0.03045654296875,0.94580078125
1631018776218,-0.30877685546875,-0.0274658203125,0.946044921875
1631018776218,-0.308349609375,-0.0274658203125,0.9486083984375
1631018776222,-0.308837890625,-0.030517578125,0.944580078125
1631018776222,-0.31146240234375,-0.0357666015625,0.94464111328125
1631018776222,-0.3104248046875,-0.03369140625,0.9461669921875
1631018776253,-0.3111572265625,-0.037109375,0.93829345703125
1631018776253,-0.31048583984375,-0.03143310546875,0.9364013671875
1631018776253,-0.30810546875,-0.03497314453125,0.93682861328125
1631018776269,-0.31524658203125,-0.0291748046875,0.9345703125
1631018776269,-0.3131103515625,-0.0289306640625,0.93585205078125
1631018776284,-0.31011962890625,-0.03082275390625,0.9378662109375
1631018776347,-0.310302734375,-0.03204345703125,0.94195556640625
1631018776347,-0.30926513671875,-0.0350341796875,0.9383544921875
1631018776409,-0.30908203125,-0.03509521484375,0.93780517578125
1631018776409,-0.3104248046875,-0.03155517578125,0.94134521484375
1631018776409,-0.30780029296875,-0.03533935546875,0.93817138671875
1631018776456,-0.30572509765625,-0.03509521484375,0.945556640625
1631018776456,-0.3082275390625,-0.03271484375,0.9464111328125
1631018776456,-0.3087158203125,-0.0350341796875,0.9439697265625
1631018776519,-0.31195068359375,-0.037841796875,0.9434814453125
1631018776519,-0.31011962890625,-0.033935546875,0.946533203125
1631018776519,-0.30755615234375,-0.03338623046875,0.94561767578125
1631018776581,-0.3101806640625,-0.03704833984375,0.936767578125
1631018776581,-0.310791015625,-0.0240478515625,0.9342041015625
1631018776581,-0.30706787109375,-0.03643798828125,0.9312744140625
1631018776642,-0.31207275390625,-0.023681640625,0.93548583984375
1631018776642,-0.3055419921875,-0.02642822265625,0.9466552734375
1631018776642,-0.30712890625,-0.02435302734375,0.940673828125
1631018776689,-0.30450439453125,-0.0274658203125,0.94671630859375
1631018776689,-0.30731201171875,-0.0333251953125,0.9456787109375
1631018776689,-0.30487060546875,-0.02984619140625,0.94390869140625
1631018776767,-0.30804443359375,-0.0347900390625,0.9468994140625
1631018776767,-0.3076171875,-0.0372314453125,0.9434814453125
1631018776767,-0.30865478515625,-0.03802490234375,0.94683837890625
1631018776845,-0.3087158203125,-0.0301513671875,0.94537353515625
1631018776860,-0.30889892578125,-0.03082275390625,0.94012451171875
1631018776860,-0.31072998046875,-0.02984619140625,0.9423828125
1631018776876,-0.30755615234375,-0.0283203125,0.940673828125
1631018776876,-0.31134033203125,-0.02813720703125,0.94097900390625
1631018776876,-0.3126220703125,-0.03118896484375,0.94427490234375
1631018776923,-0.3094482421875,-0.03509521484375,0.94195556640625
1631018776923,-0.3125,-0.03558349609375,0.94140625
1631018776923,-0.3135986328125,-0.0296630859375,0.938720703125
1631018776985,-0.31427001953125,-0.03643798828125,0.937744140625
1631018776985,-0.3121337890625,-0.03753662109375,0.9398193359375
1631018776985,-0.3135986328125,-0.03887939453125,0.93670654296875
1631018777048,-0.31146240234375,-0.03802490234375,0.9390869140625
1631018777048,-0.3128662109375,-0.0357666015625,0.941650390625
1631018777048,-0.31341552734375,-0.03802490234375,0.93560791015625
1631018777111,-0.30877685546875,-0.03570556640625,0.93994140625
1631018777111,-0.31170654296875,-0.0350341796875,0.9384765625
1631018777111,-0.309814453125,-0.03253173828125,0.9398193359375
1631018777173,-0.31072998046875,-0.03277587890625,0.94146728515625
1631018777173,-0.307861328125,-0.03619384765625,0.9407958984375
1631018777173,-0.3056640625,-0.03448486328125,0.94293212890625
1631018777251,-0.3045654296875,-0.03961181640625,0.9482421875
1631018777251,-0.30438232421875,-0.03839111328125,0.941162109375
1631018777251,-0.302734375,-0.04058837890625,0.94500732421875
1631018777282,-0.3016357421875,-0.03765869140625,0.94781494140625
1631018777282,-0.30712890625,-0.03253173828125,0.95025634765625
1631018777282,-0.30224609375,-0.0374755859375,0.94830322265625
1631018777329,-0.3067626953125,-0.035400390625,0.94805908203125
1631018777329,-0.30438232421875,-0.03387451171875,0.9393310546875
1631018777329,-0.303466796875,-0.03558349609375,0.942138671875
1631018777376,-0.303955078125,-0.031005859375,0.9420166015625
1631018777376,-0.30755615234375,-0.03082275390625,0.939697265625
1631018777376,-0.30657958984375,-0.029052734375,0.9407958984375
1631018777503,-0.305908203125,-0.02740478515625,0.94482421875
1631018777503,-0.3072509765625,-0.02703857421875,0.942138671875
1631018777503,-0.306396484375,-0.02752685546875,0.943359375
1631018777518,-0.30859375,-0.03045654296875,0.9415283203125
1631018777518,-0.306640625,-0.03271484375,0.94085693359375
1631018777534,-0.30877685546875,-0.03631591796875,0.94036865234375
1631018777565,-0.3115234375,-0.03729248046875,0.9461669921875
1631018777565,-0.31524658203125,-0.0380859375,0.937255859375
1631018777565,-0.31365966796875,-0.03875732421875,0.9395751953125
1631018777669,-0.31414794921875,-0.036376953125,0.93939208984375
1631018777669,-0.31243896484375,-0.03546142578125,0.9378662109375
1631018777669,-0.315185546875,-0.03668212890625,0.936279296875
1631018777701,-0.3123779296875,-0.03277587890625,0.94146728515625
1631018777701,-0.3140869140625,-0.0308837890625,0.945068359375
1631018777701,-0.31024169921875,-0.03277587890625,0.94207763671875
1631018777763,-0.31268310546875,-0.037841796875,0.94183349609375
1631018777763,-0.3118896484375,-0.0382080078125,0.941162109375
1631018777794,-0.313232421875,-0.04052734375,0.93865966796875
1631018777794,-0.31573486328125,-0.03607177734375,0.93695068359375
1631018777810,-0.31707763671875,-0.0396728515625,0.93743896484375
1631018777883,-0.31146240234375,-0.0364990234375,0.9368896484375
1631018777884,-0.31597900390625,-0.03485107421875,0.931396484375
1631018777884,-0.31536865234375,-0.0396728515625,0.93048095703125
1631018777989,-0.3134765625,-0.036376953125,0.9307861328125
1631018777990,-0.3134765625,-0.03619384765625,0.93292236328125
1631018777991,-0.3101806640625,-0.03155517578125,0.94091796875
1631018778016,-0.30609130859375,-0.03143310546875,0.94561767578125
1631018778016,-0.30499267578125,-0.03509521484375,0.94976806640625
1631018778017,-0.30181884765625,-0.03167724609375,0.95245361328125
1631018778081,-0.2996826171875,-0.03485107421875,0.9520263671875
1631018778083,-0.30078125,-0.03363037109375,0.95318603515625
1631018778084,-0.30224609375,-0.0399169921875,0.953369140625
1631018778119,-0.3021240234375,-0.04193115234375,0.9451904296875
1631018778119,-0.30218505859375,-0.03887939453125,0.94537353515625
1631018778120,-0.30450439453125,-0.03076171875,0.93963623046875
1631018778186,-0.30316162109375,-0.0325927734375,0.943359375
1631018778186,-0.30194091796875,-0.0303955078125,0.94390869140625
1631018778248,-0.30535888671875,-0.03125,0.939208984375
1631018778248,-0.3031005859375,-0.02728271484375,0.93927001953125
1631018778248,-0.3017578125,-0.0272216796875,0.93975830078125
1631018778279,-0.30633544921875,-0.0322265625,0.93963623046875
1631018778279,-0.30340576171875,-0.03082275390625,0.9537353515625
1631018778279,-0.3028564453125,-0.03265380859375,0.94537353515625
1631018778373,-0.30438232421875,-0.0328369140625,0.95294189453125
1631018778373,-0.30218505859375,-0.030029296875,0.9486083984375
1631018778373,-0.30206298828125,-0.0328369140625,0.94793701171875
1631018778389,-0.30194091796875,-0.0224609375,0.9498291015625
1631018778389,-0.30291748046875,-0.0279541015625,0.94659423828125
1631018778389,-0.306396484375,-0.02734375,0.94818115234375
1631018778459,-0.30322265625,-0.02276611328125,0.9462890625
1631018778461,-0.3060302734375,-0.02593994140625,0.9483642578125
1631018778462,-0.3076171875,-0.02655029296875,0.94403076171875
1631018778546,-0.3057861328125,-0.0299072265625,0.93572998046875
1631018778546,-0.30706787109375,-0.0291748046875,0.939697265625
1631018778546,-0.30694580078125,-0.0333251953125,0.933349609375
1631018778608,-0.31121826171875,-0.03472900390625,0.937255859375
1631018778608,-0.31402587890625,-0.0362548828125,0.934814453125
1631018778608,-0.311767578125,-0.0333251953125,0.93463134765625
1631018778655,-0.3084716796875,-0.03326416015625,0.93780517578125
1631018778655,-0.30352783203125,-0.03076171875,0.93890380859375
1631018778655,-0.30413818359375,-0.03265380859375,0.94134521484375
1631018778671,-0.302490234375,-0.030029296875,0.94464111328125
1631018778671,-0.30224609375,-0.0316162109375,0.9466552734375
1631018778671,-0.300048828125,-0.0279541015625,0.95068359375
1631018778780,-0.30450439453125,-0.02691650390625,0.949462890625
1631018778780,-0.30181884765625,-0.02911376953125,0.952880859375
1631018778780,-0.3057861328125,-0.030029296875,0.95050048828125
1631018778843,-0.304931640625,-0.02496337890625,0.940673828125
1631018778843,-0.3077392578125,-0.025634765625,0.938720703125
1631018778843,-0.30462646484375,-0.03314208984375,0.94244384765625
1631018778932,-0.30657958984375,-0.0220947265625,0.94287109375
1631018778934,-0.30487060546875,-0.0205078125,0.947265625
1631018778935,-0.3046875,-0.0205078125,0.9437255859375
1631018778949,-0.3033447265625,-0.022705078125,0.9443359375
1631018778950,-0.3035888671875,-0.02716064453125,0.94073486328125
1631018778951,-0.30615234375,-0.0318603515625,0.9422607421875
1631018778981,-0.306396484375,-0.0350341796875,0.94195556640625
1631018778982,-0.30877685546875,-0.0404052734375,0.9437255859375
1631018779095,-0.30889892578125,-0.03289794921875,0.9420166015625
1631018779097,-0.30694580078125,-0.0345458984375,0.9404296875
1631018779098,-0.304931640625,-0.02996826171875,0.940185546875
1631018779127,-0.30926513671875,-0.02752685546875,0.94879150390625
1631018779127,-0.30877685546875,-0.027587890625,0.9461669921875
1631018779127,-0.30865478515625,-0.0283203125,0.94122314453125
1631018779163,-0.30908203125,-0.0233154296875,0.94775390625
1631018779164,-0.3072509765625,-0.02734375,0.9483642578125
1631018779164,-0.30908203125,-0.0257568359375,0.945556640625
1631018779243,-0.3101806640625,-0.02825927734375,0.93731689453125
1631018779243,-0.31005859375,-0.0279541015625,0.9420166015625
1631018779244,-0.31195068359375,-0.02850341796875,0.93280029296875
1631018779323,-0.31219482421875,-0.02996826171875,0.93060302734375
1631018779325,-0.31085205078125,-0.029296875,0.932861328125
1631018779326,-0.31036376953125,-0.02911376953125,0.9376220703125
1631018779339,-0.307861328125,-0.0260009765625,0.94036865234375
1631018779339,-0.3096923828125,-0.0284423828125,0.9390869140625
1631018779339,-0.30816650390625,-0.02972412109375,0.9378662109375
1631018779402,-0.30352783203125,-0.0272216796875,0.94097900390625
1631018779402,-0.30072021484375,-0.0286865234375,0.94873046875
1631018779402,-0.30267333984375,-0.03033447265625,0.94610595703125
1631018779463,-0.3004150390625,-0.02880859375,0.95367431640625
1631018779465,-0.30560302734375,-0.0299072265625,0.952392578125
1631018779465,-0.29974365234375,-0.025390625,0.9521484375
1631018779529,-0.3037109375,-0.032470703125,0.94317626953125
1631018779529,-0.3016357421875,-0.032958984375,0.94500732421875
1631018779529,-0.30340576171875,-0.025146484375,0.9398193359375
1631018779592,-0.3037109375,-0.026611328125,0.9451904296875
1631018779592,-0.3026123046875,-0.0224609375,0.94293212890625
1631018779592,-0.3057861328125,-0.025634765625,0.941650390625
1631018779638,-0.3050537109375,-0.02764892578125,0.94293212890625
1631018779638,-0.307373046875,-0.03582763671875,0.9444580078125
1631018779638,-0.3060302734375,-0.0291748046875,0.94415283203125
1631018779701,-0.31109619140625,-0.03399658203125,0.93951416015625
1631018779701,-0.30712890625,-0.0341796875,0.93914794921875
1631018779701,-0.3082275390625,-0.0386962890625,0.9405517578125
1631018779804,-0.30865478515625,-0.031982421875,0.9375
1631018779804,-0.30853271484375,-0.024658203125,0.94415283203125
1631018779804,-0.3057861328125,-0.02484130859375,0.94775390625
1631018779804,-0.3070068359375,-0.02606201171875,0.9434814453125
1631018779804,-0.30877685546875,-0.02813720703125,0.93804931640625
1631018779804,-0.3096923828125,-0.02886962890625,0.93817138671875
1631018779882,-0.3095703125,-0.0255126953125,0.94720458984375
1631018779882,-0.30572509765625,-0.023681640625,0.94476318359375
1631018779882,-0.306884765625,-0.0255126953125,0.94512939453125
1631018779929,-0.3099365234375,-0.02813720703125,0.94012451171875
1631018779929,-0.3084716796875,-0.028564453125,0.94329833984375
1631018779929,-0.30413818359375,-0.02850341796875,0.94580078125
1631018780023,-0.3121337890625,-0.029296875,0.93951416015625
1631018780039,-0.31146240234375,-0.03411865234375,0.9412841796875
1631018780039,-0.30755615234375,-0.02880859375,0.93804931640625
1631018780054,-0.31024169921875,-0.031494140625,0.93603515625
1631018780054,-0.3089599609375,-0.0311279296875,0.94134521484375
1631018780054,-0.308349609375,-0.031494140625,0.94140625
1631018780101,-0.30340576171875,-0.0306396484375,0.94140625
1631018780101,-0.30255126953125,-0.02978515625,0.944580078125
1631018780101,-0.30377197265625,-0.0321044921875,0.94293212890625
1631018780148,-0.30865478515625,-0.0377197265625,0.94720458984375
1631018780148,-0.30389404296875,-0.03564453125,0.94476318359375
1631018780148,-0.305908203125,-0.0323486328125,0.94891357421875
1631018780226,-0.3040771484375,-0.02801513671875,0.944580078125
1631018780226,-0.30816650390625,-0.0379638671875,0.94195556640625
1631018780226,-0.30645751953125,-0.0345458984375,0.943115234375
1631018780289,-0.3037109375,-0.025390625,0.943603515625
1631018780289,-0.30145263671875,-0.025634765625,0.94561767578125
1631018780351,-0.3009033203125,-0.02325439453125,0.9473876953125
1631018780351,-0.30419921875,-0.02435302734375,0.9456787109375
1631018780351,-0.30413818359375,-0.031494140625,0.94769287109375
1631018780445,-0.3040771484375,-0.0316162109375,0.943115234375
1631018780446,-0.3056640625,-0.03265380859375,0.9385986328125
1631018780446,-0.30908203125,-0.03570556640625,0.94390869140625
1631018780478,-0.3116455078125,-0.03497314453125,0.94073486328125
1631018780478,-0.3095703125,-0.0386962890625,0.9376220703125
1631018780478,-0.31494140625,-0.0330810546875,0.93408203125
1631018780510,-0.3104248046875,-0.0294189453125,0.94097900390625
1631018780510,-0.307373046875,-0.03131103515625,0.93377685546875
1631018780510,-0.31072998046875,-0.0294189453125,0.93670654296875
1631018780572,-0.308837890625,-0.0284423828125,0.943359375
1631018780572,-0.3089599609375,-0.03021240234375,0.94390869140625
1631018780572,-0.30841064453125,-0.03387451171875,0.95001220703125
1631018780647,-0.30914306640625,-0.0350341796875,0.9462890625
1631018780647,-0.30816650390625,-0.0377197265625,0.94390869140625
1631018780647,-0.31268310546875,-0.03680419921875,0.93951416015625
1631018780725,-0.31463623046875,-0.0341796875,0.93731689453125
1631018780725,-0.3133544921875,-0.03399658203125,0.9371337890625
1631018780725,-0.3092041015625,-0.0361328125,0.939208984375
1631018780740,-0.31121826171875,-0.0323486328125,0.93695068359375
1631018780740,-0.31207275390625,-0.0313720703125,0.936279296875
1631018780740,-0.30999755859375,-0.03265380859375,0.93975830078125
1631018780803,-0.31109619140625,-0.03118896484375,0.9410400390625
1631018780803,-0.30523681640625,-0.0318603515625,0.94140625
1631018780803,-0.30596923828125,-0.03497314453125,0.93975830078125
1631018780897,-0.30908203125,-0.0302734375,0.94219970703125
1631018780897,-0.30517578125,-0.02740478515625,0.94451904296875
1631018780897,-0.30596923828125,-0.030517578125,0.9449462890625
1631018780928,-0.3094482421875,-0.03338623046875,0.9534912109375
1631018780928,-0.30743408203125,-0.040283203125,0.9481201171875
1631018781006,-0.31048583984375,-0.0318603515625,0.939697265625
1631018781006,-0.30902099609375,-0.036865234375,0.9427490234375
1631018781006,-0.30877685546875,-0.02642822265625,0.9398193359375
1631018781037,-0.307373046875,-0.02008056640625,0.94207763671875
1631018781037,-0.3089599609375,-0.02508544921875,0.9405517578125
1631018781053,-0.3099365234375,-0.0233154296875,0.94158935546875
1631018781100,-0.30810546875,-0.02459716796875,0.93896484375
1631018781100,-0.3111572265625,-0.02642822265625,0.9398193359375
1631018781100,-0.30950927734375,-0.0345458984375,0.9444580078125
1631018781178,-0.31365966796875,-0.03558349609375,0.94097900390625
1631018781178,-0.3094482421875,-0.03399658203125,0.937255859375
1631018781193,-0.3125,-0.034912109375,0.93316650390625
1631018781240,-0.311279296875,-0.0372314453125,0.93499755859375
1631018781240,-0.31536865234375,-0.03717041015625,0.937744140625
1631018781240,-0.3104248046875,-0.0318603515625,0.93994140625
1631018781287,-0.30706787109375,-0.0279541015625,0.94561767578125
1631018781287,-0.31427001953125,-0.02978515625,0.94647216796875
1631018781287,-0.30950927734375,-0.0302734375,0.9420166015625
1631018781334,-0.30755615234375,-0.02813720703125,0.9466552734375
1631018781334,-0.30908203125,-0.02978515625,0.94500732421875
1631018781334,-0.31195068359375,-0.031982421875,0.94427490234375
1631018781428,-0.31195068359375,-0.03277587890625,0.9378662109375
1631018781443,-0.3140869140625,-0.0333251953125,0.93804931640625
1631018781447,-0.31732177734375,-0.0306396484375,0.93646240234375
1631018781462,-0.31732177734375,-0.0267333984375,0.94134521484375
1631018781462,-0.31402587890625,-0.0291748046875,0.93682861328125
1631018781462,-0.31298828125,-0.023193359375,0.9388427734375
1631018781509,-0.30908203125,-0.02716064453125,0.93426513671875
1631018781509,-0.31134033203125,-0.030029296875,0.9388427734375
1631018781587,-0.30963134765625,-0.034912109375,0.9443359375
1631018781587,-0.3060302734375,-0.03851318359375,0.94390869140625
1631018781681,-0.30828857421875,-0.02960205078125,0.94000244140625
1631018781681,-0.31134033203125,-0.024169921875,0.94573974609375
1631018781681,-0.30645751953125,-0.02093505859375,0.94793701171875
1631018781728,-0.31243896484375,-0.02996826171875,0.94219970703125
1631018781728,-0.305908203125,-0.0367431640625,0.94024658203125
1631018781728,-0.3074951171875,-0.03564453125,0.9425048828125
1631018781759,-0.30670166015625,-0.03369140625,0.94049072265625
1631018781759,-0.30621337890625,-0.03790283203125,0.943115234375
1631018781759,-0.3043212890625,-0.03759765625,0.94329833984375
1631018781853,-0.303466796875,-0.032470703125,0.94342041015625
1631018781853,-0.3028564453125,-0.0301513671875,0.94708251953125
1631018781853,-0.30462646484375,-0.03424072265625,0.94708251953125
1631018781884,-0.31005859375,-0.03558349609375,0.94281005859375
1631018781884,-0.3106689453125,-0.032470703125,0.937255859375
1631018781884,-0.31561279296875,-0.0289306640625,0.94000244140625
1631018781977,-0.3143310546875,-0.03289794921875,0.93316650390625
1631018781977,-0.31317138671875,-0.03363037109375,0.93341064453125
1631018781977,-0.31878662109375,-0.03582763671875,0.93402099609375
1631018781993,-0.31427001953125,-0.03350830078125,0.933837890625
1631018781993,-0.3133544921875,-0.0330810546875,0.93402099609375
1631018781993,-0.310546875,-0.025634765625,0.93963623046875
1631018782087,-0.3057861328125,-0.0299072265625,0.948486328125
1631018782087,-0.30743408203125,-0.02935791015625,0.94964599609375
1631018782087,-0.31072998046875,-0.02874755859375,0.9449462890625
1631018782134,-0.3076171875,-0.03118896484375,0.9456787109375
1631018782134,-0.30621337890625,-0.03070068359375,0.9407958984375
1631018782134,-0.31048583984375,-0.03173828125,0.94683837890625
1631018782149,-0.30926513671875,-0.03155517578125,0.943359375
1631018782165,-0.30780029296875,-0.0294189453125,0.94158935546875
1631018782165,-0.309326171875,-0.02716064453125,0.9404296875
1631018782259,-0.311279296875,-0.0205078125,0.93603515625
1631018782259,-0.308837890625,-0.02471923828125,0.9405517578125
1631018782259,-0.30877685546875,-0.024169921875,0.9365234375
1631018782290,-0.311279296875,-0.0211181640625,0.93682861328125
1631018782290,-0.3135986328125,-0.02734375,0.94012451171875
1631018782290,-0.3070068359375,-0.02685546875,0.94415283203125
1631018782368,-0.307861328125,-0.0302734375,0.94488525390625
1631018782368,-0.307373046875,-0.03424072265625,0.9466552734375
1631018782368,-0.3031005859375,-0.03460693359375,0.94464111328125
1631018782399,-0.3111572265625,-0.03515625,0.94586181640625
1631018782399,-0.31036376953125,-0.0426025390625,0.94146728515625
1631018782399,-0.308349609375,-0.03765869140625,0.9443359375
1631018782495,-0.309814453125,-0.04150390625,0.9366455078125
1631018782495,-0.31195068359375,-0.03619384765625,0.9385986328125
1631018782495,-0.3087158203125,-0.03564453125,0.93701171875
1631018782542,-0.30438232421875,-0.03173828125,0.94268798828125
1631018782542,-0.3065185546875,-0.0284423828125,0.9439697265625
1631018782542,-0.30712890625,-0.0360107421875,0.9423828125
1631018782573,-0.30682373046875,-0.0294189453125,0.94732666015625
1631018782573,-0.308837890625,-0.03271484375,0.9412841796875
1631018782573,-0.31011962890625,-0.03564453125,0.941162109375
1631018782667,-0.30853271484375,-0.03533935546875,0.9442138671875
1631018782667,-0.3096923828125,-0.036376953125,0.94342041015625
1631018782667,-0.30517578125,-0.0394287109375,0.94683837890625
1631018782714,-0.3096923828125,-0.0394287109375,0.94219970703125
1631018782714,-0.311767578125,-0.03228759765625,0.938232421875
1631018782714,-0.31512451171875,-0.02972412109375,0.9384765625
1631018782776,-0.3128662109375,-0.02984619140625,0.93896484375
1631018782792,-0.31683349609375,-0.02813720703125,0.9434814453125
1631018782792,-0.3172607421875,-0.032958984375,0.942626953125
1631018782823,-0.31219482421875,-0.029296875,0.94378662109375
1631018782823,-0.316162109375,-0.02984619140625,0.94207763671875
1631018782823,-0.31256103515625,-0.02777099609375,0.939697265625
1631018782870,-0.31402587890625,-0.0350341796875,0.935302734375
1631018782870,-0.3143310546875,-0.03387451171875,0.9407958984375
1631018782870,-0.31842041015625,-0.033447265625,0.94024658203125
1631018782949,-0.3177490234375,-0.0350341796875,0.93463134765625
1631018782949,-0.313232421875,-0.03192138671875,0.9327392578125
1631018782949,-0.3160400390625,-0.03619384765625,0.93310546875
1631018782980,-0.3170166015625,-0.0361328125,0.9354248046875
1631018782980,-0.31817626953125,-0.03515625,0.93597412109375
1631018782980,-0.31353759765625,-0.0318603515625,0.93621826171875
1631018783042,-0.31768798828125,-0.03277587890625,0.941650390625
1631018783042,-0.31536865234375,-0.03125,0.938720703125
1631018783042,-0.31256103515625,-0.03741455078125,0.94024658203125
1631018783093,-0.30889892578125,-0.0335693359375,0.94256591796875
1631018783093,-0.31622314453125,-0.03515625,0.9454345703125
1631018783093,-0.3089599609375,-0.0343017578125,0.94256591796875
1631018783155,-0.31005859375,-0.0399169921875,0.9415283203125
1631018783155,-0.31414794921875,-0.03253173828125,0.935546875
1631018783155,-0.3128662109375,-0.039794921875,0.93536376953125
1631018783249,-0.3121337890625,-0.02752685546875,0.9444580078125
1631018783249,-0.31158447265625,-0.0318603515625,0.93792724609375
1631018783249,-0.3114013671875,-0.02740478515625,0.945068359375
1631018783296,-0.31292724609375,-0.03271484375,0.93994140625
1631018783296,-0.3099365234375,-0.028076171875,0.9459228515625
1631018783296,-0.30841064453125,-0.02874755859375,0.942138671875
1631018783358,-0.3143310546875,-0.03118896484375,0.9407958984375
1631018783358,-0.31695556640625,-0.03643798828125,0.93511962890625
1631018783358,-0.31658935546875,-0.0362548828125,0.93359375
1631018783422,-0.31689453125,-0.03643798828125,0.935791015625
1631018783422,-0.317138671875,-0.03424072265625,0.9337158203125
1631018783422,-0.31695556640625,-0.03680419921875,0.93316650390625
1631018783487,-0.31024169921875,-0.0323486328125,0.9364013671875
1631018783487,-0.31707763671875,-0.03082275390625,0.93927001953125
1631018783549,-0.31195068359375,-0.0330810546875,0.94805908203125
1631018783549,-0.3109130859375,-0.03033447265625,0.94598388671875
1631018783565,-0.3109130859375,-0.03265380859375,0.94488525390625
1631018783581,-0.31298828125,-0.0338134765625,0.94366455078125
1631018783581,-0.31268310546875,-0.03216552734375,0.9425048828125
1631018783581,-0.3173828125,-0.0325927734375,0.94244384765625
1631018783659,-0.31640625,-0.03228759765625,0.93743896484375
1631018783659,-0.31341552734375,-0.032470703125,0.93585205078125
1631018783659,-0.318359375,-0.03289794921875,0.93572998046875
1631018783690,-0.31927490234375,-0.0301513671875,0.93487548828125
1631018783690,-0.31622314453125,-0.031982421875,0.92974853515625
1631018783690,-0.32025146484375,-0.02899169921875,0.93218994140625
1631018783752,-0.32025146484375,-0.0316162109375,0.92767333984375
1631018783752,-0.315185546875,-0.0338134765625,0.9359130859375
1631018783752,-0.3179931640625,-0.0340576171875,0.93157958984375
1631018783831,-0.31329345703125,-0.03338623046875,0.944580078125
1631018783831,-0.31829833984375,-0.0325927734375,0.93988037109375
1631018783831,-0.31561279296875,-0.037353515625,0.94012451171875
1631018783940,-0.3125,-0.043701171875,0.94024658203125
1631018783940,-0.31292724609375,-0.0367431640625,0.9468994140625
1631018783940,-0.31427001953125,-0.0355224609375,0.94586181640625
1631018783987,-0.31610107421875,-0.036376953125,0.93603515625
1631018783987,-0.3128662109375,-0.0279541015625,0.9398193359375
1631018783987,-0.31146240234375,-0.03619384765625,0.93389892578125
1631018784002,-0.307861328125,-0.023681640625,0.94158935546875
1631018784002,-0.3094482421875,-0.029052734375,0.94488525390625
1631018784002,-0.30975341796875,-0.02349853515625,0.9490966796875
1631018784049,-0.31524658203125,-0.027587890625,0.94146728515625
1631018784049,-0.3116455078125,-0.03436279296875,0.943115234375
1631018784049,-0.31158447265625,-0.02545166015625,0.93988037109375
1631018784112,-0.3138427734375,-0.03253173828125,0.93927001953125
1631018784112,-0.3160400390625,-0.0338134765625,0.93963623046875
1631018784112,-0.31304931640625,-0.0302734375,0.93572998046875
1631018784174,-0.3162841796875,-0.03326416015625,0.93658447265625
1631018784174,-0.3172607421875,-0.0341796875,0.93536376953125
1631018784174,-0.312744140625,-0.03619384765625,0.93572998046875
1631018784237,-0.31280517578125,-0.0318603515625,0.9420166015625
1631018784237,-0.3148193359375,-0.03228759765625,0.9407958984375
1631018784237,-0.313720703125,-0.03240966796875,0.94085693359375
1631018784299,-0.31304931640625,-0.029296875,0.93914794921875
1631018784299,-0.31292724609375,-0.03192138671875,0.94305419921875
1631018784346,-0.31622314453125,-0.0316162109375,0.93743896484375
1631018784346,-0.3167724609375,-0.03131103515625,0.93670654296875
1631018784346,-0.3165283203125,-0.0318603515625,0.937744140625
1631018784424,-0.3150634765625,-0.035888671875,0.9346923828125
1631018784424,-0.3165283203125,-0.031005859375,0.933349609375
1631018784424,-0.3150634765625,-0.0338134765625,0.93695068359375
1631018784471,-0.31817626953125,-0.03497314453125,0.93878173828125
1631018784487,-0.314208984375,-0.03375244140625,0.94012451171875
1631018784487,-0.31353759765625,-0.0379638671875,0.9384765625
1631018784549,-0.31182861328125,-0.0347900390625,0.94000244140625
1631018784549,-0.30963134765625,-0.03546142578125,0.9404296875
1631018784549,-0.3126220703125,-0.036376953125,0.939697265625
1631018784580,-0.3115234375,-0.03643798828125,0.94818115234375
1631018784580,-0.31329345703125,-0.0325927734375,0.948974609375
1631018784580,-0.3096923828125,-0.0379638671875,0.9459228515625
1631018784643,-0.31024169921875,-0.0284423828125,0.937255859375
1631018784643,-0.31072998046875,-0.03265380859375,0.9368896484375
1631018784643,-0.3125,-0.0361328125,0.94573974609375
1631018784706,-0.309814453125,-0.02545166015625,0.94293212890625
1631018784706,-0.3131103515625,-0.02398681640625,0.94580078125
1631018784706,-0.31353759765625,-0.02294921875,0.943603515625
1631018784768,-0.3109130859375,-0.021484375,0.94287109375
1631018784768,-0.3126220703125,-0.02984619140625,0.9420166015625
1631018784768,-0.31011962890625,-0.0196533203125,0.9388427734375
1631018784815,-0.3125,-0.030517578125,0.9403076171875
1631018784815,-0.31396484375,-0.03173828125,0.93939208984375
1631018784815,-0.318115234375,-0.035400390625,0.93994140625
1631018784893,-0.31414794921875,-0.0347900390625,0.9359130859375
1631018784893,-0.31982421875,-0.03607177734375,0.93719482421875
1631018784908,-0.31304931640625,-0.03387451171875,0.93603515625
1631018784924,-0.3154296875,-0.03021240234375,0.94110107421875
1631018784924,-0.318115234375,-0.028564453125,0.93798828125
1631018784924,-0.31488037109375,-0.02886962890625,0.9365234375
1631018785002,-0.31707763671875,-0.0341796875,0.940185546875
1631018785002,-0.31512451171875,-0.03045654296875,0.9432373046875
1631018785065,-0.31671142578125,-0.03814697265625,0.942138671875
1631018785065,-0.315673828125,-0.037109375,0.93890380859375
1631018785065,-0.3189697265625,-0.03912353515625,0.9384765625
1631018785127,-0.31524658203125,-0.03656005859375,0.9356689453125
1631018785127,-0.31927490234375,-0.03497314453125,0.936767578125
1631018785127,-0.3197021484375,-0.03515625,0.937744140625
1631018785174,-0.318359375,-0.03326416015625,0.93695068359375
1631018785174,-0.3145751953125,-0.03228759765625,0.93878173828125
1631018785174,-0.31536865234375,-0.0350341796875,0.9359130859375
1631018785236,-0.31781005859375,-0.030517578125,0.93902587890625
1631018785236,-0.3194580078125,-0.03192138671875,0.93756103515625
1631018785236,-0.3145751953125,-0.03302001953125,0.93536376953125
1631018785299,-0.3150634765625,-0.03155517578125,0.94464111328125
1631018785299,-0.31536865234375,-0.03253173828125,0.94195556640625
1631018785299,-0.3138427734375,-0.03314208984375,0.94122314453125
1631018785346,-0.315185546875,-0.03521728515625,0.9464111328125
1631018785346,-0.31353759765625,-0.03472900390625,0.94110107421875
1631018785346,-0.31390380859375,-0.03564453125,0.93731689453125
1631018785393,-0.31243896484375,-0.030517578125,0.94219970703125
1631018785393,-0.31463623046875,-0.0279541015625,0.94293212890625
1631018785393,-0.31365966796875,-0.0325927734375,0.93829345703125
1631018785502,-0.3131103515625,-0.02899169921875,0.9398193359375
1631018785502,-0.31036376953125,-0.025146484375,0.9429931640625
1631018785502,-0.31304931640625,-0.02783203125,0.9439697265625
1631018785518,-0.3155517578125,-0.03118896484375,0.93731689453125
1631018785518,-0.31561279296875,-0.03790283203125,0.93487548828125
1631018785518,-0.31622314453125,-0.03533935546875,0.94183349609375
1631018785596,-0.31695556640625,-0.04022216796875,0.93548583984375
1631018785596,-0.31988525390625,-0.038330078125,0.93524169921875
1631018785596,-0.317626953125,-0.03924560546875,0.93994140625
1631018785643,-0.32000732421875,-0.0360107421875,0.93670654296875
1631018785643,-0.31781005859375,-0.03424072265625,0.93841552734375
1631018785643,-0.3184814453125,-0.0313720703125,0.9393310546875
1631018785736,-0.31756591796875,-0.0294189453125,0.94415283203125
1631018785736,-0.318115234375,-0.03143310546875,0.9415283203125
1631018785736,-0.3134765625,-0.0316162109375,0.9361572265625
1631018785768,-0.3148193359375,-0.0316162109375,0.939208984375
1631018785768,-0.31475830078125,-0.03277587890625,0.942626953125
1631018785768,-0.31781005859375,-0.03399658203125,0.93743896484375
1631018785830,-0.31829833984375,-0.03424072265625,0.93414306640625
1631018785830,-0.31915283203125,-0.03277587890625,0.93304443359375
1631018785830,-0.321044921875,-0.03289794921875,0.932861328125
1631018785908,-0.31353759765625,-0.03216552734375,0.93609619140625
1631018785908,-0.3206787109375,-0.03515625,0.93560791015625
1631018785908,-0.3194580078125,-0.034912109375,0.935546875
1631018785955,-0.31500244140625,-0.0330810546875,0.9422607421875
1631018785955,-0.316650390625,-0.034912109375,0.94451904296875
1631018785955,-0.3179931640625,-0.0357666015625,0.9434814453125
1631018786018,-0.315185546875,-0.0350341796875,0.9393310546875
1631018786018,-0.32012939453125,-0.0328369140625,0.9407958984375
1631018786018,-0.31341552734375,-0.03326416015625,0.9404296875
1631018786049,-0.31903076171875,-0.03875732421875,0.93603515625
1631018786049,-0.31683349609375,-0.03424072265625,0.94415283203125
1631018786049,-0.314453125,-0.03753662109375,0.93212890625
1631018786127,-0.31982421875,-0.02874755859375,0.9310302734375
1631018786142,-0.31353759765625,-0.0252685546875,0.9376220703125
1631018786142,-0.3175048828125,-0.0263671875,0.93511962890625
1631018786174,-0.3134765625,-0.026123046875,0.94140625
1631018786174,-0.31463623046875,-0.02947998046875,0.94281005859375
1631018786174,-0.310302734375,-0.024658203125,0.94354248046875
1631018786236,-0.31695556640625,-0.03680419921875,0.94537353515625
1631018786236,-0.31207275390625,-0.03045654296875,0.94384765625
1631018786236,-0.3126220703125,-0.0333251953125,0.9432373046875
1631018786299,-0.31396484375,-0.03466796875,0.93963623046875
1631018786299,-0.31451416015625,-0.03399658203125,0.93548583984375
1631018786299,-0.31561279296875,-0.03363037109375,0.94342041015625
1631018786361,-0.31695556640625,-0.0284423828125,0.93878173828125
1631018786361,-0.3162841796875,-0.029052734375,0.93572998046875
1631018786361,-0.313720703125,-0.02642822265625,0.93695068359375
1631018786465,-0.31884765625,-0.02935791015625,0.941162109375
1631018786465,-0.317626953125,-0.02874755859375,0.94390869140625
1631018786466,-0.31768798828125,-0.03204345703125,0.9437255859375
1631018786476,-0.32159423828125,-0.032470703125,0.94000244140625
1631018786476,-0.319580078125,-0.032958984375,0.93572998046875
1631018786476,-0.32373046875,-0.030029296875,0.9345703125
1631018786539,-0.3218994140625,-0.03314208984375,0.93292236328125
1631018786539,-0.322998046875,-0.032470703125,0.9315185546875
1631018786539,-0.32275390625,-0.03338623046875,0.936279296875
1631018786601,-0.321044921875,-0.03204345703125,0.9295654296875
1631018786601,-0.323486328125,-0.0316162109375,0.928466796875
1631018786601,-0.32354736328125,-0.03106689453125,0.93304443359375
1631018786679,-0.3218994140625,-0.03192138671875,0.93621826171875
1631018786679,-0.31927490234375,-0.0377197265625,0.93927001953125
1631018786679,-0.3189697265625,-0.035400390625,0.93487548828125
1631018786742,-0.3172607421875,-0.0338134765625,0.94061279296875
1631018786742,-0.317138671875,-0.0384521484375,0.9443359375
1631018786742,-0.316650390625,-0.03277587890625,0.9425048828125
1631018786758,-0.31787109375,-0.03375244140625,0.9356689453125
1631018786758,-0.3184814453125,-0.03741455078125,0.9410400390625
1631018786758,-0.3173828125,-0.03717041015625,0.936279296875
1631018786867,-0.31793212890625,-0.03277587890625,0.93701171875
1631018786867,-0.31365966796875,-0.02947998046875,0.93902587890625
1631018786867,-0.3131103515625,-0.033203125,0.94012451171875
1631018786898,-0.30889892578125,-0.03033447265625,0.93670654296875
1631018786898,-0.3111572265625,-0.0267333984375,0.93646240234375
1631018786914,-0.31134033203125,-0.03076171875,0.939697265625
1631018786929,-0.31097412109375,-0.03460693359375,0.94342041015625
1631018786929,-0.31591796875,-0.03204345703125,0.94073486328125
1631018786929,-0.31427001953125,-0.0321044921875,0.93865966796875
1631018787023,-0.31707763671875,-0.0361328125,0.941162109375
1631018787023,-0.31396484375,-0.03472900390625,0.93597412109375
1631018787023,-0.31298828125,-0.03509521484375,0.9364013671875
1631018787054,-0.31109619140625,-0.033203125,0.94207763671875
1631018787054,-0.31243896484375,-0.03131103515625,0.9481201171875
1631018787054,-0.31475830078125,-0.03070068359375,0.9412841796875
1631018787117,-0.31573486328125,-0.02880859375,0.94921875
1631018787117,-0.313232421875,-0.0311279296875,0.94232177734375
1631018787117,-0.31182861328125,-0.02801513671875,0.9461669921875
1631018787195,-0.31573486328125,-0.03094482421875,0.93988037109375
1631018787195,-0.316162109375,-0.0308837890625,0.9337158203125
1631018787195,-0.31414794921875,-0.031982421875,0.9390869140625
1631018787226,-0.318115234375,-0.03533935546875,0.9364013671875
1631018787226,-0.319580078125,-0.0340576171875,0.93389892578125
1631018787226,-0.3203125,-0.03497314453125,0.93231201171875
1631018787273,-0.3192138671875,-0.0341796875,0.934814453125
1631018787273,-0.31903076171875,-0.0362548828125,0.9388427734375
1631018787273,-0.317138671875,-0.0350341796875,0.93231201171875
1631018787367,-0.31524658203125,-0.03936767578125,0.94134521484375
1631018787367,-0.3148193359375,-0.03619384765625,0.94219970703125
1631018787367,-0.31640625,-0.03759765625,0.934326171875
1631018787429,-0.31793212890625,-0.04290771484375,0.94232177734375
1631018787429,-0.3154296875,-0.04095458984375,0.9459228515625
1631018787429,-0.31640625,-0.04156494140625,0.9385986328125
1631018787479,-0.3133544921875,-0.0333251953125,0.9346923828125
1631018787479,-0.31390380859375,-0.038818359375,0.93951416015625
1631018787479,-0.3165283203125,-0.04486083984375,0.93487548828125
1631018787542,-0.31500244140625,-0.0294189453125,0.94091796875
1631018787542,-0.3140869140625,-0.028564453125,0.94183349609375
1631018787542,-0.3116455078125,-0.02886962890625,0.94384765625
1631018787604,-0.3134765625,-0.03131103515625,0.94415283203125
1631018787604,-0.31549072265625,-0.03497314453125,0.9434814453125
1631018787604,-0.30877685546875,-0.02685546875,0.942626953125
1631018787667,-0.31536865234375,-0.03369140625,0.93743896484375
1631018787667,-0.31390380859375,-0.0322265625,0.93817138671875
1631018787667,-0.3165283203125,-0.03607177734375,0.93670654296875
1631018787714,-0.31463623046875,-0.038330078125,0.93597412109375
1631018787714,-0.31658935546875,-0.0372314453125,0.93634033203125
1631018787714,-0.31488037109375,-0.03839111328125,0.93426513671875
1631018787761,-0.31427001953125,-0.03607177734375,0.93670654296875
1631018787761,-0.31610107421875,-0.033935546875,0.93658447265625
1631018787776,-0.313232421875,-0.03778076171875,0.94140625
1631018787839,-0.3145751953125,-0.03350830078125,0.94610595703125
1631018787839,-0.31695556640625,-0.03857421875,0.9466552734375
1631018787839,-0.31439208984375,-0.0347900390625,0.95013427734375
1631018787870,-0.31329345703125,-0.03753662109375,0.94305419921875
1631018787870,-0.31494140625,-0.03924560546875,0.93896484375
1631018787870,-0.31378173828125,-0.0406494140625,0.93865966796875
1631018787917,-0.31640625,-0.0374755859375,0.9384765625
1631018787917,-0.31719970703125,-0.0386962890625,0.93798828125
1631018787917,-0.3175048828125,-0.03192138671875,0.93682861328125
1631018787995,-0.31658935546875,-0.0321044921875,0.9344482421875
1631018787995,-0.31597900390625,-0.03607177734375,0.93438720703125
1631018787995,-0.3131103515625,-0.03692626953125,0.93719482421875
1631018788089,-0.31671142578125,-0.03631591796875,0.93487548828125
1631018788104,-0.3157958984375,-0.03564453125,0.93548583984375
1631018788104,-0.3182373046875,-0.04071044921875,0.9388427734375
1631018788135,-0.31365966796875,-0.04364013671875,0.93511962890625
1631018788135,-0.3172607421875,-0.04559326171875,0.93951416015625
1631018788135,-0.31988525390625,-0.03729248046875,0.944091796875
1631018788198,-0.31219482421875,-0.0308837890625,0.938720703125
1631018788198,-0.3134765625,-0.0333251953125,0.9368896484375
1631018788198,-0.3173828125,-0.0400390625,0.93560791015625
1631018788245,-0.31719970703125,-0.0274658203125,0.9427490234375
1631018788245,-0.31024169921875,-0.02783203125,0.944091796875
1631018788307,-0.31646728515625,-0.03448486328125,0.942626953125
1631018788307,-0.3135986328125,-0.038330078125,0.94000244140625
1631018788354,-0.315673828125,-0.0360107421875,0.93939208984375
1631018788354,-0.3172607421875,-0.04168701171875,0.93157958984375
1631018788354,-0.31573486328125,-0.03839111328125,0.942138671875
1631018788401,-0.31842041015625,-0.04315185546875,0.93255615234375
1631018788401,-0.3212890625,-0.03857421875,0.933349609375
1631018788417,-0.318115234375,-0.03582763671875,0.93731689453125
1631018788482,-0.31866455078125,-0.0367431640625,0.93975830078125
1631018788498,-0.3160400390625,-0.0316162109375,0.93994140625
1631018788498,-0.31689453125,-0.03118896484375,0.9376220703125
1631018788529,-0.31768798828125,-0.03680419921875,0.94110107421875
1631018788545,-0.31768798828125,-0.03314208984375,0.9385986328125
1631018788545,-0.31854248046875,-0.0352783203125,0.9373779296875
1631018788607,-0.3143310546875,-0.0321044921875,0.93695068359375
1631018788607,-0.32135009765625,-0.0338134765625,0.937255859375
1631018788670,-0.31402587890625,-0.0345458984375,0.9420166015625
1631018788670,-0.31170654296875,-0.03302001953125,0.93878173828125
1631018788670,-0.3140869140625,-0.03253173828125,0.938720703125
1631018788779,-0.31036376953125,-0.03387451171875,0.93939208984375
1631018788779,-0.31256103515625,-0.03173828125,0.944091796875
1631018788779,-0.3094482421875,-0.03387451171875,0.938232421875
1631018788810,-0.31414794921875,-0.039306640625,0.94427490234375
1631018788810,-0.3135986328125,-0.03863525390625,0.94134521484375
1631018788826,-0.31744384765625,-0.0389404296875,0.94268798828125
1631018788873,-0.3150634765625,-0.0396728515625,0.934326171875
1631018788873,-0.313720703125,-0.032470703125,0.93243408203125
1631018788873,-0.31475830078125,-0.03955078125,0.93231201171875
1631018788904,-0.3118896484375,-0.0279541015625,0.93603515625
1631018788904,-0.3115234375,-0.0244140625,0.94378662109375
1631018788951,-0.31085205078125,-0.03118896484375,0.94085693359375
1631018788951,-0.3096923828125,-0.02532958984375,0.94317626953125
1631018788951,-0.30963134765625,-0.02520751953125,0.9425048828125
1631018789029,-0.31500244140625,-0.0352783203125,0.94366455078125
1631018789029,-0.3123779296875,-0.03466796875,0.93865966796875
1631018789029,-0.3134765625,-0.03948974609375,0.941162109375
1631018789076,-0.31610107421875,-0.03582763671875,0.93572998046875
1631018789076,-0.31378173828125,-0.038330078125,0.9381103515625
1631018789076,-0.31573486328125,-0.0347900390625,0.9364013671875
1631018789140,-0.31317138671875,-0.031494140625,0.93798828125
1631018789141,-0.31951904296875,-0.02935791015625,0.9371337890625
1631018789142,-0.3135986328125,-0.0308837890625,0.9417724609375
1631018789189,-0.31475830078125,-0.02838134765625,0.943603515625
1631018789189,-0.31695556640625,-0.029052734375,0.94122314453125
1631018789189,-0.31512451171875,-0.03179931640625,0.940185546875
1631018789252,-0.3194580078125,-0.02947998046875,0.9373779296875
1631018789252,-0.31640625,-0.03558349609375,0.93499755859375
1631018789252,-0.31732177734375,-0.03338623046875,0.938720703125
1631018789283,-0.314697265625,-0.03546142578125,0.9354248046875
1631018789283,-0.31988525390625,-0.03509521484375,0.940673828125
1631018789361,-0.3162841796875,-0.03424072265625,0.93878173828125
1631018789361,-0.31646728515625,-0.0341796875,0.93701171875
1631018789361,-0.31158447265625,-0.03277587890625,0.940185546875
1631018789424,-0.31121826171875,-0.0367431640625,0.94134521484375
1631018789424,-0.3109130859375,-0.03564453125,0.94049072265625
1631018789474,-0.31329345703125,-0.03759765625,0.94244384765625
1631018789474,-0.3134765625,-0.03656005859375,0.94317626953125
1631018789474,-0.313720703125,-0.03509521484375,0.94427490234375
1631018789536,-0.31182861328125,-0.03643798828125,0.935791015625
1631018789536,-0.3153076171875,-0.03759765625,0.93963623046875
1631018789536,-0.31219482421875,-0.03466796875,0.93621826171875
1631018789599,-0.30804443359375,-0.0318603515625,0.94659423828125
1631018789599,-0.30908203125,-0.0301513671875,0.93896484375
1631018789599,-0.3082275390625,-0.0296630859375,0.94427490234375
1631018789646,-0.31005859375,-0.03045654296875,0.94403076171875
1631018789646,-0.30706787109375,-0.0260009765625,0.94415283203125
1631018789646,-0.3106689453125,-0.02899169921875,0.94512939453125
1631018789692,-0.31402587890625,-0.035400390625,0.941162109375
1631018789692,-0.31939697265625,-0.03765869140625,0.94073486328125
1631018789692,-0.314208984375,-0.0352783203125,0.94158935546875
1631018789786,-0.3193359375,-0.036376953125,0.930908203125
1631018789786,-0.32037353515625,-0.037841796875,0.93701171875
1631018789786,-0.3197021484375,-0.034423828125,0.93438720703125
1631018789864,-0.319091796875,-0.029541015625,0.934814453125
1631018789864,-0.32012939453125,-0.03326416015625,0.93975830078125
1631018789864,-0.3199462890625,-0.03057861328125,0.94049072265625
1631018789911,-0.3184814453125,-0.0302734375,0.9420166015625
1631018789927,-0.3194580078125,-0.03143310546875,0.93792724609375
1631018789927,-0.3203125,-0.0341796875,0.937744140625
1631018789958,-0.3194580078125,-0.0372314453125,0.93707275390625
1631018789958,-0.31988525390625,-0.0400390625,0.93621826171875
1631018789958,-0.3206787109375,-0.040283203125,0.93841552734375
1631018790005,-0.3221435546875,-0.03680419921875,0.93511962890625
1631018790005,-0.3223876953125,-0.03790283203125,0.9356689453125
1631018790005,-0.320068359375,-0.03912353515625,0.935791015625
1631018790099,-0.31732177734375,-0.03228759765625,0.933837890625
1631018790099,-0.3154296875,-0.0321044921875,0.93499755859375
1631018790099,-0.3187255859375,-0.03302001953125,0.93377685546875
1631018790161,-0.31292724609375,-0.0352783203125,0.9415283203125
1631018790161,-0.31243896484375,-0.0323486328125,0.9356689453125
1631018790161,-0.31304931640625,-0.03363037109375,0.94036865234375
1631018790208,-0.31072998046875,-0.03240966796875,0.94366455078125
1631018790208,-0.313720703125,-0.03656005859375,0.94073486328125
1631018790208,-0.31219482421875,-0.033447265625,0.94342041015625
1631018790270,-0.31402587890625,-0.0330810546875,0.93743896484375
1631018790270,-0.31561279296875,-0.03863525390625,0.9412841796875
1631018790270,-0.31304931640625,-0.04083251953125,0.93658447265625
1631018790302,-0.30865478515625,-0.02783203125,0.9422607421875
1631018790302,-0.31634521484375,-0.03155517578125,0.94110107421875
1631018790302,-0.3131103515625,-0.02685546875,0.9423828125
1631018790411,-0.31683349609375,-0.03271484375,0.946533203125
1631018790411,-0.31011962890625,-0.0328369140625,0.9432373046875
1631018790411,-0.31427001953125,-0.04095458984375,0.9383544921875
1631018790411,-0.31219482421875,-0.03692626953125,0.94061279296875
1631018790411,-0.30596923828125,-0.0345458984375,0.945068359375
1631018790411,-0.31121826171875,-0.036376953125,0.942626953125
1631018790476,-0.31585693359375,-0.03741455078125,0.93426513671875
1631018790476,-0.3154296875,-0.0382080078125,0.93878173828125
1631018790476,-0.3153076171875,-0.037109375,0.9415283203125
1631018790585,-0.3197021484375,-0.03167724609375,0.93975830078125
1631018790585,-0.31585693359375,-0.0350341796875,0.9365234375
1631018790585,-0.3170166015625,-0.02923583984375,0.93731689453125
1631018790601,-0.3184814453125,-0.0302734375,0.93994140625
1631018790601,-0.3193359375,-0.03131103515625,0.9429931640625
1631018790601,-0.31884765625,-0.029541015625,0.93994140625
1631018790679,-0.31964111328125,-0.0369873046875,0.9356689453125
1631018790679,-0.32025146484375,-0.033935546875,0.9378662109375
1631018790679,-0.32342529296875,-0.035400390625,0.93475341796875
1631018790695,-0.32275390625,-0.03472900390625,0.93536376953125
1631018790695,-0.31689453125,-0.03594970703125,0.9344482421875
1631018790695,-0.3204345703125,-0.03582763671875,0.93670654296875
1631018790773,-0.31988525390625,-0.03106689453125,0.935302734375
1631018790773,-0.3193359375,-0.0364990234375,0.93609619140625
1631018790773,-0.318359375,-0.03521728515625,0.93524169921875
1631018790866,-0.319091796875,-0.035400390625,0.9324951171875
1631018790866,-0.321533203125,-0.03619384765625,0.94049072265625
1631018790866,-0.3179931640625,-0.03521728515625,0.9375
1631018790898,-0.3214111328125,-0.03485107421875,0.93804931640625
1631018790898,-0.31561279296875,-0.03485107421875,0.9364013671875
1631018790898,-0.31890869140625,-0.03399658203125,0.9385986328125
1631018790960,-0.322509765625,-0.03173828125,0.94110107421875
1631018790960,-0.3226318359375,-0.03668212890625,0.9447021484375
1631018790960,-0.32342529296875,-0.0401611328125,0.9354248046875
1631018791023,-0.319091796875,-0.030029296875,0.93377685546875
1631018791023,-0.3212890625,-0.036865234375,0.93609619140625
1631018791023,-0.32244873046875,-0.0401611328125,0.933837890625
1631018791085,-0.3131103515625,-0.02728271484375,0.9375
1631018791132,-0.31939697265625,-0.03350830078125,0.93914794921875
1631018791132,-0.322509765625,-0.03387451171875,0.938232421875
1631018791132,-0.316162109375,-0.0291748046875,0.93585205078125
1631018791194,-0.32366943359375,-0.03863525390625,0.93804931640625
1631018791194,-0.3216552734375,-0.03936767578125,0.9390869140625
1631018791194,-0.322509765625,-0.0399169921875,0.93798828125
1631018791257,-0.3179931640625,-0.03582763671875,0.9322509765625
1631018791273,-0.3201904296875,-0.0394287109375,0.93463134765625
1631018791273,-0.32122802734375,-0.03466796875,0.93756103515625
1631018791304,-0.31768798828125,-0.03289794921875,0.94488525390625
1631018791304,-0.31768798828125,-0.0343017578125,0.9415283203125
1631018791304,-0.32025146484375,-0.03302001953125,0.9371337890625
1631018791366,-0.319580078125,-0.03009033203125,0.9405517578125
1631018791366,-0.3184814453125,-0.0318603515625,0.943603515625
1631018791366,-0.31689453125,-0.032958984375,0.94134521484375
1631018791413,-0.31744384765625,-0.02880859375,0.93731689453125
1631018791413,-0.3194580078125,-0.03411865234375,0.933837890625
1631018791413,-0.31927490234375,-0.03192138671875,0.93328857421875
1631018791510,-0.31787109375,-0.02935791015625,0.9342041015625
1631018791510,-0.31915283203125,-0.03045654296875,0.934326171875
1631018791510,-0.3179931640625,-0.03021240234375,0.9324951171875
1631018791525,-0.3125,-0.0318603515625,0.93878173828125
1631018791525,-0.319580078125,-0.02996826171875,0.9384765625
1631018791525,-0.314453125,-0.02984619140625,0.93853759765625
1631018791619,-0.30987548828125,-0.03173828125,0.940673828125
1631018791619,-0.3125,-0.03314208984375,0.94342041015625
1631018791650,-0.3118896484375,-0.03533935546875,0.9415283203125
1631018791666,-0.3123779296875,-0.029541015625,0.94012451171875
1631018791666,-0.3118896484375,-0.0294189453125,0.94305419921875
1631018791728,-0.313232421875,-0.0274658203125,0.9462890625
1631018791728,-0.31060791015625,-0.028564453125,0.943603515625
1631018791728,-0.31060791015625,-0.0296630859375,0.94390869140625
1631018791791,-0.314697265625,-0.02825927734375,0.94476318359375
1631018791791,-0.3148193359375,-0.02392578125,0.93994140625
1631018791806,-0.3160400390625,-0.028076171875,0.94390869140625
1631018791838,-0.31689453125,-0.02801513671875,0.93096923828125
1631018791838,-0.319580078125,-0.02996826171875,0.93463134765625
1631018791838,-0.31884765625,-0.02825927734375,0.9296875
1631018791885,-0.3184814453125,-0.02557373046875,0.9375
1631018791885,-0.3192138671875,-0.02777099609375,0.93878173828125
1631018791900,-0.31439208984375,-0.02252197265625,0.9398193359375
1631018791978,-0.31463623046875,-0.025634765625,0.94140625
1631018791978,-0.3150634765625,-0.02642822265625,0.9407958984375
1631018791978,-0.31402587890625,-0.0218505859375,0.93988037109375
1631018791994,-0.31488037109375,-0.02679443359375,0.937744140625
1631018791994,-0.31982421875,-0.02935791015625,0.93988037109375
1631018792010,-0.31988525390625,-0.02850341796875,0.93890380859375
1631018792056,-0.31982421875,-0.0302734375,0.93621826171875
1631018792056,-0.3175048828125,-0.03253173828125,0.93890380859375
1631018792056,-0.31854248046875,-0.03253173828125,0.9359130859375
1631018792103,-0.31805419921875,-0.0255126953125,0.9404296875
1631018792103,-0.31964111328125,-0.02490234375,0.94097900390625
1631018792103,-0.31939697265625,-0.0279541015625,0.93609619140625
1631018792197,-0.32012939453125,-0.026611328125,0.94366455078125
1631018792197,-0.31494140625,-0.02301025390625,0.944580078125
1631018792197,-0.315673828125,-0.0255126953125,0.93896484375
