timestamp,ax,ay,az
1629800379790,0.2132568359375,0.04217529296875,0.991943359375
1629800379884,0.21087646484375,0.03985595703125,0.99163818359375
1629800379884,0.2115478515625,0.03839111328125,1.000732421875
1629800379884,0.209716796875,0.0421142578125,0.983154296875
1629800379900,0.2197265625,0.0340576171875,0.983642578125
1629800379900,0.21832275390625,0.03436279296875,0.98876953125
1629800379900,0.21966552734375,0.034423828125,0.989013671875
1629800379993,0.22796630859375,0.034912109375,0.986083984375
1629800379993,0.2242431640625,0.02996826171875,0.9871826171875
1629800379993,0.22137451171875,0.03289794921875,0.98162841796875
1629800380025,0.2247314453125,0.03729248046875,0.99420166015625
1629800380025,0.22589111328125,0.03582763671875,0.99432373046875
1629800380040,0.22540283203125,0.04022216796875,0.98785400390625
1629800380134,0.2220458984375,0.0389404296875,0.98443603515625
1629800380134,0.22100830078125,0.03741455078125,0.981689453125
1629800380134,0.22125244140625,0.0352783203125,0.97772216796875
1629800380134,0.2222900390625,0.03875732421875,0.9820556640625
1629800380134,0.220947265625,0.03350830078125,0.98193359375
1629800380150,0.21826171875,0.0340576171875,0.97772216796875
1629800380228,0.2191162109375,0.0345458984375,0.98284912109375
1629800380228,0.22027587890625,0.03631591796875,0.98480224609375
1629800380228,0.221435546875,0.03411865234375,0.9822998046875
1629800380322,0.22283935546875,0.0338134765625,0.9835205078125
1629800380322,0.22039794921875,0.03546142578125,0.99102783203125
1629800380322,0.22344970703125,0.0369873046875,0.98553466796875
1629800380322,0.22454833984375,0.037353515625,0.98931884765625
1629800380322,0.2203369140625,0.03753662109375,0.9853515625
1629800380322,0.22137451171875,0.03753662109375,0.97418212890625
1629800380371,0.221923828125,0.03839111328125,0.9833984375
1629800380371,0.22406005859375,0.0325927734375,0.9835205078125
1629800380387,0.2235107421875,0.0369873046875,0.98126220703125
1629800380434,0.222412109375,0.0341796875,0.98333740234375
1629800380434,0.2208251953125,0.03472900390625,0.99517822265625
1629800380434,0.22369384765625,0.0360107421875,0.98614501953125
1629800380512,0.22076416015625,0.03814697265625,0.9735107421875
1629800380512,0.2232666015625,0.03997802734375,0.96954345703125
1629800380512,0.22235107421875,0.0362548828125,0.9747314453125
1629800380574,0.22772216796875,0.02984619140625,0.98248291015625
1629800380574,0.2274169921875,0.033935546875,0.9876708984375
1629800380574,0.22393798828125,0.03497314453125,0.98736572265625
1629800380653,0.22808837890625,0.0352783203125,0.99383544921875
1629800380653,0.23321533203125,0.03179931640625,0.9862060546875
1629800380653,0.2279052734375,0.0306396484375,0.9893798828125
1629800380684,0.23443603515625,0.0360107421875,0.98126220703125
1629800380684,0.231201171875,0.0377197265625,0.99725341796875
1629800380684,0.23028564453125,0.03857421875,0.97711181640625
1629800380731,0.2301025390625,0.04095458984375,0.982177734375
1629800380731,0.22845458984375,0.04034423828125,0.98065185546875
1629800380731,0.23114013671875,0.036376953125,0.9859619140625
1629800380809,0.22314453125,0.03900146484375,0.98150634765625
1629800380809,0.2197265625,0.04034423828125,0.984375
1629800380809,0.22259521484375,0.03936767578125,0.97747802734375
1629800380871,0.22686767578125,0.03961181640625,0.98004150390625
1629800380871,0.22540283203125,0.03399658203125,0.97589111328125
1629800380871,0.22662353515625,0.03509521484375,0.9747314453125
1629800380934,0.22491455078125,0.03839111328125,0.989501953125
1629800380934,0.22381591796875,0.0362548828125,0.97943115234375
1629800380949,0.2249755859375,0.032470703125,0.9788818359375
1629800380981,0.227783203125,0.03680419921875,0.98834228515625
1629800380996,0.2279052734375,0.03814697265625,0.9813232421875
1629800380996,0.23211669921875,0.03741455078125,0.98663330078125
1629800381012,0.22705078125,0.03680419921875,0.98162841796875
1629800381012,0.224609375,0.03387451171875,0.97698974609375
1629800381012,0.22308349609375,0.037353515625,0.98382568359375
1629800381106,0.22943115234375,0.03851318359375,0.98388671875
1629800381106,0.22430419921875,0.0377197265625,0.97711181640625
1629800381106,0.228515625,0.0340576171875,0.9766845703125
1629800381156,0.23236083984375,0.0396728515625,0.98309326171875
1629800381156,0.2293701171875,0.04205322265625,0.98419189453125
1629800381156,0.2294921875,0.04022216796875,0.98126220703125
1629800381203,0.22607421875,0.0360107421875,0.98138427734375
1629800381219,0.2286376953125,0.0428466796875,0.98114013671875
1629800381219,0.22406005859375,0.03912353515625,0.98150634765625
1629800381266,0.22491455078125,0.03375244140625,0.98095703125
1629800381266,0.22705078125,0.03668212890625,0.9803466796875
1629800381266,0.22900390625,0.0372314453125,0.98077392578125
1629800381297,0.231201171875,0.040771484375,0.97760009765625
1629800381297,0.228271484375,0.0377197265625,0.9752197265625
1629800381297,0.227783203125,0.03472900390625,0.982666015625
1629800381391,0.2301025390625,0.04400634765625,0.9815673828125
1629800381391,0.233154296875,0.03924560546875,0.98223876953125
1629800381406,0.2257080078125,0.036865234375,0.9776611328125
1629800381406,0.2293701171875,0.034912109375,0.9747314453125
1629800381406,0.22637939453125,0.04302978515625,0.976806640625
1629800381484,0.2320556640625,0.03009033203125,0.98553466796875
1629800381484,0.23388671875,0.03387451171875,0.97564697265625
1629800381484,0.23138427734375,0.0316162109375,0.97833251953125
1629800381531,0.23626708984375,0.03094482421875,0.98284912109375
1629800381531,0.2408447265625,0.03857421875,0.990478515625
1629800381531,0.235107421875,0.03076171875,0.97625732421875
1629800381609,0.24053955078125,0.043212890625,0.99249267578125
1629800381609,0.244140625,0.0445556640625,0.987060546875
1629800381609,0.24755859375,0.052001953125,0.9754638671875
1629800381687,0.24932861328125,0.04827880859375,0.98297119140625
1629800381687,0.258056640625,0.03558349609375,1.00103759765625
1629800381687,0.25244140625,0.0408935546875,0.9866943359375
1629800381734,0.26080322265625,0.01605224609375,1.00897216796875
1629800381734,0.2625732421875,0.0126953125,1.00274658203125
1629800381734,0.26007080078125,0.0196533203125,1.00030517578125
1629800381781,0.2598876953125,0.02874755859375,1.00933837890625
1629800381781,0.2493896484375,0.058837890625,1.0174560546875
1629800381781,0.25482177734375,0.0423583984375,1.01416015625
1629800381891,0.24566650390625,0.06402587890625,1.00152587890625
1629800381891,0.2164306640625,0.07073974609375,0.9698486328125
1629800381891,0.23199462890625,0.06903076171875,0.98687744140625
1629800381937,0.20928955078125,0.070556640625,0.95965576171875
1629800381937,0.20684814453125,0.0804443359375,0.95489501953125
1629800381937,0.21087646484375,0.07696533203125,0.97247314453125
1629800381953,0.20654296875,0.0782470703125,0.98907470703125
1629800381953,0.20733642578125,0.0772705078125,0.98931884765625
1629800381953,0.21160888671875,0.0733642578125,0.984375
1629800382000,0.20697021484375,0.08209228515625,0.98291015625
1629800382000,0.217041015625,0.1005859375,1.0076904296875
1629800382000,0.21197509765625,0.093505859375,0.99322509765625
1629800382109,0.20697021484375,0.1280517578125,1.00445556640625
1629800382109,0.19635009765625,0.14227294921875,0.99725341796875
1629800382109,0.213623046875,0.11151123046875,1.0223388671875
1629800382141,0.18695068359375,0.14532470703125,1.00787353515625
1629800382159,0.17584228515625,0.14678955078125,0.99658203125
1629800382159,0.18243408203125,0.143310546875,1.0054931640625
1629800382191,0.1680908203125,0.12884521484375,0.99212646484375
1629800382191,0.171142578125,0.14703369140625,0.977294921875
1629800382191,0.16387939453125,0.1177978515625,0.996826171875
1629800382237,0.14764404296875,0.12445068359375,1.002197265625
1629800382237,0.1533203125,0.12933349609375,0.99053955078125
1629800382237,0.16119384765625,0.12347412109375,1.00665283203125
1629800382331,0.1304931640625,0.0863037109375,0.9737548828125
1629800382331,0.13848876953125,0.0970458984375,0.96685791015625
1629800382331,0.14031982421875,0.099853515625,0.98565673828125
1629800382362,0.0966796875,0.02618408203125,0.960205078125
1629800382362,0.11785888671875,0.04705810546875,0.96551513671875
1629800382362,0.12896728515625,0.06646728515625,0.9693603515625
1629800382456,0.04827880859375,0.01519775390625,0.93804931640625
1629800382456,0.04052734375,0.00469970703125,0.92254638671875
1629800382456,0.07275390625,0.02496337890625,0.95159912109375
1629800382534,0.03216552734375,-0.0572509765625,0.95843505859375
1629800382534,0.03546142578125,-0.01654052734375,0.92291259765625
1629800382534,0.03564453125,-0.03240966796875,0.93218994140625
1629800382597,0.03912353515625,-0.07861328125,0.97222900390625
1629800382597,0.04803466796875,-0.079833984375,1.003662109375
1629800382612,0.06195068359375,-0.07684326171875,0.99560546875
1629800382612,0.10198974609375,-0.050537109375,1.04791259765625
1629800382612,0.0401611328125,-0.0850830078125,0.99761962890625
1629800382612,0.080322265625,-0.06439208984375,1.02752685546875
1629800382706,0.1307373046875,-0.026123046875,1.0274658203125
1629800382706,0.12835693359375,-0.02923583984375,1.0504150390625
1629800382706,0.1209716796875,-0.0374755859375,1.05828857421875
1629800382769,0.10400390625,0.03466796875,1.03363037109375
1629800382769,0.13153076171875,-0.00933837890625,1.03424072265625
1629800382769,0.1209716796875,0.00994873046875,1.0345458984375
1629800382815,0.07049560546875,0.0460205078125,0.97662353515625
1629800382815,0.0540771484375,0.0423583984375,0.95684814453125
1629800382815,0.08734130859375,0.040771484375,1.00372314453125
1629800382847,0.037841796875,0.02630615234375,0.949951171875
1629800382847,0.04296875,0.01751708984375,0.94110107421875
1629800382847,0.04156494140625,0.03485107421875,0.96246337890625
1629800382925,0.09954833984375,0.0262451171875,1.00201416015625
1629800382925,0.07464599609375,0.016357421875,0.97784423828125
1629800382940,0.056396484375,0.01177978515625,0.94354248046875
1629800382987,0.1282958984375,0.05035400390625,1.03070068359375
1629800382987,0.13885498046875,0.0616455078125,1.03472900390625
1629800382987,0.11541748046875,0.034912109375,1.02801513671875
1629800383034,0.12286376953125,0.07244873046875,1.0401611328125
1629800383034,0.135009765625,0.07452392578125,1.05108642578125
1629800383034,0.13934326171875,0.07000732421875,1.0440673828125
1629800383112,0.10809326171875,0.0635986328125,1.0343017578125
1629800383112,0.09246826171875,0.06146240234375,0.98541259765625
1629800383112,0.10150146484375,0.06072998046875,1.0087890625
1629800383190,0.079833984375,0.06878662109375,1.00128173828125
1629800383190,0.0869140625,0.06658935546875,0.9832763671875
1629800383190,0.075439453125,0.07379150390625,0.99444580078125
1629800383192,0.090087890625,0.063232421875,0.98052978515625
1629800383194,0.084228515625,0.07244873046875,0.99420166015625
1629800383195,0.08258056640625,0.0693359375,0.99761962890625
1629800383318,0.07000732421875,0.077392578125,0.97564697265625
1629800383318,0.07183837890625,0.0765380859375,0.982177734375
1629800383334,0.07000732421875,0.06976318359375,0.9808349609375
1629800383349,0.07171630859375,0.0692138671875,0.98553466796875
1629800383349,0.08209228515625,0.06561279296875,0.9921875
1629800383349,0.0865478515625,0.066650390625,1.0081787109375
1629800383365,0.09271240234375,0.06427001953125,1.01715087890625
1629800383365,0.099853515625,0.068603515625,1.000732421875
1629800383381,0.10601806640625,0.069580078125,1.0013427734375
1629800383474,0.10443115234375,0.0723876953125,1.0093994140625
1629800383474,0.1011962890625,0.08697509765625,1.01226806640625
1629800383474,0.1043701171875,0.080322265625,1.0159912109375
1629800383521,0.10455322265625,0.0933837890625,1.009521484375
1629800383521,0.0987548828125,0.0855712890625,1.010986328125
1629800383521,0.103271484375,0.07208251953125,1.01104736328125
1629800383552,0.099853515625,0.06463623046875,1.01678466796875
1629800383552,0.10455322265625,0.068359375,0.9805908203125
1629800383552,0.10150146484375,0.0684814453125,0.99847412109375
1629800383584,0.108642578125,0.060546875,0.99273681640625
1629800383584,0.10784912109375,0.05584716796875,0.98748779296875
1629800383584,0.10498046875,0.05413818359375,0.99237060546875
1629800383677,0.1009521484375,0.053466796875,0.9892578125
1629800383677,0.10211181640625,0.04974365234375,0.99884033203125
1629800383677,0.10205078125,0.05084228515625,0.996337890625
1629800383755,0.09661865234375,0.05487060546875,0.9940185546875
1629800383755,0.10223388671875,0.04925537109375,0.99432373046875
1629800383755,0.1043701171875,0.04949951171875,0.9884033203125
1629800383896,0.11334228515625,0.07318115234375,1.0020751953125
1629800383896,0.11029052734375,0.05718994140625,0.987060546875
1629800383896,0.11053466796875,0.06463623046875,0.99749755859375
1629800383912,0.11273193359375,0.0859375,0.99713134765625
1629800383912,0.11328125,0.07769775390625,1.00396728515625
1629800383912,0.11676025390625,0.08514404296875,0.99163818359375
1629800383990,0.11590576171875,0.0963134765625,1.02117919921875
1629800383990,0.11279296875,0.0899658203125,1.01837158203125
1629800383990,0.1153564453125,0.0968017578125,1.0
1629800384052,0.1199951171875,0.09722900390625,0.98260498046875
1629800384052,0.119140625,0.09136962890625,0.98797607421875
1629800384068,0.1072998046875,0.082275390625,1.01275634765625
1629800384068,0.11431884765625,0.08306884765625,1.0035400390625
1629800384068,0.10321044921875,0.0823974609375,1.0
1629800384068,0.11798095703125,0.09832763671875,1.0167236328125
1629800384084,0.09136962890625,0.088134765625,0.9951171875
1629800384084,0.07537841796875,0.095703125,0.991455078125
1629800384099,0.0758056640625,0.091064453125,1.01385498046875
1629800384162,0.07330322265625,0.08001708984375,0.9892578125
1629800384177,0.069580078125,0.07489013671875,0.98046875
1629800384177,0.07025146484375,0.071533203125,0.96490478515625
1629800384208,0.06964111328125,0.05859375,0.97802734375
1629800384208,0.0714111328125,0.05474853515625,0.9764404296875
1629800384224,0.06719970703125,0.065673828125,0.97467041015625
1629800384338,0.10797119140625,0.0504150390625,1.0413818359375
1629800384338,0.08624267578125,0.0494384765625,0.98583984375
1629800384338,0.14776611328125,0.05596923828125,0.97125244140625
1629800384338,0.08966064453125,0.0516357421875,1.009521484375
1629800384353,0.11468505859375,0.05169677734375,1.03619384765625
1629800384353,0.13531494140625,0.05926513671875,0.99346923828125
1629800384385,0.19921875,0.05694580078125,0.992919921875
1629800384385,0.169921875,0.0589599609375,0.97216796875
1629800384400,0.23126220703125,0.05499267578125,1.00341796875
1629800384416,0.2452392578125,0.0526123046875,0.9908447265625
1629800384432,0.24871826171875,0.05609130859375,0.938720703125
1629800384432,0.24102783203125,0.0472412109375,0.961669921875
1629800384478,0.24273681640625,0.06298828125,0.978515625
1629800384494,0.2120361328125,0.07061767578125,0.94647216796875
1629800384494,0.23046875,0.062255859375,0.963623046875
1629800384557,0.21112060546875,0.06024169921875,0.8905029296875
1629800384557,0.2042236328125,0.041259765625,0.90399169921875
1629800384572,0.20587158203125,0.022705078125,0.89385986328125
1629800384603,0.197509765625,0.01556396484375,0.87890625
1629800384603,0.1895751953125,0.0111083984375,0.8740234375
1629800384603,0.20245361328125,0.00994873046875,0.861328125
1629800384635,0.2396240234375,0.0185546875,0.8922119140625
1629800384635,0.234375,0.01824951171875,0.9437255859375
1629800384635,0.22222900390625,0.02117919921875,0.9571533203125
1629800384728,0.27154541015625,0.01055908203125,0.837890625
1629800384728,0.3465576171875,-0.00335693359375,1.138671875
1629800384728,0.31884765625,0.00537109375,0.942626953125
1629800384806,0.3670654296875,0.01513671875,1.046630859375
1629800384806,0.3533935546875,0.0174560546875,1.12652587890625
1629800384806,0.362060546875,0.00115966796875,1.14569091796875
1629800384931,0.4000244140625,0.0235595703125,1.115478515625
1629800384931,0.4114990234375,0.049072265625,1.22222900390625
1629800384931,0.392822265625,0.06396484375,1.26336669921875
1629800384947,0.27679443359375,0.0543212890625,1.15643310546875
1629800384947,0.3621826171875,0.06744384765625,1.25225830078125
1629800384947,0.31927490234375,0.0660400390625,1.20758056640625
1629800384963,0.2366943359375,0.0399169921875,1.0960693359375
1629800384963,0.207275390625,0.04248046875,1.03509521484375
1629800384978,0.17425537109375,0.04669189453125,0.9913330078125
1629800385010,0.0755615234375,0.02362060546875,0.9395751953125
1629800385010,0.10430908203125,0.02862548828125,0.95343017578125
1629800385025,0.1417236328125,0.0416259765625,0.97161865234375
1629800385122,-0.01593017578125,0.00457763671875,0.91986083984375
1629800385122,0.0107421875,0.00250244140625,0.94171142578125
1629800385122,0.041015625,0.01116943359375,0.9544677734375
1629800385168,-0.10992431640625,0.01092529296875,0.86676025390625
1629800385168,-0.04608154296875,0.00286865234375,0.89501953125
1629800385168,-0.08056640625,0.0091552734375,0.883544921875
1629800385231,-0.12762451171875,0.0255126953125,0.85858154296875
1629800385231,-0.13525390625,0.04278564453125,0.86016845703125
1629800385231,-0.125,0.052490234375,0.85595703125
1629800385293,-0.09637451171875,0.072265625,0.9544677734375
1629800385293,-0.079833984375,0.08343505859375,1.0137939453125
1629800385293,-0.10888671875,0.05914306640625,0.89227294921875
1629800385325,-0.06793212890625,0.089599609375,1.05450439453125
1629800385325,-0.0556640625,0.06829833984375,1.0667724609375
1629800385325,-0.05157470703125,0.056884765625,1.11126708984375
1629800385372,-0.07427978515625,0.07159423828125,1.06146240234375
1629800385372,-0.06005859375,0.0748291015625,1.1141357421875
1629800385372,-0.056396484375,0.06640625,1.13165283203125
1629800385434,-0.09130859375,0.052734375,0.98638916015625
1629800385434,-0.08984375,0.047607421875,1.02294921875
1629800385434,-0.08441162109375,0.05841064453125,1.03887939453125
1629800385543,-0.09918212890625,0.062744140625,0.93670654296875
1629800385543,-0.10186767578125,0.06805419921875,0.9248046875
1629800385543,-0.101806640625,0.07464599609375,0.91998291015625
1629800385575,-0.111328125,0.07080078125,0.911865234375
1629800385575,-0.11962890625,0.0694580078125,0.89361572265625
1629800385653,-0.13397216796875,0.07208251953125,0.87701416015625
1629800385653,-0.1370849609375,0.064208984375,0.88275146484375
1629800385653,-0.13818359375,0.06072998046875,0.8988037109375
1629800385731,-0.1019287109375,0.05853271484375,1.0150146484375
1629800385731,-0.1182861328125,0.060546875,0.97259521484375
1629800385731,-0.1312255859375,0.06103515625,0.92608642578125
1629800385778,-0.0838623046875,0.07855224609375,1.0850830078125
1629800385778,-0.0887451171875,0.0699462890625,1.0579833984375
1629800385793,-0.07855224609375,0.0738525390625,1.08612060546875
1629800385840,-0.0933837890625,0.06121826171875,1.0814208984375
1629800385840,-0.10467529296875,0.05389404296875,1.0528564453125
1629800385840,-0.0814208984375,0.07086181640625,1.093994140625
1629800385871,-0.1221923828125,0.05023193359375,1.00079345703125
1629800385871,-0.11376953125,0.05145263671875,1.02740478515625
1629800385887,-0.134033203125,0.04730224609375,0.9984130859375
1629800385934,-0.140380859375,0.044189453125,0.95758056640625
1629800385934,-0.14349365234375,0.046875,0.92559814453125
1629800385934,-0.1480712890625,0.04547119140625,0.909423828125
1629800385981,-0.15399169921875,0.0555419921875,0.9154052734375
1629800385981,-0.14691162109375,0.0667724609375,0.927978515625
1629800386090,-0.11773681640625,0.08441162109375,1.031005859375
1629800386091,-0.1209716796875,0.08245849609375,1.013427734375
1629800386091,-0.137939453125,0.08154296875,0.97076416015625
1629800386093,-0.14593505859375,0.07415771484375,0.947021484375
1629800386093,-0.12713623046875,0.07855224609375,0.98187255859375
1629800386093,-0.1229248046875,0.07940673828125,1.0189208984375
1629800386124,-0.10772705078125,0.085205078125,1.0150146484375
1629800386124,-0.1041259765625,0.08612060546875,1.02105712890625
1629800386124,-0.10479736328125,0.085205078125,1.0194091796875
1629800386234,-0.1082763671875,0.09588623046875,1.00543212890625
1629800386249,-0.1009521484375,0.08013916015625,1.0157470703125
1629800386249,-0.10821533203125,0.0919189453125,1.0068359375
1629800386281,-0.11846923828125,0.1005859375,1.00689697265625
1629800386281,-0.11602783203125,0.097900390625,1.0057373046875
1629800386281,-0.1317138671875,0.101806640625,1.0501708984375
1629800386312,-0.1268310546875,0.10198974609375,0.946533203125
1629800386312,-0.1279296875,0.10272216796875,0.95684814453125
1629800386327,-0.12164306640625,0.09906005859375,0.95562744140625
1629800386374,-0.13232421875,0.0986328125,0.94537353515625
1629800386390,-0.13153076171875,0.094970703125,0.939208984375
1629800386390,-0.13031005859375,0.0850830078125,0.961181640625
1629800386452,-0.13226318359375,0.08209228515625,0.97991943359375
1629800386452,-0.12347412109375,0.076416015625,0.97235107421875
1629800386452,-0.13360595703125,0.0784912109375,0.98785400390625
1629800386499,-0.1207275390625,0.07806396484375,0.97357177734375
1629800386499,-0.11260986328125,0.076904296875,0.986083984375
1629800386499,-0.1136474609375,0.078125,0.9722900390625
1629800386593,-0.0987548828125,0.078369140625,1.0198974609375
1629800386593,-0.10711669921875,0.07305908203125,0.99078369140625
1629800386593,-0.10211181640625,0.072998046875,1.00531005859375
1629800386624,-0.09808349609375,0.07330322265625,1.01715087890625
1629800386625,-0.10076904296875,0.07879638671875,1.02447509765625
1629800386626,-0.10394287109375,0.0814208984375,1.031494140625
1629800386678,-0.0980224609375,0.07440185546875,1.0057373046875
1629800386678,-0.1004638671875,0.07611083984375,0.99029541015625
1629800386678,-0.0999755859375,0.07635498046875,0.9888916015625
1629800386741,-0.103271484375,0.07562255859375,0.984130859375
1629800386741,-0.10906982421875,0.0750732421875,0.98284912109375
1629800386741,-0.1046142578125,0.0780029296875,0.986083984375
1629800386819,-0.10577392578125,0.0771484375,1.014892578125
1629800386819,-0.10308837890625,0.07293701171875,0.98541259765625
1629800386819,-0.10540771484375,0.07720947265625,0.981689453125
1629800386834,-0.10205078125,0.07391357421875,0.98699951171875
1629800386834,-0.10125732421875,0.0765380859375,0.981201171875
1629800386834,-0.09490966796875,0.07061767578125,0.9791259765625
1629800386913,-0.09588623046875,0.0665283203125,0.9931640625
1629800386913,-0.09283447265625,0.0625,0.989501953125
1629800386913,-0.0888671875,0.06610107421875,0.991455078125
1629800387006,-0.0885009765625,0.07183837890625,0.99737548828125
1629800387006,-0.08843994140625,0.062255859375,0.99169921875
1629800387006,-0.086669921875,0.0665283203125,1.00091552734375
1629800387069,-0.09014892578125,0.0758056640625,0.989990234375
1629800387069,-0.0849609375,0.072998046875,0.99530029296875
1629800387069,-0.08990478515625,0.08056640625,1.0211181640625
1629800387100,-0.0950927734375,0.0732421875,0.99285888671875
1629800387100,-0.09466552734375,0.06622314453125,0.9837646484375
1629800387100,-0.0927734375,0.0792236328125,0.98583984375
1629800387196,-0.09759521484375,0.06622314453125,0.9898681640625
1629800387196,-0.09857177734375,0.066650390625,0.98828125
1629800387196,-0.09979248046875,0.058349609375,0.9791259765625
1629800387227,-0.09130859375,0.05340576171875,1.0072021484375
1629800387227,-0.0906982421875,0.05914306640625,1.00201416015625
1629800387227,-0.09222412109375,0.05352783203125,0.98944091796875
1629800387243,-0.0860595703125,0.05548095703125,0.9669189453125
1629800387243,-0.086181640625,0.056884765625,0.97015380859375
1629800387243,-0.08612060546875,0.05377197265625,0.98236083984375
1629800387352,-0.072998046875,0.0584716796875,0.9600830078125
1629800387352,-0.07958984375,0.0589599609375,0.9703369140625
1629800387368,-0.085205078125,0.05584716796875,0.95672607421875
1629800387399,-0.06646728515625,0.057861328125,0.9752197265625
1629800387415,-0.0499267578125,0.05462646484375,0.99481201171875
1629800387430,-0.03814697265625,0.05047607421875,1.035888671875
1629800387446,-0.03009033203125,0.0479736328125,1.03424072265625
1629800387509,0.00146484375,0.0477294921875,0.97845458984375
1629800387509,-0.021240234375,0.03546142578125,1.02667236328125
1629800387509,-0.00274658203125,0.02972412109375,0.963134765625
1629800387571,0.016845703125,0.05126953125,1.00775146484375
1629800387571,0.00506591796875,0.0484619140625,0.9986572265625
1629800387571,0.00640869140625,0.0494384765625,1.00311279296875
1629800387587,0.0208740234375,0.0474853515625,1.0078125
1629800387602,0.0328369140625,0.043212890625,1.0177001953125
1629800387712,0.04388427734375,0.03887939453125,1.0040283203125
1629800387712,0.03973388671875,0.04058837890625,1.009765625
1629800387712,0.0390625,0.04095458984375,1.01959228515625
1629800387774,0.05291748046875,0.04083251953125,1.01177978515625
1629800387774,0.0499267578125,0.04241943359375,1.00927734375
1629800387774,0.04998779296875,0.03955078125,1.01202392578125
1629800387805,0.05548095703125,0.04376220703125,1.00567626953125
1629800387805,0.05755615234375,0.0391845703125,1.0113525390625
1629800387821,0.0556640625,0.04052734375,1.00811767578125
1629800387852,0.05517578125,0.0418701171875,1.00738525390625
1629800387852,0.05706787109375,0.03997802734375,1.01220703125
1629800387852,0.05377197265625,0.037841796875,1.02069091796875
1629800387915,0.05523681640625,0.04095458984375,1.00677490234375
1629800387915,0.0556640625,0.037353515625,1.01055908203125
1629800387930,0.05694580078125,0.0423583984375,1.00506591796875
1629800387977,0.055419921875,0.04302978515625,1.0064697265625
1629800387977,0.0562744140625,0.03863525390625,1.01177978515625
1629800387993,0.059326171875,0.0413818359375,1.01141357421875
1629800388024,0.05255126953125,0.04583740234375,1.0076904296875
1629800388024,0.0540771484375,0.04583740234375,1.00714111328125
1629800388040,0.04766845703125,0.0430908203125,1.0028076171875
1629800388113,0.04803466796875,0.043212890625,1.00030517578125
1629800388113,0.0452880859375,0.040283203125,0.990478515625
1629800388113,0.0457763671875,0.0469970703125,0.99652099609375
1629800388160,0.04754638671875,0.04022216796875,0.993408203125
1629800388175,0.05169677734375,0.0419921875,0.9981689453125
1629800388176,0.0491943359375,0.0413818359375,1.0008544921875
1629800388285,0.0487060546875,0.04290771484375,1.00140380859375
1629800388285,0.0501708984375,0.04498291015625,1.00091552734375
1629800388286,0.0511474609375,0.0455322265625,0.99993896484375
1629800388333,0.05218505859375,0.04437255859375,1.00244140625
1629800388333,0.056640625,0.049560546875,1.0018310546875
1629800388333,0.052734375,0.0440673828125,0.99981689453125
1629800388434,0.0526123046875,0.04168701171875,1.0054931640625
1629800388434,0.05511474609375,0.049072265625,1.00018310546875
1629800388434,0.0552978515625,0.04400634765625,1.002685546875
1629800388450,0.0589599609375,0.0382080078125,1.00360107421875
1629800388450,0.0562744140625,0.04217529296875,1.00048828125
1629800388450,0.05474853515625,0.04022216796875,1.00140380859375
1629800388497,0.05633544921875,0.03753662109375,0.99835205078125
1629800388497,0.05712890625,0.0513916015625,1.00042724609375
1629800388497,0.059814453125,0.04010009765625,1.002197265625
1629800388497,0.05938720703125,0.04833984375,1.00244140625
1629800388497,0.0594482421875,0.04327392578125,0.99951171875
1629800388497,0.05780029296875,0.03717041015625,1.00146484375
1629800388575,0.058349609375,0.05029296875,1.0074462890625
1629800388575,0.0574951171875,0.0474853515625,1.00592041015625
1629800388575,0.0611572265625,0.05169677734375,1.00274658203125
1629800388622,0.057373046875,0.04833984375,1.006591796875
1629800388622,0.05767822265625,0.04248046875,0.9990234375
1629800388622,0.0609130859375,0.04718017578125,0.993896484375
1629800388654,0.06451416015625,0.0450439453125,1.0006103515625
1629800388654,0.05731201171875,0.04351806640625,0.99407958984375
1629800388654,0.0615234375,0.04693603515625,0.9927978515625
1629800388770,0.0728759765625,0.05419921875,1.0233154296875
1629800388770,0.06781005859375,0.04962158203125,1.01678466796875
1629800388770,0.0703125,0.0439453125,1.0078125
1629800388848,0.06964111328125,0.06072998046875,1.02740478515625
1629800388848,0.0650634765625,0.06561279296875,1.01959228515625
1629800388848,0.0738525390625,0.05487060546875,1.02923583984375
1629800388925,0.06170654296875,0.065673828125,1.01141357421875
1629800388943,0.0477294921875,0.0467529296875,0.9979248046875
1629800388944,0.05169677734375,0.0494384765625,1.00238037109375
1629800388987,0.0299072265625,0.02783203125,0.980224609375
1629800388989,0.03485107421875,0.03558349609375,0.98992919921875
1629800388990,0.037353515625,0.03912353515625,0.9932861328125
1629800388994,0.02984619140625,0.0308837890625,0.98529052734375
1629800388994,0.029296875,0.02850341796875,0.9820556640625
1629800388994,0.03436279296875,0.02630615234375,0.98699951171875
1629800389034,0.032958984375,0.04150390625,0.99786376953125
1629800389034,0.03314208984375,0.0338134765625,0.98931884765625
1629800389035,0.03460693359375,0.03778076171875,0.99462890625
1629800389067,0.0426025390625,0.048095703125,0.99383544921875
1629800389067,0.04693603515625,0.06048583984375,0.9942626953125
1629800389067,0.04595947265625,0.0546875,0.9847412109375
1629800389160,0.0517578125,0.0625,0.99542236328125
1629800389160,0.0478515625,0.06158447265625,0.9932861328125
1629800389160,0.0517578125,0.05389404296875,1.0010986328125
1629800389222,0.05816650390625,0.03851318359375,1.0028076171875
1629800389237,0.0606689453125,0.0206298828125,0.9989013671875
1629800389237,0.05902099609375,0.02911376953125,1.00701904296875
1629800389269,0.062255859375,0.0179443359375,1.0052490234375
1629800389284,0.06439208984375,0.00762939453125,1.0115966796875
1629800389284,0.0643310546875,0.01361083984375,1.0054931640625
1629800389364,0.06512451171875,0.01763916015625,1.0003662109375
1629800389364,0.06982421875,0.0252685546875,0.997802734375
1629800389364,0.075927734375,0.03338623046875,0.99755859375
1629800389397,0.07952880859375,0.04437255859375,1.0030517578125
1629800389397,0.07940673828125,0.0399169921875,0.99560546875
1629800389397,0.08258056640625,0.04833984375,1.00457763671875
1629800389444,0.0816650390625,0.0455322265625,1.009521484375
1629800389445,0.085693359375,0.03216552734375,1.0206298828125
1629800389445,0.0816650390625,0.03973388671875,1.01885986328125
1629800389477,0.0804443359375,0.03289794921875,1.0224609375
1629800389478,0.0775146484375,0.03192138671875,1.01641845703125
1629800389478,0.08160400390625,0.03375244140625,1.0225830078125
1629800389523,0.078369140625,0.0345458984375,1.0113525390625
1629800389523,0.070556640625,0.0455322265625,1.0009765625
1629800389524,0.0751953125,0.03802490234375,1.01025390625
1629800389637,0.06402587890625,0.0482177734375,0.9940185546875
1629800389637,0.0699462890625,0.0433349609375,0.99481201171875
1629800389637,0.06427001953125,0.04742431640625,0.98992919921875
1629800389684,0.06610107421875,0.04400634765625,0.9892578125
1629800389684,0.06768798828125,0.04119873046875,0.99371337890625
1629800389684,0.0657958984375,0.05078125,0.9891357421875
1629800389730,0.07574462890625,0.0380859375,1.0009765625
1629800389730,0.06829833984375,0.041015625,0.99786376953125
1629800389730,0.07208251953125,0.0357666015625,0.99822998046875
1629800389824,0.0760498046875,0.03399658203125,1.00103759765625
1629800389824,0.0731201171875,0.03594970703125,1.01190185546875
1629800389824,0.07647705078125,0.033935546875,1.0069580078125
1629800389873,0.08038330078125,0.0418701171875,1.0096435546875
1629800389873,0.0762939453125,0.03900146484375,1.01171875
1629800389877,0.0762939453125,0.044921875,1.009033203125
1629800389918,0.07373046875,0.04632568359375,1.0023193359375
1629800389918,0.069580078125,0.0418701171875,1.009033203125
1629800389918,0.0743408203125,0.046875,1.0015869140625
1629800389981,0.06982421875,0.0377197265625,0.99688720703125
1629800389981,0.06585693359375,0.04156494140625,1.003173828125
1629800389981,0.07061767578125,0.04193115234375,0.99853515625
1629800390075,0.0682373046875,0.03802490234375,0.996826171875
1629800390075,0.06488037109375,0.0426025390625,0.99566650390625
1629800390075,0.0692138671875,0.03936767578125,1.0001220703125
1629800390159,0.06829833984375,0.04034423828125,1.0
1629800390162,0.0631103515625,0.03887939453125,0.99517822265625
1629800390162,0.0635986328125,0.03582763671875,0.99713134765625
1629800390179,0.068115234375,0.0369873046875,0.997802734375
1629800390181,0.071533203125,0.03887939453125,1.0030517578125
1629800390181,0.06689453125,0.03717041015625,0.9979248046875
1629800390253,0.069091796875,0.03704833984375,1.0028076171875
1629800390253,0.07586669921875,0.03961181640625,1.0018310546875
1629800390262,0.07415771484375,0.0382080078125,1.00579833984375
1629800390280,0.07598876953125,0.03948974609375,1.0091552734375
1629800390285,0.0732421875,0.03912353515625,1.00665283203125
1629800390288,0.07611083984375,0.041015625,1.00830078125
1629800390343,0.07110595703125,0.04058837890625,1.00433349609375
1629800390343,0.069091796875,0.04107666015625,1.00311279296875
1629800390345,0.07818603515625,0.0416259765625,1.007080078125
1629800390375,0.0682373046875,0.037841796875,0.99847412109375
1629800390375,0.070068359375,0.03839111328125,0.99298095703125
1629800390375,0.06756591796875,0.04052734375,0.99652099609375
1629800390437,0.0709228515625,0.04132080078125,0.9974365234375
1629800390437,0.07086181640625,0.037109375,0.9970703125
1629800390437,0.0660400390625,0.0399169921875,0.99835205078125
1629800390500,0.07183837890625,0.04010009765625,1.00341796875
1629800390510,0.07135009765625,0.03912353515625,1.0025634765625
1629800390510,0.07281494140625,0.04071044921875,1.00946044921875
1629800390593,0.07550048828125,0.04241943359375,1.00201416015625
1629800390594,0.07281494140625,0.0394287109375,1.00274658203125
1629800390594,0.0772705078125,0.04254150390625,1.0009765625
1629800390641,0.0738525390625,0.042724609375,1.00006103515625
1629800390641,0.07275390625,0.03875732421875,1.00592041015625
1629800390642,0.07025146484375,0.040283203125,0.99835205078125
1629800390673,0.0745849609375,0.04156494140625,0.99920654296875
1629800390690,0.07257080078125,0.04150390625,1.0125732421875
1629800390690,0.0758056640625,0.04119873046875,0.99603271484375
1629800390721,0.08074951171875,0.0439453125,0.9967041015625
1629800390721,0.08135986328125,0.0440673828125,1.00408935546875
1629800390721,0.07586669921875,0.04107666015625,0.9979248046875
1629800390829,0.07720947265625,0.04443359375,1.0030517578125
1629800390829,0.0755615234375,0.047607421875,1.0086669921875
1629800390829,0.0753173828125,0.04425048828125,1.00469970703125
1629800390860,0.07293701171875,0.04571533203125,1.01141357421875
1629800390860,0.07440185546875,0.0458984375,0.998046875
1629800390860,0.07281494140625,0.0426025390625,1.0106201171875
1629800390954,0.07421875,0.04388427734375,0.98809814453125
1629800390955,0.0709228515625,0.04034423828125,0.99066162109375
1629800390955,0.07269287109375,0.03875732421875,0.9896240234375
1629800390986,0.07373046875,0.03814697265625,0.9945068359375
1629800391002,0.07269287109375,0.0361328125,1.01348876953125
1629800391033,0.074462890625,0.0391845703125,0.99810791015625
1629800391033,0.07733154296875,0.0418701171875,1.00726318359375
1629800391033,0.0762939453125,0.04150390625,1.0159912109375
1629800391081,0.0745849609375,0.0443115234375,0.99346923828125
1629800391081,0.0775146484375,0.043701171875,0.99188232421875
1629800391081,0.0733642578125,0.041748046875,0.99749755859375
1629800391193,0.078125,0.04315185546875,0.99444580078125
1629800391194,0.07171630859375,0.040283203125,0.9842529296875
1629800391194,0.07220458984375,0.04119873046875,1.0147705078125
1629800391256,0.08148193359375,0.0404052734375,0.99609375
1629800391256,0.078857421875,0.03741455078125,1.01092529296875
1629800391256,0.0771484375,0.03851318359375,0.99835205078125
1629800391288,0.0831298828125,0.0389404296875,0.9964599609375
1629800391288,0.08074951171875,0.03759765625,0.99530029296875
1629800391289,0.08135986328125,0.03924560546875,0.99383544921875
1629800391336,0.0850830078125,0.037353515625,1.0047607421875
1629800391336,0.08404541015625,0.0394287109375,0.9970703125
1629800391336,0.08294677734375,0.03753662109375,1.00958251953125
1629800391399,0.09332275390625,0.0379638671875,0.990478515625
1629800391399,0.0885009765625,0.0389404296875,0.9930419921875
1629800391399,0.084716796875,0.03387451171875,1.00604248046875
1629800391436,0.09356689453125,0.03411865234375,0.9923095703125
1629800391436,0.096923828125,0.044677734375,0.98895263671875
1629800391436,0.094482421875,0.04156494140625,0.99639892578125
1629800391546,0.0968017578125,0.0416259765625,1.00732421875
1629800391546,0.091552734375,0.043212890625,1.0333251953125
1629800391546,0.09698486328125,0.04522705078125,1.029052734375
1629800391593,0.1080322265625,0.0391845703125,0.96697998046875
1629800391593,0.09576416015625,0.0467529296875,1.03021240234375
1629800391593,0.10394287109375,0.041259765625,0.96636962890625
1629800391655,0.1048583984375,0.03424072265625,0.97198486328125
1629800391655,0.11163330078125,0.0323486328125,0.9639892578125
1629800391655,0.107421875,0.03167724609375,0.968017578125
1629800391686,0.1165771484375,0.02593994140625,0.95562744140625
1629800391686,0.11492919921875,0.0316162109375,0.98681640625
1629800391702,0.11602783203125,0.04638671875,1.040283203125
1629800391754,0.11578369140625,0.04876708984375,1.01458740234375
1629800391754,0.11566162109375,0.05859375,0.9654541015625
1629800391754,0.12103271484375,0.0694580078125,0.955078125
1629800391801,0.11962890625,0.084228515625,0.952880859375
1629800391801,0.11517333984375,0.08673095703125,0.9599609375
1629800391801,0.11614990234375,0.0894775390625,0.9407958984375
1629800391910,0.14453125,0.01544189453125,0.93450927734375
1629800391910,0.124755859375,0.07379150390625,0.907470703125
1629800391910,0.1343994140625,0.0419921875,0.937255859375
1629800391955,0.16900634765625,-0.02288818359375,0.95819091796875
1629800391955,0.1572265625,-0.00970458984375,0.935546875
1629800391955,0.1466064453125,-0.001220703125,0.94329833984375
1629800391971,0.2823486328125,-0.11700439453125,0.89898681640625
1629800391987,0.20458984375,-0.05096435546875,0.9476318359375
1629800391987,0.23760986328125,-0.08709716796875,0.937255859375
1629800392065,0.37103271484375,-0.14019775390625,0.941650390625
1629800392065,0.33026123046875,-0.1439208984375,0.900146484375
1629800392065,0.397705078125,-0.1080322265625,0.998779296875
1629800392080,0.45233154296875,-0.03765869140625,1.0335693359375
1629800392080,0.427490234375,-0.07586669921875,1.0166015625
1629800392080,0.46490478515625,0.0006103515625,1.066650390625
1629800392143,0.4620361328125,0.00885009765625,1.01263427734375
1629800392143,0.468017578125,0.0009765625,1.04010009765625
1629800392159,0.4713134765625,0.0032958984375,1.06793212890625
1629800392236,0.44354248046875,0.02777099609375,0.994873046875
1629800392236,0.4378662109375,0.0400390625,0.9625244140625
1629800392255,0.4283447265625,0.05096435546875,0.94329833984375
1629800392270,-1.3271484375,-0.2347412109375,1.665283203125
1629800392270,0.44818115234375,0.0277099609375,0.51348876953125
1629800392270,0.376953125,-0.00054931640625,0.62939453125
1629800392332,0.39617919921875,0.03985595703125,0.88494873046875
1629800392332,0.38916015625,0.04815673828125,1.0408935546875
1629800392332,0.38763427734375,0.044677734375,0.85498046875
1629800392395,0.37908935546875,0.0035400390625,0.86297607421875
1629800392395,0.3646240234375,0.0364990234375,0.8968505859375
1629800392397,0.36553955078125,0.0439453125,0.88092041015625
1629800392506,0.38543701171875,-0.0274658203125,0.8642578125
1629800392521,0.44525146484375,-0.051025390625,0.9659423828125
1629800392521,0.44061279296875,-0.0565185546875,0.959228515625
1629800392521,0.42926025390625,-0.06146240234375,0.9114990234375
1629800392524,0.39862060546875,-0.04083251953125,0.879638671875
1629800392526,0.398193359375,-0.0146484375,0.9405517578125
1629800392567,0.4415283203125,-0.0323486328125,0.97552490234375
1629800392582,0.43853759765625,-0.01971435546875,0.95751953125
1629800392582,0.43707275390625,-0.03057861328125,0.96307373046875
1629800392660,0.434326171875,-0.02362060546875,0.95751953125
1629800392675,0.4287109375,-0.02008056640625,0.93463134765625
1629800392675,0.42010498046875,-0.0323486328125,0.91815185546875
1629800392696,0.401123046875,-0.0308837890625,0.97552490234375
1629800392697,0.3878173828125,-0.0450439453125,0.96539306640625
1629800392698,0.39007568359375,-0.04144287109375,0.9830322265625
1629800392721,0.36395263671875,-0.0205078125,0.96795654296875
1629800392721,0.3912353515625,-0.02777099609375,0.89129638671875
1629800392721,0.37921142578125,-0.0233154296875,1.00091552734375
1629800392787,0.34783935546875,-0.00262451171875,0.9588623046875
1629800392789,0.32379150390625,-0.005615234375,1.0145263671875
1629800392789,0.35595703125,0.006103515625,0.89715576171875
1629800392883,0.29547119140625,-0.057861328125,0.97552490234375
1629800392883,0.303466796875,-0.0330810546875,0.90399169921875
1629800392883,0.302001953125,-0.01885986328125,0.97967529296875
1629800392899,0.26849365234375,-0.0567626953125,0.928466796875
1629800392899,0.2303466796875,-0.02337646484375,0.9334716796875
1629800392899,0.2613525390625,-0.0423583984375,0.88543701171875
1629800392961,0.21173095703125,-0.0377197265625,0.99078369140625
1629800392961,0.23883056640625,-0.00341796875,0.9180908203125
1629800392961,0.2257080078125,-0.02642822265625,0.9462890625
1629800393008,0.15313720703125,-0.04974365234375,1.01220703125
1629800393008,0.17852783203125,-0.02215576171875,0.9827880859375
1629800393008,0.19097900390625,-0.03582763671875,0.97760009765625
1629800393151,0.14910888671875,-0.125244140625,1.0462646484375
1629800393151,0.1453857421875,-0.0616455078125,1.0203857421875
1629800393151,0.12469482421875,-0.07891845703125,1.0478515625
1629800393182,0.16131591796875,0.01690673828125,0.99676513671875
1629800393182,0.1170654296875,0.016845703125,1.02008056640625
1629800393182,0.04132080078125,-0.007080078125,1.0343017578125
1629800393182,0.11517333984375,0.0281982421875,0.96160888671875
1629800393198,0.11907958984375,-0.00579833984375,0.9854736328125
1629800393198,0.1363525390625,0.02252197265625,1.00421142578125
1629800393264,0.054443359375,-0.0733642578125,1.0152587890625
1629800393268,0.038330078125,-0.06536865234375,1.00360107421875
1629800393269,0.0526123046875,-0.09307861328125,0.98681640625
1629800393321,0.0103759765625,-0.0184326171875,1.05517578125
1629800393321,-6.103515625e-05,-0.00811767578125,1.02606201171875
1629800393321,-0.049072265625,-0.069580078125,1.0302734375
1629800393399,-0.12640380859375,-0.1407470703125,1.04730224609375
1629800393399,-0.0423583984375,-0.1063232421875,0.99810791015625
1629800393415,-0.03057861328125,-0.06573486328125,1.00799560546875
1629800393446,1.999755859375,1.68170166015625,0.805908203125
1629800393446,-1.997802734375,-1.97149658203125,0.25372314453125
1629800393446,1.999755859375,-1.1470947265625,-1.98187255859375
1629800393508,0.2899169921875,0.18817138671875,0.79937744140625
1629800393524,0.943603515625,0.4818115234375,0.80938720703125
1629800393524,1.0618896484375,0.4969482421875,0.9971923828125
1629800393555,0.37823486328125,0.21563720703125,1.0008544921875
1629800393555,0.13214111328125,-0.12432861328125,1.06744384765625
1629800393555,0.0228271484375,-0.0206298828125,0.9951171875
1629800393618,0.10498046875,-0.2083740234375,1.04803466796875
1629800393633,0.15234375,-0.0975341796875,1.12115478515625
1629800393633,0.234130859375,-0.19256591796875,1.0316162109375
1629800393743,0.85260009765625,0.17095947265625,0.9443359375
1629800393743,0.2957763671875,0.00341796875,0.98992919921875
1629800393743,0.10693359375,-0.04583740234375,1.06085205078125
1629800393774,0.185791015625,-0.0115966796875,0.94866943359375
1629800393774,1.999755859375,0.679443359375,1.40899658203125
1629800393774,0.27252197265625,0.07440185546875,1.02117919921875
1629800393821,0.1385498046875,-0.02557373046875,0.9674072265625
1629800393821,0.17041015625,0.001953125,1.0009765625
1629800393821,0.16815185546875,0.00225830078125,0.98663330078125
1629800393883,0.1500244140625,-0.03289794921875,0.988037109375
1629800393883,0.13677978515625,-0.04168701171875,0.97271728515625
1629800393883,0.13897705078125,-0.03363037109375,0.975830078125
1629800393930,0.12896728515625,-0.0255126953125,0.98944091796875
1629800393930,0.17401123046875,-0.00299072265625,1.02191162109375
1629800393930,0.1573486328125,-0.018798828125,0.97412109375
1629800393977,0.1717529296875,-0.028076171875,0.9722900390625
1629800393977,0.18359375,-0.01214599609375,0.99908447265625
1629800393977,0.17022705078125,-0.005859375,1.01690673828125
1629800394039,0.17803955078125,-0.0166015625,0.97601318359375
1629800394039,0.188720703125,-0.01690673828125,0.9661865234375
1629800394039,0.18902587890625,-0.00341796875,0.98724365234375
1629800394105,0.19390869140625,0.0137939453125,1.026123046875
1629800394105,0.21099853515625,0.01995849609375,1.0048828125
1629800394121,0.19384765625,0.00238037109375,1.00927734375
1629800394152,0.200439453125,0.02520751953125,1.10162353515625
1629800394167,0.20562744140625,0.02496337890625,1.090087890625
1629800394167,0.21240234375,0.0201416015625,1.08050537109375
1629800394214,0.20892333984375,0.07373046875,1.104248046875
1629800394214,0.20263671875,0.0477294921875,1.101318359375
1629800394214,0.20648193359375,0.057373046875,1.06842041015625
1629800394308,0.10400390625,0.00299072265625,0.9493408203125
1629800394308,0.134765625,0.0216064453125,1.004150390625
1629800394308,0.1737060546875,0.04278564453125,1.04681396484375
1629800394324,0.02410888671875,-0.064453125,0.85760498046875
1629800394324,0.046875,-0.0560302734375,0.87652587890625
1629800394324,0.0748291015625,-0.0137939453125,0.91339111328125
1629800394387,0.0345458984375,-0.0299072265625,0.96795654296875
1629800394387,0.02862548828125,-0.04962158203125,0.9033203125
1629800394387,0.01873779296875,-0.06658935546875,0.86138916015625
1629800394433,0.05572509765625,0.0380859375,0.97747802734375
1629800394433,0.0452880859375,-0.00787353515625,0.9874267578125
1629800394433,0.0753173828125,0.1153564453125,1.0819091796875
1629800394511,0.042236328125,0.07025146484375,0.9603271484375
1629800394511,0.0518798828125,0.05078125,1.0079345703125
1629800394511,0.0562744140625,0.0535888671875,0.9901123046875
1629800394571,0.076171875,0.08160400390625,1.0479736328125
1629800394571,0.0679931640625,0.07684326171875,1.01678466796875
1629800394571,0.0810546875,0.05120849609375,1.02276611328125
1629800394649,0.05511474609375,0.08941650390625,0.96630859375
1629800394649,0.05853271484375,0.087158203125,0.993896484375
1629800394649,0.05426025390625,0.07891845703125,0.94268798828125
1629800394680,0.06134033203125,0.0701904296875,0.96539306640625
1629800394680,0.0693359375,0.07025146484375,1.02142333984375
1629800394680,0.07305908203125,0.0592041015625,1.00128173828125
1629800394755,0.081298828125,0.072509765625,1.0103759765625
1629800394755,0.083740234375,0.0665283203125,0.98382568359375
1629800394755,0.076171875,0.05255126953125,0.97967529296875
1629800394802,0.10382080078125,0.08111572265625,1.0556640625
1629800394802,0.09759521484375,0.0655517578125,1.0618896484375
1629800394802,0.09942626953125,0.05096435546875,1.00799560546875
1629800394871,0.0999755859375,0.07830810546875,0.9837646484375
1629800394871,0.10089111328125,0.06134033203125,1.00640869140625
1629800394871,0.100341796875,0.0711669921875,0.9896240234375
1629800394934,0.0955810546875,0.1033935546875,1.0164794921875
1629800394934,0.095458984375,0.07489013671875,0.98736572265625
1629800394934,0.0899658203125,0.09368896484375,1.018798828125
1629800394965,0.08563232421875,0.074951171875,0.97674560546875
1629800394965,0.08489990234375,0.09051513671875,0.9896240234375
1629800394965,0.0931396484375,0.0894775390625,1.00299072265625
1629800395059,0.09100341796875,0.08624267578125,1.00439453125
1629800395059,0.0859375,0.0859375,1.00286865234375
1629800395059,0.09161376953125,0.093017578125,1.008056640625
1629800395108,0.07379150390625,0.10321044921875,0.99981689453125
1629800395108,0.074462890625,0.107177734375,0.9931640625
1629800395125,0.0772705078125,0.089111328125,1.008544921875
1629800395140,0.087890625,0.10504150390625,1.0460205078125
1629800395140,0.0811767578125,0.10882568359375,1.02996826171875
1629800395140,0.08074951171875,0.09417724609375,1.0399169921875
1629800395234,0.0843505859375,0.11846923828125,1.09375
1629800395234,0.0777587890625,0.1151123046875,1.0419921875
1629800395234,0.07867431640625,0.10699462890625,1.0892333984375
1629800395265,0.06024169921875,0.14910888671875,1.07647705078125
1629800395281,0.079833984375,0.111572265625,1.07586669921875
1629800395343,0.001708984375,0.165283203125,1.05206298828125
1629800395343,0.025146484375,0.17169189453125,1.07672119140625
1629800395343,0.0457763671875,0.16595458984375,1.086669921875
1629800395406,-0.04876708984375,0.16162109375,1.0299072265625
1629800395406,-0.020751953125,0.15887451171875,1.02716064453125
1629800395406,-0.07763671875,0.1517333984375,1.0345458984375
1629800395453,-0.10888671875,0.13531494140625,1.0120849609375
1629800395453,-0.1689453125,0.09259033203125,0.9315185546875
1629800395453,-0.13433837890625,0.10894775390625,0.95068359375
1629800395499,-0.23712158203125,0.09649658203125,0.89276123046875
1629800395499,-0.19781494140625,0.09637451171875,0.91943359375
1629800395499,-0.27099609375,0.08612060546875,0.8441162109375
1629800395566,-0.306640625,0.0709228515625,0.8392333984375
1629800395566,-0.3360595703125,0.05450439453125,0.82354736328125
1629800395566,-0.35858154296875,0.0350341796875,0.8292236328125
1629800395613,-0.37432861328125,0.0250244140625,0.81805419921875
1629800395628,-0.39080810546875,0.0169677734375,0.81866455078125
1629800395628,-0.4027099609375,0.03131103515625,0.83697509765625
1629800395675,-0.40582275390625,0.05694580078125,0.851318359375
1629800395675,-0.40557861328125,0.07391357421875,0.8553466796875
1629800395675,-0.4052734375,0.07000732421875,0.86041259765625
1629800395753,-0.3975830078125,0.07293701171875,0.8555908203125
1629800395753,-0.3953857421875,0.08526611328125,0.86474609375
1629800395753,-0.4005126953125,0.09814453125,0.8712158203125
1629800395831,-0.39007568359375,0.11614990234375,0.8359375
1629800395831,-0.3990478515625,0.1053466796875,0.86199951171875
1629800395831,-0.3961181640625,0.1099853515625,0.84454345703125
1629800395863,-0.383544921875,0.1278076171875,0.84808349609375
1629800395863,-0.37200927734375,0.13604736328125,0.870849609375
1629800395863,-0.35906982421875,0.13494873046875,0.879638671875
1629800395925,-0.3262939453125,0.12359619140625,0.903076171875
1629800395925,-0.34490966796875,0.1336669921875,0.8846435546875
1629800395925,-0.34075927734375,0.12921142578125,0.8946533203125
1629800395956,-0.31219482421875,0.1240234375,0.89990234375
1629800395956,-0.27099609375,0.12109375,0.947998046875
1629800395956,-0.2879638671875,0.12628173828125,0.90234375
1629800396034,-0.20166015625,0.091064453125,1.0369873046875
1629800396034,-0.217529296875,0.10205078125,1.02899169921875
1629800396034,-0.2408447265625,0.11285400390625,0.998291015625
1629800396128,-0.19598388671875,0.0810546875,1.03314208984375
1629800396143,-0.18682861328125,0.07623291015625,1.02099609375
1629800396143,-0.17303466796875,0.07403564453125,1.02484130859375
1629800396143,-0.1693115234375,0.070556640625,1.00994873046875
1629800396143,-0.1795654296875,0.07269287109375,1.025634765625
1629800396162,-0.16741943359375,0.06964111328125,0.99774169921875
1629800396209,-0.17254638671875,0.07330322265625,0.99334716796875
1629800396224,-0.17266845703125,0.07513427734375,0.9912109375
1629800396224,-0.178466796875,0.07403564453125,1.00390625
1629800396271,-0.18402099609375,0.0709228515625,1.0018310546875
1629800396271,-0.183837890625,0.06927490234375,1.00347900390625
1629800396287,-0.19366455078125,0.0712890625,0.998291015625
1629800396349,-0.1968994140625,0.0657958984375,0.99603271484375
1629800396349,-0.2010498046875,0.06097412109375,0.97088623046875
1629800396349,-0.19927978515625,0.05908203125,0.97955322265625
1629800396380,-0.199462890625,0.06268310546875,0.97296142578125
1629800396380,-0.20074462890625,0.065673828125,0.97686767578125
1629800396380,-0.20355224609375,0.0709228515625,0.97357177734375
1629800396443,-0.20184326171875,0.08154296875,0.9608154296875
1629800396443,-0.20184326171875,0.0789794921875,0.9659423828125
1629800396459,-0.20208740234375,0.0838623046875,0.96502685546875
1629800396521,-0.200927734375,0.0833740234375,0.9757080078125
1629800396521,-0.19927978515625,0.0865478515625,0.96728515625
1629800396521,-0.19769287109375,0.08099365234375,0.96905517578125
1629800396583,-0.18841552734375,0.0770263671875,0.97406005859375
1629800396583,-0.195556640625,0.07781982421875,0.972412109375
1629800396583,-0.1943359375,0.07513427734375,0.97613525390625
1629800396615,-0.183349609375,0.0848388671875,0.96746826171875
1629800396615,-0.18511962890625,0.08428955078125,0.9730224609375
1629800396615,-0.17779541015625,0.08734130859375,0.97314453125
1629800396695,-0.17169189453125,0.08990478515625,0.985595703125
1629800396695,-0.1751708984375,0.08465576171875,0.9805908203125
1629800396695,-0.1702880859375,0.0841064453125,0.9849853515625
1629800396789,-0.170654296875,0.09210205078125,0.9814453125
1629800396805,-0.1649169921875,0.09625244140625,0.97930908203125
1629800396805,-0.16778564453125,0.091064453125,0.98052978515625
1629800396805,-0.16748046875,0.09393310546875,0.97821044921875
1629800396820,-0.1632080078125,0.0950927734375,0.98211669921875
1629800396820,-0.162353515625,0.09490966796875,0.98455810546875
1629800396898,-0.1611328125,0.091796875,0.98492431640625
1629800396898,-0.16162109375,0.09326171875,0.98297119140625
1629800396898,-0.15850830078125,0.09283447265625,0.98370361328125
1629800396930,-0.15557861328125,0.0950927734375,0.98583984375
1629800396930,-0.1546630859375,0.091796875,0.9814453125
1629800396930,-0.1572265625,0.08941650390625,0.98236083984375
1629800397023,-0.15478515625,0.09423828125,0.99371337890625
1629800397023,-0.15472412109375,0.0926513671875,0.9969482421875
1629800397023,-0.15655517578125,0.0882568359375,0.98797607421875
1629800397023,-0.1514892578125,0.08856201171875,0.9937744140625
1629800397023,-0.15185546875,0.09002685546875,0.99267578125
1629800397023,-0.155029296875,0.0928955078125,0.98687744140625
1629800397086,-0.1551513671875,0.08624267578125,0.9892578125
1629800397086,-0.15606689453125,0.08892822265625,0.98297119140625
1629800397086,-0.15667724609375,0.0889892578125,0.98681640625
1629800397229,-0.15765380859375,0.08905029296875,0.980712890625
1629800397229,-0.16021728515625,0.08624267578125,0.97479248046875
1629800397229,-0.1583251953125,0.08770751953125,0.97528076171875
1629800397261,-0.15435791015625,0.081787109375,0.9735107421875
1629800397276,-0.1590576171875,0.085205078125,0.97222900390625
1629800397276,-0.159423828125,0.08050537109375,0.96856689453125
1629800397307,-0.15301513671875,0.08087158203125,0.99395751953125
1629800397307,-0.15411376953125,0.08233642578125,0.99298095703125
1629800397307,-0.1527099609375,0.08203125,0.9859619140625
1629800397339,-0.1534423828125,0.08038330078125,0.99578857421875
1629800397339,-0.15386962890625,0.08221435546875,0.994140625
1629800397354,-0.15338134765625,0.079833984375,1.00103759765625
1629800397424,-0.1563720703125,0.0819091796875,0.98321533203125
1629800397424,-0.15069580078125,0.0782470703125,0.98468017578125
1629800397424,-0.15625,0.08984375,0.98321533203125
1629800397502,-0.1563720703125,0.08868408203125,0.98236083984375
1629800397502,-0.15228271484375,0.08758544921875,0.980224609375
1629800397502,-0.1568603515625,0.08416748046875,0.984130859375
1629800397502,-0.15447998046875,0.09283447265625,0.98358154296875
1629800397502,-0.1568603515625,0.08843994140625,0.97955322265625
1629800397502,-0.153564453125,0.08380126953125,0.9796142578125
1629800397564,-0.15411376953125,0.0821533203125,0.98541259765625
1629800397564,-0.152099609375,0.079833984375,0.9871826171875
1629800397564,-0.15533447265625,0.08502197265625,0.98663330078125
1629800397658,-0.15338134765625,0.08154296875,0.98016357421875
1629800397658,-0.15185546875,0.08050537109375,0.9774169921875
1629800397658,-0.15350341796875,0.08148193359375,0.98077392578125
1629800397689,-0.1522216796875,0.08880615234375,0.98651123046875
1629800397705,-0.15142822265625,0.0855712890625,0.98388671875
1629800397705,-0.149658203125,0.0860595703125,0.982421875
1629800397767,-0.15435791015625,0.08758544921875,0.9825439453125
1629800397767,-0.1510009765625,0.08502197265625,0.98553466796875
1629800397767,-0.1533203125,0.08331298828125,0.98382568359375
1629800397814,-0.1513671875,0.08306884765625,0.98529052734375
1629800397814,-0.1490478515625,0.08282470703125,0.98162841796875
1629800397814,-0.14849853515625,0.0841064453125,0.98931884765625
1629800397939,-0.15179443359375,0.08184814453125,0.985595703125
1629800397939,-0.1510009765625,0.08087158203125,0.98455810546875
1629800397939,-0.1480712890625,0.0799560546875,0.9903564453125
1629800397986,-0.1478271484375,0.082275390625,0.9893798828125
1629800397986,-0.1490478515625,0.07916259765625,0.98687744140625
1629800397986,-0.14862060546875,0.0823974609375,0.98907470703125
1629800398002,-0.15008544921875,0.0809326171875,0.98834228515625
1629800398002,-0.1510009765625,0.08331298828125,0.98175048828125
1629800398002,-0.15234375,0.081298828125,0.98675537109375
1629800398049,-0.15673828125,0.0814208984375,0.98016357421875
1629800398049,-0.15789794921875,0.08551025390625,0.98077392578125
1629800398049,-0.15216064453125,0.08258056640625,0.9825439453125
1629800398111,-0.15386962890625,0.0811767578125,0.98004150390625
1629800398111,-0.1527099609375,0.08245849609375,0.97564697265625
1629800398111,-0.14874267578125,0.07928466796875,0.9783935546875
1629800398157,-0.150146484375,0.0762939453125,0.98626708984375
1629800398157,-0.14898681640625,0.0745849609375,0.98309326171875
1629800398157,-0.147216796875,0.08154296875,0.98748779296875
1629800398222,-0.15057373046875,0.0855712890625,0.98773193359375
1629800398222,-0.1483154296875,0.0819091796875,0.98956298828125
1629800398222,-0.146240234375,0.0855712890625,0.9884033203125
1629800398300,-0.148193359375,0.08197021484375,0.9884033203125
1629800398315,-0.15008544921875,0.0860595703125,0.98931884765625
1629800398315,-0.1494140625,0.0845947265625,0.98638916015625
1629800398440,-0.1524658203125,0.079345703125,0.98944091796875
1629800398440,-0.14990234375,0.0772705078125,0.98773193359375
1629800398440,-0.15069580078125,0.07586669921875,0.98968505859375
1629800398456,-0.15008544921875,0.07928466796875,0.985595703125
1629800398472,-0.155029296875,0.0789794921875,0.987548828125
1629800398472,-0.14984130859375,0.0789794921875,0.98199462890625
1629800398503,-0.153076171875,0.08123779296875,0.98663330078125
1629800398503,-0.14935302734375,0.079833984375,0.98773193359375
1629800398503,-0.152587890625,0.08258056640625,0.98345947265625
1629800398503,-0.1473388671875,0.0804443359375,0.985595703125
1629800398503,-0.14959716796875,0.08056640625,0.98468017578125
1629800398503,-0.14544677734375,0.08062744140625,0.979736328125
1629800398581,-0.1475830078125,0.08013916015625,0.9830322265625
1629800398581,-0.144287109375,0.08154296875,0.98291015625
1629800398581,-0.14837646484375,0.0823974609375,0.9805908203125
1629800398675,-0.14862060546875,0.08062744140625,0.98797607421875
1629800398675,-0.1468505859375,0.08111572265625,0.99029541015625
1629800398675,-0.14825439453125,0.0799560546875,0.9835205078125
1629800398753,-0.14739990234375,0.08392333984375,0.9925537109375
1629800398753,-0.15179443359375,0.0804443359375,0.99114990234375
1629800398753,-0.148193359375,0.08056640625,0.98455810546875
1629800398753,-0.14825439453125,0.0775146484375,0.9818115234375
1629800398753,-0.14923095703125,0.08111572265625,0.9892578125
1629800398753,-0.15185546875,0.0838623046875,0.98736572265625
1629800398831,-0.14996337890625,0.08099365234375,0.98382568359375
1629800398831,-0.15130615234375,0.08160400390625,0.9864501953125
1629800398831,-0.1490478515625,0.07891845703125,0.9822998046875
1629800398862,-0.15362548828125,0.074951171875,0.98211669921875
1629800398862,-0.150390625,0.077880859375,0.98211669921875
1629800398862,-0.14886474609375,0.0760498046875,0.9857177734375
1629800398940,-0.146240234375,0.0787353515625,0.98419189453125
1629800398940,-0.14801025390625,0.08172607421875,0.9798583984375
1629800398940,-0.144287109375,0.07568359375,0.98663330078125
1629800398987,-0.1422119140625,0.0833740234375,0.98712158203125
1629800398987,-0.142822265625,0.08203125,0.98846435546875
1629800398987,-0.14471435546875,0.08056640625,0.9942626953125
1629800399050,-0.14337158203125,0.08251953125,0.98651123046875
1629800399050,-0.14215087890625,0.08319091796875,0.9827880859375
1629800399050,-0.1441650390625,0.08428955078125,0.98712158203125
1629800399112,-0.14593505859375,0.08062744140625,0.98529052734375
1629800399128,-0.14508056640625,0.07720947265625,0.98699951171875
1629800399128,-0.14459228515625,0.0767822265625,0.98138427734375
1629800399190,-0.1468505859375,0.0792236328125,0.9840087890625
1629800399190,-0.1451416015625,0.0760498046875,0.98883056640625
1629800399190,-0.1453857421875,0.07684326171875,0.98846435546875
1629800399221,-0.14483642578125,0.07745361328125,0.99176025390625
1629800399221,-0.1461181640625,0.0789794921875,0.98553466796875
1629800399221,-0.14410400390625,0.0799560546875,0.98248291015625
1629800399303,-0.146240234375,0.08221435546875,0.98370361328125
1629800399303,-0.14495849609375,0.08111572265625,0.98907470703125
1629800399303,-0.14508056640625,0.08099365234375,0.9815673828125
1629800399334,-0.1434326171875,0.0784912109375,0.9837646484375
1629800399334,-0.14453125,0.080810546875,0.9874267578125
1629800399334,-0.1468505859375,0.082763671875,0.984375
1629800399412,-0.1435546875,0.0772705078125,0.9876708984375
1629800399412,-0.14599609375,0.07794189453125,0.98529052734375
1629800399412,-0.14459228515625,0.08154296875,0.988525390625
1629800399475,-0.14544677734375,0.07684326171875,0.9869384765625
1629800399475,-0.140869140625,0.0791015625,0.9873046875
1629800399475,-0.1424560546875,0.07647705078125,0.99005126953125
1629800399537,-0.1435546875,0.07318115234375,0.98980712890625
1629800399537,-0.14227294921875,0.0751953125,0.9888916015625
1629800399537,-0.14483642578125,0.076416015625,0.98712158203125
1629800399568,-0.145751953125,0.0806884765625,0.98687744140625
1629800399568,-0.14202880859375,0.0787353515625,0.9853515625
1629800399568,-0.1461181640625,0.07391357421875,0.9847412109375
1629800399693,-0.14617919921875,0.07672119140625,0.98687744140625
1629800399709,-0.1492919921875,0.07855224609375,0.98388671875
1629800399709,-0.14691162109375,0.07861328125,0.99151611328125
1629800399709,-0.1470947265625,0.0794677734375,0.98663330078125
1629800399709,-0.14141845703125,0.08050537109375,0.9876708984375
1629800399709,-0.14453125,0.07720947265625,0.983642578125
1629800399787,-0.14398193359375,0.0731201171875,0.984130859375
1629800399787,-0.14007568359375,0.072509765625,0.9853515625
1629800399787,-0.14483642578125,0.07647705078125,0.9862060546875
1629800399818,-0.14031982421875,0.07275390625,0.98590087890625
1629800399818,-0.13861083984375,0.07861328125,0.9920654296875
1629800399818,-0.137939453125,0.07403564453125,0.98980712890625
1629800399865,-0.1417236328125,0.083251953125,0.988525390625
1629800399865,-0.1422119140625,0.08514404296875,0.98583984375
1629800399865,-0.14202880859375,0.07763671875,0.98638916015625
1629800399974,-0.1407470703125,0.08221435546875,0.98468017578125
1629800399974,-0.14361572265625,0.08087158203125,0.98822021484375
1629800399974,-0.1429443359375,0.08209228515625,0.986572265625
1629800400071,-0.14849853515625,0.07415771484375,0.9832763671875
1629800400071,-0.14569091796875,0.07196044921875,0.984375
1629800400071,-0.1448974609375,0.07318115234375,0.981689453125
1629800400086,-0.14501953125,0.07958984375,0.98309326171875
1629800400086,-0.146728515625,0.076904296875,0.9840087890625
1629800400086,-0.14471435546875,0.0771484375,0.984375
1629800400133,-0.14056396484375,0.075439453125,0.9923095703125
1629800400133,-0.14239501953125,0.07647705078125,0.98858642578125
1629800400180,-0.14117431640625,0.08074951171875,0.99871826171875
1629800400180,-0.14056396484375,0.07843017578125,0.99224853515625
1629800400180,-0.138671875,0.080078125,0.98828125
1629800400238,-0.13671875,0.07965087890625,1.0042724609375
1629800400238,-0.1361083984375,0.08233642578125,1.0126953125
1629800400238,-0.13970947265625,0.0831298828125,1.00299072265625
1629800400285,-0.13671875,0.08428955078125,1.02899169921875
1629800400285,-0.1353759765625,0.08966064453125,1.0281982421875
1629800400285,-0.1378173828125,0.08624267578125,1.0277099609375
1629800400378,-0.1387939453125,0.09259033203125,1.04095458984375
1629800400378,-0.14599609375,0.0914306640625,1.03814697265625
1629800400378,-0.1494140625,0.09423828125,1.05560302734375
1629800400410,-0.15338134765625,0.09771728515625,1.05218505859375
1629800400410,-0.17803955078125,0.1021728515625,1.0379638671875
1629800400410,-0.16656494140625,0.0948486328125,1.04376220703125
1629800400456,-0.1943359375,0.0894775390625,1.008056640625
1629800400456,-0.210693359375,0.0865478515625,0.99468994140625
1629800400472,-0.23260498046875,0.08935546875,0.96466064453125
1629800400519,-0.27227783203125,0.09149169921875,0.9532470703125
1629800400519,-0.2540283203125,0.091796875,0.9508056640625
1629800400519,-0.29241943359375,0.09539794921875,0.92596435546875
1629800400581,-0.3157958984375,0.0926513671875,0.9058837890625
1629800400581,-0.33740234375,0.09490966796875,0.8974609375
1629800400581,-0.3572998046875,0.10064697265625,0.887939453125
1629800400628,-0.38922119140625,0.11065673828125,0.87249755859375
1629800400628,-0.4039306640625,0.11468505859375,0.86883544921875
1629800400628,-0.3751220703125,0.1011962890625,0.8909912109375
1629800400706,-0.4281005859375,0.12469482421875,0.86663818359375
1629800400706,-0.4456787109375,0.1282958984375,0.85504150390625
1629800400706,-0.4173583984375,0.11798095703125,0.88116455078125
1629800400784,-0.47943115234375,0.13897705078125,0.84130859375
1629800400784,-0.4586181640625,0.1319580078125,0.8565673828125
1629800400784,-0.47344970703125,0.13812255859375,0.85760498046875
1629800400831,-0.50787353515625,0.13525390625,0.8135986328125
1629800400831,-0.49578857421875,0.1385498046875,0.82354736328125
1629800400831,-0.5206298828125,0.13507080078125,0.80242919921875
1629800400894,-0.54779052734375,0.126953125,0.771728515625
1629800400894,-0.5389404296875,0.12933349609375,0.777587890625
1629800400894,-0.534912109375,0.13134765625,0.8084716796875
1629800400941,-0.565673828125,0.1328125,0.75372314453125
1629800400941,-0.5570068359375,0.13470458984375,0.76202392578125
1629800400941,-0.55804443359375,0.12811279296875,0.78631591796875
1629800401096,-0.57098388671875,0.13336181640625,0.7510986328125
1629800401096,-0.5635986328125,0.15948486328125,0.78643798828125
1629800401097,-0.5726318359375,0.14678955078125,0.7628173828125
1629800401097,-0.5675048828125,0.15087890625,0.77130126953125
1629800401097,-0.5628662109375,0.16229248046875,0.79571533203125
1629800401099,-0.555419921875,0.1612548828125,0.79779052734375
1629800401099,-0.57452392578125,0.13519287109375,0.75152587890625
1629800401099,-0.573486328125,0.141845703125,0.75408935546875
1629800401115,-0.5623779296875,0.1656494140625,0.78558349609375
1629800401178,-0.54925537109375,0.1710205078125,0.79949951171875
1629800401178,-0.54986572265625,0.17071533203125,0.79827880859375
1629800401178,-0.5498046875,0.17364501953125,0.79339599609375
1629800401209,-0.5394287109375,0.18255615234375,0.84893798828125
1629800401209,-0.54351806640625,0.1810302734375,0.83636474609375
1629800401209,-0.54388427734375,0.17523193359375,0.83282470703125
1629800401287,-0.54364013671875,0.17364501953125,0.8150634765625
1629800401287,-0.53887939453125,0.16943359375,0.80902099609375
1629800401287,-0.54052734375,0.17291259765625,0.80731201171875
1629800401365,-0.53900146484375,0.17156982421875,0.82257080078125
1629800401381,-0.54620361328125,0.17596435546875,0.801513671875
1629800401381,-0.5419921875,0.17413330078125,0.81707763671875
1629800401396,-0.54620361328125,0.17584228515625,0.795166015625
1629800401396,-0.54742431640625,0.173828125,0.78662109375
1629800401396,-0.5469970703125,0.1748046875,0.79034423828125
1629800401490,-0.5570068359375,0.1842041015625,0.79388427734375
1629800401490,-0.5509033203125,0.17694091796875,0.79217529296875
1629800401490,-0.54998779296875,0.1832275390625,0.79364013671875
1629800401521,-0.5518798828125,0.18218994140625,0.795166015625
1629800401521,-0.55169677734375,0.1798095703125,0.79913330078125
1629800401521,-0.54827880859375,0.181396484375,0.80029296875
1629800401615,-0.54254150390625,0.1827392578125,0.80328369140625
1629800401615,-0.548828125,0.18609619140625,0.81256103515625
1629800401615,-0.5426025390625,0.1829833984375,0.80975341796875
1629800401646,-0.54815673828125,0.18450927734375,0.80816650390625
1629800401646,-0.5521240234375,0.19573974609375,0.8228759765625
1629800401646,-0.54931640625,0.1875,0.8106689453125
1629800401693,-0.56103515625,0.1800537109375,0.79327392578125
1629800401709,-0.55279541015625,0.1971435546875,0.80108642578125
1629800401709,-0.548095703125,0.19915771484375,0.8104248046875
1629800401756,-0.5638427734375,0.16534423828125,0.783935546875
1629800401756,-0.5604248046875,0.1702880859375,0.791259765625
1629800401756,-0.56781005859375,0.16485595703125,0.7869873046875
1629800401849,-0.572021484375,0.15435791015625,0.798828125
1629800401849,-0.57012939453125,0.16552734375,0.7958984375
1629800401849,-0.567138671875,0.15460205078125,0.78155517578125
1629800401865,-0.57415771484375,0.149169921875,0.7725830078125
1629800401865,-0.574951171875,0.15191650390625,0.76824951171875
1629800401927,-0.5771484375,0.15142822265625,0.772705078125
1629800401927,-0.572998046875,0.15545654296875,0.765869140625
1629800401927,-0.5770263671875,0.15545654296875,0.765380859375
1629800402021,-0.57427978515625,0.1541748046875,0.7724609375
1629800402021,-0.57379150390625,0.15777587890625,0.76873779296875
1629800402021,-0.56756591796875,0.151611328125,0.7694091796875
1629800402052,-0.56317138671875,0.1414794921875,0.77264404296875
1629800402052,-0.5582275390625,0.1517333984375,0.8323974609375
1629800402052,-0.55267333984375,0.1558837890625,0.807373046875
1629800402130,-0.54736328125,0.14410400390625,0.81951904296875
1629800402130,-0.54443359375,0.14434814453125,0.823486328125
1629800402136,-0.55218505859375,0.1536865234375,0.831298828125
1629800402180,-0.540771484375,0.142578125,0.81982421875
1629800402180,-0.54022216796875,0.15234375,0.815673828125
1629800402195,-0.54083251953125,0.15155029296875,0.825927734375
1629800402242,-0.5406494140625,0.15228271484375,0.80328369140625
1629800402242,-0.54107666015625,0.1522216796875,0.7974853515625
1629800402242,-0.5396728515625,0.150146484375,0.80023193359375
1629800402289,-0.5390625,0.1456298828125,0.83221435546875
1629800402289,-0.5384521484375,0.14642333984375,0.801513671875
1629800402289,-0.53448486328125,0.13922119140625,0.817626953125
1629800402352,-0.52142333984375,0.14678955078125,0.81146240234375
1629800402367,-0.5167236328125,0.1441650390625,0.81829833984375
1629800402367,-0.530029296875,0.1488037109375,0.83477783203125
1629800402414,-0.5078125,0.139892578125,0.848388671875
1629800402414,-0.51324462890625,0.14508056640625,0.83111572265625
1629800402414,-0.51312255859375,0.1446533203125,0.844970703125
1629800402492,-0.5126953125,0.1422119140625,0.8177490234375
1629800402492,-0.50897216796875,0.1434326171875,0.84564208984375
1629800402492,-0.5142822265625,0.143310546875,0.83673095703125
1629800402523,-0.51580810546875,0.14349365234375,0.843994140625
1629800402523,-0.5147705078125,0.14471435546875,0.84332275390625
1629800402523,-0.51019287109375,0.13824462890625,0.8343505859375
1629800402602,-0.515625,0.13665771484375,0.8529052734375
1629800402602,-0.512939453125,0.13336181640625,0.83087158203125
1629800402617,-0.5137939453125,0.13116455078125,0.82623291015625
1629800402633,-0.507568359375,0.13970947265625,0.8485107421875
1629800402633,-0.508056640625,0.1329345703125,0.85009765625
1629800402633,-0.510009765625,0.1348876953125,0.8431396484375
1629800402726,-0.504638671875,0.14215087890625,0.8392333984375
1629800402726,-0.5025634765625,0.13970947265625,0.82977294921875
1629800402726,-0.5072021484375,0.1395263671875,0.83489990234375
1629800402742,-0.50115966796875,0.13714599609375,0.82562255859375
1629800402758,-0.5006103515625,0.1357421875,0.833251953125
1629800402758,-0.50286865234375,0.13372802734375,0.835693359375
1629800402820,-0.49285888671875,0.12725830078125,0.85662841796875
1629800402820,-0.5009765625,0.129638671875,0.8544921875
1629800402820,-0.50128173828125,0.1319580078125,0.85211181640625
1629800402867,-0.4930419921875,0.12255859375,0.86309814453125
1629800402867,-0.4927978515625,0.12890625,0.85198974609375
1629800402867,-0.49755859375,0.12896728515625,0.8636474609375
1629800402945,-0.491455078125,0.12640380859375,0.8397216796875
1629800402945,-0.49432373046875,0.1280517578125,0.84515380859375
1629800402945,-0.49298095703125,0.12677001953125,0.85113525390625
1629800403008,-0.494384765625,0.127685546875,0.8492431640625
1629800403008,-0.49560546875,0.1285400390625,0.8546142578125
1629800403023,-0.49505615234375,0.12762451171875,0.84600830078125
1629800403101,-0.49444580078125,0.12835693359375,0.85113525390625
1629800403117,-0.4921875,0.126220703125,0.85009765625
1629800403117,-0.4947509765625,0.12481689453125,0.8460693359375
1629800403133,-0.495361328125,0.125244140625,0.8375244140625
1629800403133,-0.49591064453125,0.125244140625,0.8363037109375
1629800403133,-0.4951171875,0.12579345703125,0.8358154296875
1629800403148,-0.49835205078125,0.1260986328125,0.845947265625
1629800403148,-0.49273681640625,0.128173828125,0.84918212890625
1629800403164,-0.492919921875,0.12982177734375,0.84375
1629800403229,-0.4959716796875,0.12811279296875,0.85906982421875
1629800403229,-0.4940185546875,0.12200927734375,0.8564453125
1629800403245,-0.49591064453125,0.12493896484375,0.842041015625
1629800403323,-0.4957275390625,0.12371826171875,0.8502197265625
1629800403323,-0.493896484375,0.12054443359375,0.84429931640625
1629800403323,-0.49285888671875,0.12481689453125,0.8455810546875
1629800403354,-0.4896240234375,0.11767578125,0.849365234375
1629800403354,-0.48785400390625,0.1204833984375,0.848876953125
1629800403354,-0.48699951171875,0.1201171875,0.84619140625
1629800403401,-0.48248291015625,0.124267578125,0.8475341796875
1629800403401,-0.48956298828125,0.1236572265625,0.86126708984375
1629800403401,-0.48760986328125,0.1258544921875,0.86529541015625
1629800403479,-0.4873046875,0.12347412109375,0.842529296875
1629800403479,-0.4857177734375,0.11834716796875,0.8453369140625
1629800403479,-0.48406982421875,0.12054443359375,0.84375
1629800403495,-0.48590087890625,0.1114501953125,0.82464599609375
1629800403495,-0.48388671875,0.12152099609375,0.84014892578125
1629800403495,-0.48681640625,0.11822509765625,0.82855224609375
1629800403589,-0.48687744140625,0.11785888671875,0.813720703125
1629800403589,-0.48797607421875,0.116943359375,0.8262939453125
1629800403589,-0.48333740234375,0.1148681640625,0.81658935546875
1629800403667,-0.4674072265625,0.1058349609375,0.813720703125
1629800403667,-0.451904296875,0.11102294921875,0.8277587890625
1629800403667,-0.479248046875,0.11187744140625,0.81256103515625
1629800403698,-0.4356689453125,0.09552001953125,0.84722900390625
1629800403698,-0.4451904296875,0.09783935546875,0.84375
1629800403698,-0.41754150390625,0.09576416015625,0.84747314453125
1629800403776,-0.39984130859375,0.095947265625,0.8643798828125
1629800403792,-0.3258056640625,0.09521484375,0.9510498046875
1629800403792,-0.35906982421875,0.09051513671875,0.9075927734375
1629800403792,-0.30706787109375,0.09442138671875,0.9686279296875
1629800403792,-0.38201904296875,0.09637451171875,0.91064453125
1629800403807,-0.34466552734375,0.09228515625,0.93011474609375
1629800403932,-0.2889404296875,0.08587646484375,0.9827880859375
1629800403932,-0.26141357421875,0.092529296875,0.991455078125
1629800403932,-0.271484375,0.0919189453125,0.996826171875
1629800403948,-0.23236083984375,0.0909423828125,0.994140625
1629800403948,-0.238037109375,0.09173583984375,0.976318359375
1629800403948,-0.2518310546875,0.0902099609375,0.98236083984375
1629800403995,-0.2235107421875,0.09521484375,1.02777099609375
1629800403995,-0.20758056640625,0.0853271484375,0.986083984375
1629800403995,-0.212890625,0.08642578125,0.99456787109375
1629800404057,-0.19384765625,0.06634521484375,0.98870849609375
1629800404057,-0.1988525390625,0.07080078125,0.98480224609375
1629800404057,-0.2020263671875,0.078857421875,1.00653076171875
1629800404135,-0.19073486328125,0.06549072265625,0.9876708984375
1629800404135,-0.1912841796875,0.06927490234375,0.9810791015625
1629800404135,-0.1876220703125,0.067626953125,0.99658203125
1629800404182,-0.183349609375,0.06927490234375,1.0020751953125
1629800404182,-0.185546875,0.06402587890625,0.99200439453125
1629800404182,-0.18499755859375,0.06402587890625,0.99468994140625
1629800404247,-0.18365478515625,0.07220458984375,0.98809814453125
1629800404247,-0.1820068359375,0.06756591796875,0.9896240234375
1629800404247,-0.18096923828125,0.07281494140625,0.9908447265625
1629800404310,-0.18841552734375,0.071533203125,0.97998046875
1629800404310,-0.18865966796875,0.07232666015625,0.9952392578125
1629800404310,-0.19140625,0.0709228515625,0.9910888671875
1629800404372,-0.18292236328125,0.06585693359375,0.9835205078125
1629800404372,-0.18731689453125,0.06549072265625,0.986572265625
1629800404388,-0.1844482421875,0.06890869140625,0.99005126953125
1629800404404,-0.1883544921875,0.07281494140625,0.97808837890625
1629800404404,-0.18438720703125,0.06884765625,0.978759765625
1629800404419,-0.18182373046875,0.06707763671875,0.98541259765625
1629800404497,-0.181884765625,0.0728759765625,0.9742431640625
1629800404513,-0.1861572265625,0.07159423828125,0.9765625
1629800404513,-0.18524169921875,0.07159423828125,0.97503662109375
1629800404560,-0.1839599609375,0.06591796875,0.9630126953125
1629800404560,-0.18603515625,0.072509765625,0.97076416015625
1629800404560,-0.18524169921875,0.0740966796875,0.9886474609375
1629800404591,-0.18072509765625,0.07122802734375,0.9686279296875
1629800404591,-0.1839599609375,0.0726318359375,0.9803466796875
1629800404591,-0.1815185546875,0.06903076171875,0.9854736328125
1629800404638,-0.17413330078125,0.06524658203125,0.974365234375
1629800404638,-0.17449951171875,0.0670166015625,0.9786376953125
1629800404638,-0.17303466796875,0.0633544921875,0.97613525390625
1629800404747,-0.17608642578125,0.06982421875,0.98004150390625
1629800404747,-0.172119140625,0.07049560546875,1.0008544921875
1629800404747,-0.1719970703125,0.0692138671875,0.98394775390625
1629800404794,-0.17376708984375,0.0699462890625,0.97686767578125
1629800404810,-0.1697998046875,0.06842041015625,0.982177734375
1629800404810,-0.17095947265625,0.0726318359375,0.980224609375
1629800404857,-0.1717529296875,0.07476806640625,0.97857666015625
1629800404857,-0.1708984375,0.0687255859375,0.978515625
1629800404857,-0.169189453125,0.07269287109375,0.97552490234375
1629800404888,-0.1695556640625,0.06854248046875,0.97711181640625
1629800404888,-0.1685791015625,0.070556640625,0.98583984375
1629800404903,-0.1669921875,0.075439453125,0.99407958984375
1629800404982,-0.168701171875,0.07244873046875,0.97161865234375
1629800404982,-0.17108154296875,0.06793212890625,0.992431640625
1629800404982,-0.16876220703125,0.07171630859375,0.9822998046875
1629800405044,-0.172119140625,0.0748291015625,0.9739990234375
1629800405044,-0.16729736328125,0.07147216796875,0.97491455078125
1629800405044,-0.169677734375,0.0751953125,0.99176025390625
1629800405091,-0.16571044921875,0.07537841796875,0.98114013671875
1629800405091,-0.166259765625,0.07928466796875,0.98870849609375
1629800405091,-0.165771484375,0.07373046875,0.9755859375
1629800405107,-0.16845703125,0.07275390625,0.9765625
1629800405107,-0.16949462890625,0.0748291015625,0.9886474609375
1629800405122,-0.1705322265625,0.07440185546875,0.98541259765625
1629800405200,-0.1712646484375,0.07342529296875,0.9619140625
1629800405200,-0.16656494140625,0.0784912109375,0.9947509765625
1629800405200,-0.1728515625,0.07147216796875,0.9669189453125
1629800405263,-0.16949462890625,0.07403564453125,0.9674072265625
1629800405263,-0.16510009765625,0.073974609375,0.9718017578125
1629800405265,-0.16925048828125,0.06890869140625,0.95989990234375
1629800405312,-0.1676025390625,0.06884765625,0.9871826171875
1629800405312,-0.1640625,0.0721435546875,0.97540283203125
1629800405312,-0.1651611328125,0.0738525390625,0.98944091796875
1629800405359,-0.170166015625,0.0755615234375,0.986328125
1629800405359,-0.16827392578125,0.0782470703125,0.9808349609375
1629800405359,-0.16607666015625,0.07330322265625,0.9871826171875
1629800405390,-0.16961669921875,0.0762939453125,0.97900390625
1629800405405,-0.17132568359375,0.07891845703125,0.9842529296875
1629800405405,-0.17047119140625,0.078369140625,0.9775390625
1629800405468,-0.16827392578125,0.0760498046875,0.9771728515625
1629800405468,-0.1676025390625,0.07379150390625,0.97802734375
1629800405468,-0.16595458984375,0.07403564453125,0.98028564453125
1629800405546,-0.16876220703125,0.073486328125,0.991943359375
1629800405546,-0.1669921875,0.07476806640625,1.010009765625
1629800405546,-0.1646728515625,0.07598876953125,0.96923828125
1629800405593,-0.16729736328125,0.07611083984375,0.99676513671875
1629800405593,-0.164794921875,0.07940673828125,0.9703369140625
1629800405593,-0.1650390625,0.0810546875,0.9765625
1629800405624,-0.163330078125,0.076171875,0.97564697265625
1629800405640,-0.1658935546875,0.078125,0.96734619140625
1629800405702,-0.1678466796875,0.076171875,0.9727783203125
1629800405702,-0.1605224609375,0.0782470703125,0.985107421875
1629800405702,-0.16595458984375,0.07342529296875,0.98565673828125
1629800405765,-0.15789794921875,0.0743408203125,0.97442626953125
1629800405765,-0.159423828125,0.07513427734375,0.97357177734375
1629800405765,-0.1629638671875,0.0736083984375,0.98388671875
1629800405843,-0.1590576171875,0.07733154296875,0.98699951171875
1629800405843,-0.15985107421875,0.07611083984375,0.99066162109375
1629800405843,-0.1539306640625,0.07843017578125,0.980224609375
1629800405937,-0.15521240234375,0.06884765625,0.991943359375
1629800405937,-0.1519775390625,0.07421875,0.9947509765625
1629800405937,-0.15386962890625,0.0716552734375,0.991455078125
1629800405968,-0.15496826171875,0.07696533203125,0.98712158203125
1629800405968,-0.1507568359375,0.073486328125,0.98712158203125
1629800405968,-0.15142822265625,0.07171630859375,0.98785400390625
1629800406030,-0.154296875,0.0770263671875,0.98126220703125
1629800406030,-0.15863037109375,0.0750732421875,0.98687744140625
1629800406046,-0.16180419921875,0.07281494140625,0.98785400390625
1629800406095,-0.15362548828125,0.06939697265625,0.98553466796875
1629800406095,-0.15673828125,0.071044921875,0.97796630859375
1629800406095,-0.15704345703125,0.070068359375,0.9847412109375
1629800406158,-0.15185546875,0.071533203125,0.989990234375
1629800406158,-0.15350341796875,0.0697021484375,0.98297119140625
1629800406158,-0.15179443359375,0.0667724609375,0.98455810546875
1629800406189,-0.152587890625,0.07586669921875,0.98876953125
1629800406189,-0.1494140625,0.073974609375,0.9892578125
1629800406189,-0.152587890625,0.07598876953125,0.98529052734375
1629800406220,-0.1536865234375,0.07781982421875,0.9786376953125
1629800406220,-0.1544189453125,0.0833740234375,0.98834228515625
1629800406220,-0.15447998046875,0.0789794921875,0.984375
1629800406298,-0.15582275390625,0.0809326171875,0.988525390625
1629800406298,-0.154296875,0.0775146484375,0.98211669921875
1629800406298,-0.1529541015625,0.076171875,0.987060546875
1629800406408,-0.15380859375,0.0823974609375,0.986083984375
1629800406408,-0.15020751953125,0.0819091796875,0.985107421875
1629800406408,-0.1529541015625,0.0797119140625,0.9873046875
1629800406470,-0.155029296875,0.0916748046875,0.98883056640625
1629800406470,-0.1571044921875,0.10150146484375,0.99810791015625
1629800406470,-0.16326904296875,0.11285400390625,0.98760986328125
1629800406548,-0.1904296875,0.119873046875,0.9620361328125
1629800406548,-0.18359375,0.122802734375,0.97674560546875
1629800406548,-0.17071533203125,0.1171875,0.9879150390625
1629800406595,-0.2030029296875,0.10565185546875,0.9014892578125
1629800406595,-0.19940185546875,0.1240234375,0.9453125
1629800406595,-0.20782470703125,0.11883544921875,0.94171142578125
1629800406595,-0.20562744140625,0.111572265625,0.92230224609375
1629800406595,-0.2000732421875,0.1163330078125,0.92437744140625
1629800406595,-0.20123291015625,0.1099853515625,0.90960693359375
1629800406702,-0.1658935546875,0.0703125,0.93731689453125
1629800406702,-0.1829833984375,0.0919189453125,0.92437744140625
1629800406702,-0.19952392578125,0.11602783203125,0.92669677734375
1629800406734,-0.125244140625,0.031982421875,0.96044921875
1629800406734,-0.14044189453125,0.04669189453125,0.94482421875
1629800406734,-0.11163330078125,0.023193359375,0.96435546875
1629800406765,-0.07098388671875,0.00360107421875,1.00830078125
1629800406780,-0.059326171875,0.02044677734375,1.03204345703125
1629800406890,-0.04339599609375,0.09088134765625,1.059814453125
1629800406890,-0.04351806640625,0.06036376953125,1.05670166015625
1629800406890,-0.03692626953125,0.05224609375,1.04986572265625
1629800406890,-0.0372314453125,0.06884765625,1.05584716796875
1629800406890,-0.04779052734375,0.05621337890625,1.0423583984375
1629800406890,-0.0494384765625,0.04058837890625,1.04296875
1629800406921,-0.03955078125,0.09893798828125,1.0533447265625
1629800406921,-0.0433349609375,0.10430908203125,1.0406494140625
1629800406921,-0.046630859375,0.126220703125,1.04046630859375
1629800407015,-0.05645751953125,0.14794921875,1.02166748046875
1629800407015,-0.0504150390625,0.19061279296875,0.98260498046875
1629800407015,-0.05279541015625,0.171142578125,1.005126953125
1629800407126,-0.04486083984375,0.20513916015625,0.96014404296875
1629800407126,-0.0440673828125,0.23687744140625,0.9696044921875
1629800407126,-0.04730224609375,0.21826171875,0.96600341796875
1629800407173,-0.03564453125,0.252197265625,0.95166015625
1629800407173,-0.0408935546875,0.25140380859375,0.9593505859375
1629800407173,-0.0240478515625,0.24578857421875,0.951904296875
1629800407220,-0.0123291015625,0.23333740234375,0.95428466796875
1629800407220,-0.02459716796875,0.226806640625,0.93231201171875
1629800407220,-0.0185546875,0.23370361328125,0.97637939453125
1629800407251,-0.00201416015625,0.20947265625,0.95623779296875
1629800407267,-0.0093994140625,0.24114990234375,0.97711181640625
1629800407267,-0.00439453125,0.23309326171875,0.9615478515625
1629800407282,0.0111083984375,0.19720458984375,0.98895263671875
1629800407282,0.01019287109375,0.19476318359375,1.00946044921875
1629800407298,0.0079345703125,0.1976318359375,0.97125244140625
1629800407376,0.014404296875,0.1624755859375,1.02032470703125
1629800407376,0.01123046875,0.19207763671875,1.02606201171875
1629800407376,0.01800537109375,0.17779541015625,1.0203857421875
1629800407407,0.00665283203125,0.16326904296875,1.01708984375
1629800407407,0.00360107421875,0.177490234375,1.0118408203125
1629800407407,0.01220703125,0.161376953125,1.02349853515625
1629800407470,0.0018310546875,0.18841552734375,0.9908447265625
1629800407470,-0.00396728515625,0.19342041015625,0.96990966796875
1629800407485,-0.00067138671875,0.20184326171875,0.961669921875
1629800407564,0.000244140625,0.20855712890625,0.9739990234375
1629800407564,-0.001708984375,0.20904541015625,0.97747802734375
1629800407564,0.00543212890625,0.21435546875,0.975341796875
1629800407626,0.021240234375,0.20294189453125,0.9678955078125
1629800407626,0.01641845703125,0.20050048828125,0.962158203125
1629800407626,0.01043701171875,0.208251953125,0.96502685546875
1629800407673,0.02227783203125,0.20965576171875,0.98333740234375
1629800407673,0.02764892578125,0.2047119140625,0.99090576171875
1629800407688,0.034912109375,0.1920166015625,0.992919921875
1629800407688,0.0465087890625,0.1834716796875,0.99993896484375
1629800407704,0.0396728515625,0.177978515625,0.997314453125
1629800407751,0.04339599609375,0.1964111328125,0.99810791015625
1629800407751,0.0423583984375,0.19927978515625,0.98614501953125
1629800407767,0.04412841796875,0.19854736328125,0.9881591796875
1629800407860,0.04388427734375,0.213134765625,1.01300048828125
1629800407860,0.04547119140625,0.19732666015625,1.01171875
1629800407860,0.04718017578125,0.1978759765625,0.99615478515625
1629800407892,0.04229736328125,0.21466064453125,0.98944091796875
1629800407892,0.038818359375,0.20611572265625,0.96624755859375
1629800407892,0.0394287109375,0.208740234375,0.97430419921875
1629800407954,0.0391845703125,0.19146728515625,0.9833984375
1629800407954,0.0384521484375,0.21014404296875,0.97222900390625
1629800407954,0.0384521484375,0.19708251953125,0.97235107421875
1629800408001,0.0443115234375,0.19598388671875,0.993896484375
1629800408001,0.0494384765625,0.1900634765625,0.98382568359375
1629800408001,0.0450439453125,0.1929931640625,0.97833251953125
1629800408095,0.04876708984375,0.1986083984375,0.98455810546875
1629800408095,0.0538330078125,0.19384765625,0.9951171875
1629800408095,0.0543212890625,0.19256591796875,0.9940185546875
1629800408175,0.06005859375,0.21197509765625,0.9833984375
1629800408175,0.0570068359375,0.19921875,0.99127197265625
1629800408175,0.0538330078125,0.1922607421875,0.99334716796875
1629800408237,0.05560302734375,0.2110595703125,0.98114013671875
1629800408253,0.0511474609375,0.205078125,0.975341796875
1629800408253,0.05657958984375,0.21630859375,0.97821044921875
1629800408284,0.055419921875,0.19854736328125,0.9881591796875
1629800408284,0.06280517578125,0.1806640625,0.9808349609375
1629800408284,0.06048583984375,0.19036865234375,0.9801025390625
1629800408315,0.061279296875,0.2021484375,0.99298095703125
1629800408315,0.0643310546875,0.18414306640625,1.00311279296875
1629800408331,0.0615234375,0.195556640625,0.98193359375
1629800408362,0.06524658203125,0.20361328125,0.97723388671875
1629800408362,0.0633544921875,0.2027587890625,0.98699951171875
1629800408362,0.067626953125,0.2017822265625,0.98223876953125
1629800408425,0.06671142578125,0.19317626953125,1.002197265625
1629800408425,0.0704345703125,0.1939697265625,0.99322509765625
1629800408425,0.067626953125,0.2001953125,0.9930419921875
1629800408456,0.06671142578125,0.1640625,0.98980712890625
1629800408456,0.06805419921875,0.1732177734375,0.99005126953125
1629800408456,0.07073974609375,0.19183349609375,0.9896240234375
1629800408565,0.06695556640625,0.1649169921875,0.99993896484375
1629800408565,0.0682373046875,0.1602783203125,0.99169921875
1629800408565,0.06915283203125,0.16802978515625,1.0
1629800408597,0.06524658203125,0.16510009765625,1.0054931640625
1629800408597,0.0653076171875,0.18060302734375,0.99169921875
1629800408597,0.06695556640625,0.1717529296875,0.99078369140625
1629800408690,0.061767578125,0.19964599609375,0.98309326171875
1629800408690,0.063232421875,0.2022705078125,0.9903564453125
1629800408690,0.0709228515625,0.19427490234375,0.9993896484375
1629800408737,0.0634765625,0.19525146484375,0.972412109375
1629800408737,0.05914306640625,0.1873779296875,0.97198486328125
1629800408737,0.06103515625,0.1982421875,0.978515625
1629800408800,0.0589599609375,0.17425537109375,0.98590087890625
1629800408800,0.0528564453125,0.1669921875,0.9830322265625
1629800408800,0.05743408203125,0.18115234375,0.97918701171875
1629800408831,0.05548095703125,0.16259765625,0.98779296875
1629800408831,0.05560302734375,0.16510009765625,1.00225830078125
1629800408831,0.05535888671875,0.15826416015625,0.98345947265625
1629800408909,0.05908203125,0.172119140625,0.97686767578125
1629800408909,0.0572509765625,0.1644287109375,0.98077392578125
1629800408909,0.05926513671875,0.1817626953125,0.9814453125
1629800408971,0.06243896484375,0.17291259765625,0.9901123046875
1629800408971,0.06658935546875,0.16534423828125,0.9912109375
1629800408971,0.06427001953125,0.16595458984375,0.98858642578125
1629800409003,0.075927734375,0.17108154296875,1.0035400390625
1629800409003,0.07965087890625,0.1715087890625,1.0194091796875
1629800409003,0.0714111328125,0.165771484375,0.99609375
1629800409065,0.0860595703125,0.17462158203125,1.00921630859375
1629800409065,0.08441162109375,0.17828369140625,1.02178955078125
1629800409065,0.0838623046875,0.179443359375,1.0220947265625
1629800409143,0.0845947265625,0.17291259765625,1.031005859375
1629800409143,0.091796875,0.1488037109375,1.013916015625
1629800409143,0.0853271484375,0.16436767578125,1.02252197265625
1629800409224,0.06060791015625,0.13531494140625,1.02545166015625
1629800409224,0.07373046875,0.145263671875,1.0328369140625
1629800409224,0.07684326171875,0.1435546875,1.03240966796875
1629800409240,0.0477294921875,0.08123779296875,0.9810791015625
1629800409240,0.05218505859375,0.11688232421875,1.01220703125
1629800409240,0.03802490234375,0.05352783203125,0.97186279296875
1629800409318,0.0135498046875,0.03057861328125,0.997314453125
1629800409318,0.0010986328125,0.01434326171875,1.0029296875
1629800409333,0.0235595703125,0.0379638671875,0.981689453125
1629800409365,0.0006103515625,0.00335693359375,0.99285888671875
1629800409365,-0.02239990234375,-0.00860595703125,0.9942626953125
1629800409365,-0.009765625,-0.00506591796875,1.00604248046875
1629800409427,-0.0225830078125,-0.00848388671875,0.98809814453125
1629800409427,-0.02923583984375,-0.0013427734375,0.98638916015625
1629800409427,-0.0264892578125,-0.0006103515625,0.98284912109375
1629800409474,-0.03192138671875,0.0028076171875,1.01171875
1629800409474,-0.04779052734375,0.019775390625,1.0106201171875
1629800409474,-0.040771484375,0.007080078125,1.00189208984375
1629800409568,-0.05767822265625,0.0279541015625,0.9827880859375
1629800409568,-0.06414794921875,0.02825927734375,0.9793701171875
1629800409583,-0.053955078125,0.03326416015625,1.01251220703125
1629800409614,-0.0654296875,0.03253173828125,0.98388671875
1629800409614,-0.066162109375,0.01678466796875,0.9610595703125
1629800409614,-0.0714111328125,0.0223388671875,0.96075439453125
1629800409677,-0.06951904296875,0.01513671875,0.9710693359375
1629800409677,-0.06683349609375,0.01312255859375,0.98870849609375
1629800409677,-0.06817626953125,0.011474609375,0.98095703125
1629800409708,-0.07012939453125,0.01806640625,0.99359130859375
1629800409708,-0.06854248046875,0.0235595703125,0.9903564453125
1629800409708,-0.0731201171875,0.03399658203125,0.9791259765625
1629800409786,-0.050537109375,0.04583740234375,0.9661865234375
1629800409786,-0.06884765625,0.0428466796875,0.9730224609375
1629800409786,-0.064697265625,0.04425048828125,0.96551513671875
1629800409849,-0.04522705078125,0.0487060546875,0.97698974609375
1629800409849,-0.02874755859375,0.05902099609375,0.979736328125
1629800409849,-0.0361328125,0.054443359375,0.98358154296875
1629800409896,-0.01751708984375,0.06103515625,1.000732421875
1629800409896,-0.01226806640625,0.06396484375,1.0029296875
1629800409911,-0.0267333984375,0.05743408203125,0.99114990234375
1629800409974,-0.0020751953125,0.07122802734375,1.006103515625
1629800409974,0.00274658203125,0.0692138671875,1.00164794921875
1629800409974,0.00567626953125,0.0626220703125,1.00946044921875
1629800410005,0.0118408203125,0.0589599609375,1.00921630859375
1629800410005,0.0108642578125,0.05712890625,1.013427734375
1629800410005,0.009521484375,0.0645751953125,1.0047607421875
1629800410068,0.01629638671875,0.042724609375,1.0059814453125
1629800410068,0.0172119140625,0.0447998046875,1.0106201171875
1629800410068,0.0140380859375,0.0484619140625,1.0052490234375
1629800410130,0.0223388671875,0.04083251953125,1.01507568359375
1629800410130,0.024658203125,0.0400390625,1.01873779296875
1629800410130,0.02587890625,0.0419921875,1.02606201171875
1629800410208,0.02593994140625,0.03997802734375,1.03045654296875
1629800410208,0.02850341796875,0.045166015625,1.02435302734375
1629800410208,0.02960205078125,0.043701171875,1.02642822265625
1629800410317,0.02764892578125,0.05963134765625,1.0072021484375
1629800410317,0.02947998046875,0.05316162109375,1.01153564453125
1629800410317,0.02947998046875,0.04827880859375,1.015380859375
1629800410380,0.0250244140625,0.069091796875,0.9886474609375
1629800410380,0.02783203125,0.0655517578125,0.98052978515625
1629800410396,0.0240478515625,0.064208984375,1.00146484375
1629800410442,0.0296630859375,0.0601806640625,0.98187255859375
1629800410442,0.03662109375,0.05072021484375,0.983642578125
1629800410442,0.0531005859375,0.048095703125,1.0113525390625
1629800410442,0.03338623046875,0.05419921875,0.97821044921875
1629800410442,0.04412841796875,0.0472412109375,0.9903564453125
1629800410442,0.0478515625,0.04595947265625,1.008056640625
1629800410536,0.05255126953125,0.0506591796875,1.0152587890625
1629800410536,0.0498046875,0.05517578125,1.0244140625
1629800410536,0.0518798828125,0.0445556640625,1.01275634765625
1629800410599,0.045166015625,0.0615234375,1.01300048828125
1629800410599,0.05059814453125,0.05584716796875,1.0218505859375
1629800410599,0.0484619140625,0.05926513671875,1.0140380859375
1629800410645,0.04571533203125,0.06207275390625,1.0068359375
1629800410661,0.04730224609375,0.06329345703125,1.00555419921875
1629800410661,0.04583740234375,0.063720703125,1.0069580078125
1629800410677,0.0419921875,0.05908203125,1.0037841796875
1629800410677,0.038330078125,0.0616455078125,1.01220703125
1629800410677,0.04217529296875,0.06201171875,1.00634765625
1629800410708,0.0367431640625,0.0621337890625,0.9979248046875
1629800410708,0.03717041015625,0.05780029296875,0.99432373046875
1629800410708,0.03753662109375,0.06170654296875,0.9910888671875
1629800410755,0.0389404296875,0.05670166015625,0.99810791015625
1629800410770,0.03753662109375,0.056640625,0.99468994140625
1629800410770,0.03619384765625,0.0623779296875,1.00140380859375
1629800410849,0.03839111328125,0.05816650390625,0.99298095703125
1629800410849,0.04107666015625,0.05755615234375,0.99359130859375
1629800410849,0.038330078125,0.0601806640625,1.00006103515625
1629800410927,0.03936767578125,0.06195068359375,1.00738525390625
1629800410927,0.042724609375,0.06378173828125,1.01361083984375
1629800410927,0.0423583984375,0.059814453125,0.99835205078125
1629800411005,0.05206298828125,0.06365966796875,1.00469970703125
1629800411005,0.04827880859375,0.06378173828125,1.0032958984375
1629800411020,0.048828125,0.0623779296875,0.99884033203125
1629800411052,0.04998779296875,0.05853271484375,1.00933837890625
1629800411052,0.04815673828125,0.06005859375,1.00958251953125
1629800411052,0.04620361328125,0.06304931640625,1.0069580078125
1629800411083,0.043212890625,0.06243896484375,1.00250244140625
1629800411083,0.0460205078125,0.06292724609375,1.0037841796875
1629800411099,0.044921875,0.0623779296875,1.01202392578125
1629800411130,0.03955078125,0.068115234375,0.9959716796875
1629800411130,0.04345703125,0.061279296875,0.99658203125
1629800411130,0.0460205078125,0.0623779296875,0.994873046875
1629800411208,0.0440673828125,0.05743408203125,0.99298095703125
1629800411208,0.04071044921875,0.0589599609375,1.00396728515625
1629800411208,0.0435791015625,0.0595703125,0.9996337890625
1629800411223,0.042236328125,0.05767822265625,0.99346923828125
1629800411239,0.050048828125,0.05645751953125,1.00140380859375
1629800411320,0.04376220703125,0.05523681640625,1.001953125
1629800411320,0.0462646484375,0.0565185546875,1.017578125
1629800411320,0.0494384765625,0.05804443359375,1.01190185546875
1629800411335,0.0458984375,0.0589599609375,1.00341796875
1629800411351,0.05010986328125,0.05633544921875,1.001953125
1629800411351,0.046630859375,0.06036376953125,1.0003662109375
1629800411429,0.04742431640625,0.057373046875,0.9993896484375
1629800411429,0.0469970703125,0.0584716796875,0.999755859375
1629800411429,0.04705810546875,0.0576171875,0.99896240234375
1629800411492,0.04742431640625,0.05889892578125,0.99957275390625
1629800411492,0.04315185546875,0.0577392578125,1.0079345703125
1629800411492,0.0445556640625,0.06085205078125,0.9974365234375
1629800411523,0.04437255859375,0.05596923828125,0.99554443359375
1629800411523,0.04132080078125,0.05181884765625,0.99530029296875
1629800411523,0.044921875,0.05914306640625,1.00408935546875
1629800411601,0.04400634765625,0.05401611328125,1.00140380859375
1629800411601,0.04486083984375,0.05487060546875,0.99847412109375
1629800411617,0.04632568359375,0.05694580078125,1.0113525390625
1629800411664,0.04449462890625,0.05712890625,1.0008544921875
1629800411679,0.04278564453125,0.0570068359375,0.99993896484375
1629800411679,0.0440673828125,0.05865478515625,1.001708984375
1629800411773,0.04541015625,0.05670166015625,0.99822998046875
1629800411773,0.04364013671875,0.05816650390625,1.00555419921875
1629800411773,0.04559326171875,0.05462646484375,1.01031494140625
1629800411820,0.04815673828125,0.057373046875,0.99896240234375
1629800411820,0.04779052734375,0.05511474609375,0.99493408203125
1629800411820,0.04681396484375,0.054443359375,0.99212646484375
1629800411851,0.05072021484375,0.05682373046875,1.00439453125
1629800411867,0.04913330078125,0.05413818359375,1.0009765625
1629800411867,0.046875,0.05548095703125,1.00537109375
1629800411898,0.0484619140625,0.0550537109375,0.996337890625
1629800411898,0.047119140625,0.0540771484375,1.00262451171875
1629800411898,0.0462646484375,0.05426025390625,0.99969482421875
1629800411960,0.0511474609375,0.05096435546875,1.00006103515625
1629800411960,0.0469970703125,0.05108642578125,0.99932861328125
1629800411960,0.05120849609375,0.051025390625,0.9974365234375
1629800412007,0.0545654296875,0.05047607421875,1.00042724609375
1629800412007,0.0494384765625,0.05084228515625,1.00347900390625
1629800412007,0.05609130859375,0.04864501953125,1.0023193359375
1629800412070,0.05633544921875,0.048583984375,1.019287109375
1629800412070,0.05670166015625,0.0499267578125,1.00579833984375
1629800412070,0.05535888671875,0.04913330078125,1.009033203125
1629800412148,0.05389404296875,0.0516357421875,1.00030517578125
1629800412148,0.05267333984375,0.0474853515625,0.99298095703125
1629800412163,0.05487060546875,0.05364990234375,0.99127197265625
1629800412242,0.05242919921875,0.04913330078125,0.9954833984375
1629800412242,0.05450439453125,0.0511474609375,0.99951171875
1629800412242,0.04986572265625,0.051025390625,0.99896240234375
1629800412257,0.04888916015625,0.05291748046875,1.00054931640625
1629800412273,0.0516357421875,0.0533447265625,1.01025390625
1629800412353,0.0540771484375,0.04827880859375,0.99176025390625
1629800412353,0.05902099609375,0.04852294921875,1.0028076171875
1629800412353,0.05859375,0.04766845703125,0.9935302734375
1629800412416,0.05303955078125,0.0540771484375,1.01123046875
1629800412416,0.05621337890625,0.0516357421875,1.0025634765625
1629800412416,0.056884765625,0.04833984375,0.9993896484375
1629800412447,0.05804443359375,0.0526123046875,0.99835205078125
1629800412447,0.05584716796875,0.05377197265625,1.0093994140625
1629800412447,0.0567626953125,0.05096435546875,1.003662109375
1629800412478,0.05517578125,0.04937744140625,0.9918212890625
1629800412478,0.05413818359375,0.05474853515625,1.006103515625
1629800412478,0.057373046875,0.05108642578125,1.00146484375
1629800412541,0.05596923828125,0.04962158203125,0.99835205078125
1629800412556,0.05999755859375,0.052978515625,0.99761962890625
1629800412556,0.05767822265625,0.05047607421875,1.00128173828125
1629800412619,0.06011962890625,0.0516357421875,1.0074462890625
1629800412619,0.0599365234375,0.050537109375,1.00146484375
1629800412619,0.0601806640625,0.05517578125,1.005615234375
1629800412666,0.06610107421875,0.0531005859375,0.997802734375
1629800412666,0.0628662109375,0.05560302734375,0.99945068359375
1629800412666,0.06060791015625,0.05078125,1.00421142578125
1629800412791,0.0616455078125,0.054931640625,0.9998779296875
1629800412791,0.060791015625,0.0548095703125,1.00030517578125
1629800412791,0.06170654296875,0.0537109375,1.00726318359375
1629800412838,0.06085205078125,0.0498046875,0.99951171875
1629800412838,0.06341552734375,0.052001953125,1.0062255859375
1629800412838,0.060791015625,0.04779052734375,1.0050048828125
1629800412838,0.063720703125,0.053955078125,0.9979248046875
1629800412838,0.06256103515625,0.05096435546875,1.000244140625
1629800412838,0.0640869140625,0.05303955078125,0.9971923828125
1629800412916,0.06353759765625,0.0516357421875,1.0010986328125
1629800412916,0.063232421875,0.0517578125,0.9990234375
1629800412916,0.06439208984375,0.0489501953125,1.0047607421875
1629800412963,0.06646728515625,0.0531005859375,0.997314453125
1629800412963,0.06781005859375,0.05291748046875,1.0057373046875
1629800412963,0.06317138671875,0.05169677734375,0.99664306640625
1629800413056,0.067138671875,0.0538330078125,0.994873046875
1629800413056,0.06573486328125,0.05389404296875,1.0032958984375
1629800413056,0.06671142578125,0.05279541015625,0.99853515625
1629800413072,0.06494140625,0.04925537109375,1.00518798828125
1629800413072,0.065185546875,0.05572509765625,0.9984130859375
1629800413072,0.06549072265625,0.04779052734375,1.005126953125
1629800413124,0.07208251953125,0.04754638671875,1.00445556640625
1629800413139,0.06829833984375,0.04522705078125,1.0074462890625
1629800413139,0.069091796875,0.04833984375,0.99798583984375
1629800413202,0.070068359375,0.0498046875,0.99835205078125
1629800413217,0.0693359375,0.047607421875,0.99932861328125
1629800413217,0.0712890625,0.04913330078125,1.00164794921875
1629800413295,0.06640625,0.049560546875,1.00439453125
1629800413311,0.0712890625,0.0521240234375,0.9970703125
1629800413311,0.07220458984375,0.051513671875,0.99957275390625
1629800413361,0.06884765625,0.046142578125,1.0013427734375
1629800413361,0.062744140625,0.05230712890625,1.0013427734375
1629800413361,0.0711669921875,0.04949951171875,1.0006103515625
1629800413361,0.0667724609375,0.048095703125,0.99407958984375
1629800413361,0.06256103515625,0.046142578125,0.99993896484375
1629800413361,0.06982421875,0.0477294921875,0.994140625
1629800413424,0.07513427734375,0.05059814453125,1.00030517578125
1629800413424,0.0758056640625,0.0533447265625,1.000244140625
1629800413424,0.07220458984375,0.049072265625,1.00238037109375
1629800413486,0.07177734375,0.05126953125,1.00677490234375
1629800413486,0.070556640625,0.052001953125,1.00128173828125
1629800413486,0.0711669921875,0.05133056640625,0.99969482421875
1629800413517,0.06744384765625,0.04974365234375,1.00299072265625
1629800413517,0.0709228515625,0.05303955078125,1.01031494140625
1629800413517,0.06805419921875,0.052490234375,1.00140380859375
1629800413611,0.07305908203125,0.0496826171875,0.9986572265625
1629800413611,0.07061767578125,0.04974365234375,1.0018310546875
1629800413611,0.07421875,0.04803466796875,1.0015869140625
1629800413642,0.0748291015625,0.0478515625,0.999267578125
1629800413642,0.0716552734375,0.04949951171875,0.99774169921875
1629800413642,0.07171630859375,0.04901123046875,1.008544921875
1629800413721,0.076904296875,0.04693603515625,1.00341796875
1629800413721,0.07318115234375,0.0477294921875,1.00079345703125
1629800413721,0.0743408203125,0.04681396484375,1.0042724609375
1629800413799,0.0728759765625,0.05072021484375,0.9996337890625
1629800413799,0.0736083984375,0.0494384765625,1.00640869140625
1629800413799,0.0753173828125,0.0484619140625,0.998291015625
1629800413845,0.0770263671875,0.05401611328125,0.994384765625
1629800413845,0.0733642578125,0.051025390625,0.9996337890625
1629800413845,0.073486328125,0.05303955078125,1.00048828125
1629800413939,0.073974609375,0.05084228515625,1.00164794921875
1629800413939,0.077392578125,0.0496826171875,1.00360107421875
1629800413939,0.0784912109375,0.04681396484375,1.00030517578125
1629800413955,0.08123779296875,0.04425048828125,1.00103759765625
1629800413955,0.07977294921875,0.0472412109375,1.00213623046875
1629800414002,0.08251953125,0.04840087890625,1.004150390625
1629800414002,0.0845947265625,0.04620361328125,1.00274658203125
1629800414017,0.07781982421875,0.04583740234375,1.00079345703125
1629800414064,0.08343505859375,0.04541015625,0.9949951171875
1629800414064,0.080810546875,0.0496826171875,1.00238037109375
1629800414064,0.082763671875,0.04705810546875,0.9996337890625
1629800414160,0.0831298828125,0.04864501953125,1.00177001953125
1629800414176,0.0888671875,0.04443359375,0.9930419921875
1629800414207,0.09039306640625,0.04052734375,0.99951171875
1629800414207,0.09130859375,0.03485107421875,1.00372314453125
1629800414207,0.0906982421875,0.03619384765625,1.002685546875
1629800414238,0.091064453125,0.038818359375,1.00921630859375
1629800414238,0.09197998046875,0.0391845703125,1.00970458984375
1629800414254,0.0902099609375,0.04437255859375,1.00213623046875
1629800414316,0.089111328125,0.0361328125,1.00323486328125
1629800414316,0.09149169921875,0.03948974609375,0.99786376953125
1629800414316,0.08642578125,0.03338623046875,1.00244140625
1629800414410,0.0875244140625,0.04486083984375,0.998779296875
1629800414410,0.088623046875,0.043212890625,1.002197265625
1629800414410,0.08673095703125,0.03875732421875,1.00299072265625
1629800414426,0.0897216796875,0.0460205078125,1.00164794921875
1629800414426,0.0880126953125,0.03955078125,1.00421142578125
1629800414426,0.09063720703125,0.0390625,0.99835205078125
1629800414488,0.08526611328125,0.0494384765625,0.9993896484375
1629800414488,0.08807373046875,0.049560546875,1.00262451171875
1629800414488,0.08563232421875,0.0543212890625,1.00341796875
1629800414551,0.08148193359375,0.05389404296875,0.995849609375
1629800414551,0.0858154296875,0.05438232421875,1.00018310546875
1629800414551,0.08349609375,0.0531005859375,1.00250244140625
1629800414629,0.082763671875,0.0511474609375,1.00933837890625
1629800414644,0.0816650390625,0.04864501953125,0.98883056640625
1629800414644,0.08544921875,0.04766845703125,0.99853515625
1629800414660,0.0833740234375,0.0460205078125,0.99749755859375
1629800414660,0.0867919921875,0.0430908203125,0.99249267578125
1629800414660,0.08837890625,0.048583984375,0.986083984375
1629800414754,0.08154296875,0.04364013671875,1.01202392578125
1629800414754,0.087890625,0.04022216796875,1.00286865234375
1629800414769,0.0848388671875,0.04437255859375,1.00213623046875
1629800414785,0.08575439453125,0.0455322265625,1.0067138671875
1629800414785,0.0869140625,0.047607421875,1.00244140625
1629800414847,0.092041015625,0.04840087890625,0.9981689453125
1629800414847,0.09429931640625,0.04632568359375,1.000244140625
1629800414847,0.08795166015625,0.05072021484375,0.9962158203125
1629800414926,0.0928955078125,0.0467529296875,1.0074462890625
1629800414926,0.09228515625,0.04486083984375,1.0003662109375
1629800414926,0.0916748046875,0.04931640625,1.00726318359375
1629800414941,0.0897216796875,0.04876708984375,1.0018310546875
1629800414941,0.08941650390625,0.046630859375,1.003173828125
1629800414941,0.09161376953125,0.04931640625,0.99755859375
1629800415004,0.08843994140625,0.05047607421875,0.99078369140625
1629800415004,0.0882568359375,0.052978515625,0.996337890625
1629800415004,0.09320068359375,0.0533447265625,1.0
1629800415113,0.0924072265625,0.05108642578125,1.00360107421875
1629800415113,0.088134765625,0.050048828125,1.0032958984375
1629800415113,0.089111328125,0.05059814453125,0.99200439453125
1629800415144,0.09393310546875,0.04705810546875,1.005126953125
1629800415144,0.09161376953125,0.04779052734375,1.00726318359375
1629800415144,0.09332275390625,0.04876708984375,1.00750732421875
1629800415176,0.08905029296875,0.048828125,1.003173828125
1629800415176,0.09039306640625,0.0509033203125,0.99993896484375
1629800415176,0.0936279296875,0.048095703125,1.00555419921875
1629800415272,0.09393310546875,0.05712890625,0.9952392578125
1629800415272,0.09375,0.0574951171875,0.99444580078125
1629800415272,0.08837890625,0.0546875,0.99609375
1629800415303,0.09027099609375,0.05426025390625,0.99578857421875
1629800415303,0.0963134765625,0.05853271484375,0.99041748046875
1629800415303,0.0927734375,0.06109619140625,0.99652099609375
1629800415397,0.09423828125,0.052734375,1.00787353515625
1629800415397,0.09521484375,0.052734375,1.004150390625
1629800415397,0.09417724609375,0.0535888671875,1.004150390625
1629800415444,0.08990478515625,0.0518798828125,1.0159912109375
1629800415444,0.09027099609375,0.05047607421875,1.0069580078125
1629800415444,0.08526611328125,0.04705810546875,1.00372314453125
1629800415522,0.08642578125,0.0511474609375,1.0057373046875
1629800415522,0.09063720703125,0.0501708984375,1.0052490234375
1629800415522,0.0875244140625,0.05267333984375,1.000732421875
1629800415585,0.0848388671875,0.051025390625,1.0072021484375
1629800415585,0.08642578125,0.05108642578125,0.99652099609375
1629800415585,0.0887451171875,0.04925537109375,0.99755859375
1629800415616,0.08380126953125,0.060546875,1.00079345703125
1629800415616,0.082763671875,0.05523681640625,0.9901123046875
1629800415616,0.084716796875,0.053955078125,1.00054931640625
1629800415647,0.08642578125,0.05255126953125,0.9996337890625
1629800415647,0.08392333984375,0.05303955078125,0.99951171875
1629800415647,0.08404541015625,0.05206298828125,0.98724365234375
1629800415694,0.0877685546875,0.05413818359375,1.00738525390625
1629800415694,0.08251953125,0.048095703125,1.00335693359375
1629800415694,0.08331298828125,0.0491943359375,0.99951171875
1629800415803,0.08465576171875,0.0438232421875,1.0029296875
1629800415803,0.0826416015625,0.0419921875,1.0030517578125
1629800415803,0.08306884765625,0.04638671875,1.0032958984375
1629800415850,0.0811767578125,0.0423583984375,0.99932861328125
1629800415850,0.0850830078125,0.04840087890625,1.01318359375
1629800415944,0.0771484375,0.0430908203125,0.99774169921875
1629800415944,0.0760498046875,0.0400390625,0.99041748046875
1629800415944,0.07586669921875,0.0386962890625,0.994873046875
1629800415975,0.07415771484375,0.04339599609375,1.00006103515625
1629800415975,0.072021484375,0.04290771484375,1.000244140625
1629800415975,0.07196044921875,0.0439453125,1.0023193359375
1629800416038,0.0699462890625,0.0450439453125,0.99713134765625
1629800416038,0.0701904296875,0.04254150390625,1.00213623046875
1629800416038,0.069580078125,0.04425048828125,1.004638671875
1629800416116,0.07183837890625,0.04150390625,0.994873046875
1629800416116,0.070556640625,0.03985595703125,0.99749755859375
1629800416116,0.06683349609375,0.04736328125,1.00146484375
1629800416131,0.0753173828125,0.03662109375,0.99896240234375
1629800416131,0.06878662109375,0.03643798828125,0.9991455078125
1629800416131,0.070068359375,0.0400390625,0.99981689453125
1629800416194,0.0718994140625,0.0396728515625,0.99993896484375
1629800416194,0.07440185546875,0.03741455078125,1.0029296875
1629800416194,0.072998046875,0.0400390625,1.0032958984375
1629800416306,0.071533203125,0.04736328125,1.0025634765625
1629800416306,0.07373046875,0.04248046875,1.0006103515625
1629800416306,0.07177734375,0.04315185546875,1.00140380859375
1629800416337,0.07098388671875,0.0458984375,0.996337890625
1629800416337,0.067138671875,0.0418701171875,0.99700927734375
1629800416368,0.0728759765625,0.0377197265625,0.99114990234375
1629800416368,0.065673828125,0.0445556640625,1.0057373046875
1629800416368,0.07159423828125,0.0421142578125,0.99017333984375
1629800416462,0.06817626953125,0.03656005859375,1.00079345703125
1629800416462,0.07257080078125,0.031005859375,0.9990234375
1629800416462,0.07122802734375,0.0357666015625,0.997802734375
1629800416556,0.07171630859375,0.04290771484375,1.0086669921875
1629800416556,0.07415771484375,0.04302978515625,1.0037841796875
1629800416556,0.0736083984375,0.03948974609375,0.99957275390625
1629800416587,0.07562255859375,0.04180908203125,1.007568359375
1629800416587,0.07818603515625,0.04290771484375,0.99609375
1629800416587,0.080322265625,0.04052734375,1.010009765625
1629800416618,0.0721435546875,0.0386962890625,1.0062255859375
1629800416618,0.07537841796875,0.037841796875,0.9957275390625
1629800416618,0.07330322265625,0.03375244140625,0.99945068359375
1629800416688,0.07818603515625,0.034423828125,0.99420166015625
1629800416688,0.07342529296875,0.02911376953125,0.993896484375
1629800416688,0.07513427734375,0.03448486328125,0.9989013671875
1629800416719,0.0751953125,0.04150390625,0.9970703125
1629800416719,0.077392578125,0.04876708984375,0.9935302734375
1629800416719,0.069580078125,0.047607421875,1.00592041015625
1629800416797,0.08465576171875,0.05474853515625,0.99713134765625
1629800416797,0.0782470703125,0.0467529296875,0.9923095703125
1629800416797,0.07958984375,0.05133056640625,1.0074462890625
1629800416875,0.08978271484375,0.058837890625,1.01300048828125
1629800416875,0.08526611328125,0.054443359375,1.01007080078125
1629800416875,0.08502197265625,0.05426025390625,1.00469970703125
1629800416906,0.0860595703125,0.06048583984375,1.02667236328125
1629800416906,0.09027099609375,0.05413818359375,0.99981689453125
1629800416906,0.08563232421875,0.0550537109375,1.0030517578125
1629800416953,0.0848388671875,0.05810546875,1.004150390625
1629800416953,0.0860595703125,0.0518798828125,0.995361328125
1629800416953,0.07952880859375,0.04681396484375,1.01263427734375
1629800417049,0.0802001953125,0.04876708984375,0.98162841796875
1629800417049,0.080078125,0.0523681640625,0.9957275390625
1629800417049,0.07867431640625,0.0472412109375,0.992919921875
1629800417081,0.07318115234375,0.04962158203125,0.9930419921875
1629800417081,0.0765380859375,0.0474853515625,0.984130859375
1629800417081,0.07452392578125,0.04595947265625,0.99053955078125
1629800417159,0.07672119140625,0.049560546875,1.0028076171875
1629800417159,0.07421875,0.05157470703125,1.00482177734375
1629800417159,0.07672119140625,0.04815673828125,0.99957275390625
1629800417205,0.0731201171875,0.052978515625,0.99737548828125
1629800417205,0.0775146484375,0.05108642578125,0.9979248046875
1629800417205,0.0738525390625,0.0487060546875,1.00311279296875
1629800417299,0.077392578125,0.047119140625,1.0029296875
1629800417299,0.07476806640625,0.0478515625,1.01043701171875
1629800417299,0.07366943359375,0.0458984375,0.99505615234375
1629800417346,0.073974609375,0.0452880859375,1.000244140625
1629800417346,0.0714111328125,0.04473876953125,1.00982666015625
1629800417346,0.07574462890625,0.04473876953125,0.99676513671875
1629800417377,0.0740966796875,0.04559326171875,1.00146484375
1629800417377,0.07861328125,0.0419921875,0.9967041015625
1629800417377,0.07598876953125,0.0391845703125,1.0059814453125
1629800417440,0.075439453125,0.04071044921875,0.9962158203125
1629800417440,0.07464599609375,0.047119140625,1.00830078125
1629800417440,0.0758056640625,0.04510498046875,1.0020751953125
1629800417487,0.08172607421875,0.03729248046875,1.00030517578125
1629800417487,0.078857421875,0.04345703125,1.01055908203125
1629800417502,0.07958984375,0.0419921875,0.9989013671875
1629800417549,0.07830810546875,0.048828125,1.00030517578125
1629800417549,0.07733154296875,0.04681396484375,0.9993896484375
1629800417549,0.079833984375,0.0386962890625,0.9923095703125
1629800417612,0.0758056640625,0.046142578125,1.00885009765625
1629800417612,0.07415771484375,0.04473876953125,0.9981689453125
1629800417612,0.07513427734375,0.04534912109375,1.000244140625
1629800417690,0.07611083984375,0.0372314453125,1.004150390625
1629800417690,0.074951171875,0.0389404296875,1.0003662109375
1629800417690,0.07513427734375,0.03790283203125,1.001220703125
1629800417752,0.08099365234375,0.04345703125,1.0062255859375
1629800417752,0.078857421875,0.0445556640625,1.00885009765625
1629800417752,0.07757568359375,0.0421142578125,0.995361328125
1629800417783,0.08282470703125,0.04937744140625,1.011962890625
1629800417783,0.08282470703125,0.041259765625,1.00909423828125
1629800417783,0.08538818359375,0.04150390625,1.01043701171875
1629800417830,0.07794189453125,0.047119140625,0.99609375
1629800417830,0.08062744140625,0.04632568359375,0.99676513671875
1629800417830,0.08038330078125,0.04327392578125,1.00146484375
1629800417940,0.07843017578125,0.044677734375,0.99664306640625
1629800417940,0.0775146484375,0.04498291015625,0.99407958984375
1629800417940,0.07855224609375,0.04425048828125,1.00042724609375
1629800418002,0.081787109375,0.04608154296875,1.0010986328125
1629800418002,0.07781982421875,0.0391845703125,1.00537109375
