timestamp,ax,ay,az
1630935185725,-0.137921,-0.367037,-0.901153
1630935185735,-0.159698,-0.364719,-0.916403
1630935185744,-0.093696,-0.414312,-0.9134749999999999
1630935185754,-0.091378,-0.437004,-0.93879
1630935185763,-0.08790099999999999,-0.445361,-0.952576
1630935185773,-0.159088,-0.455426,-1.033584
1630935185783,-0.27816,-0.329522,-1.260199
1630935185792,-0.25790799999999997,-0.276025,-1.3629229999999999
1630935185802,-0.213195,-0.287066,-1.303082
1630935185811,-0.21307299999999998,-0.258884,-1.202554
1630935185821,-0.181048,-0.24705,-1.097756
1630935185831,-0.175253,-0.249856,-1.044564
1630935185840,-0.190381,-0.227469,-1.056154
1630935185850,-0.190076,-0.20813199999999998,-1.069696
1630935185859,-0.172813,-0.21490299999999998,-1.052372
1630935185869,-0.161894,-0.234118,-1.01504
1630935185879,-0.14865699999999998,-0.23893699999999998,-0.965996
1630935185888,-0.134688,-0.237961,-0.915
1630935185898,-0.12627,-0.243817,-0.8732759999999999
1630935185907,-0.117486,-0.252906,-0.843996
1630935185917,-0.104127,-0.253394,-0.8288679999999999
1630935185927,-0.092171,-0.247782,-0.8115439999999999
1630935185936,-0.086681,-0.2379,-0.795379
1630935185946,-0.082228,-0.235765,-0.770186
1630935185955,-0.09174399999999999,-0.240889,-0.757254
1630935185965,-0.070089,-0.261934,-0.734074
1630935185975,-0.0427,-0.312442,-0.7093079999999999
1630935185984,-0.001647,-0.36661,-0.684298
1630935185994,0.049349,-0.438834,-0.656238
1630935186003,0.086376,-0.501908,-0.648308
1630935186013,0.09851499999999999,-0.535946,-0.679418
1630935168008,0.10144299999999999,-0.548756,-0.738039
1630935168018,0.093513,-0.527467,-0.821853
1630935168027,0.116144,-0.516975,-0.874862
1630935168037,0.133224,-0.53131,-0.86986
1630935168046,0.114924,-0.522892,-0.844057
1630935168056,-0.117852,-0.401929,-1.018151
1630935168066,-0.17446,-0.16104,-1.194502
1630935168075,-0.079361,-0.188307,-1.056581
1630935168085,-0.10900699999999999,-0.17330099999999998,-0.944402
1630935168094,-0.121817,-0.13969,-0.939888
1630935168104,-0.068747,-0.221613,-0.9444629999999999
1630935168114,-0.016042999999999998,-0.255895,-0.977586
1630935168123,0.07808,-0.30927,-0.9730719999999999
1630935168133,0.043066,-0.30744,-1.068964
1630935168142,-0.08418,-0.240035,-1.315953
1630935168152,-0.075762,-0.269132,-1.440149
1630935168162,-0.015127999999999999,-0.389546,-1.344562
1630935168171,0.016347999999999998,-0.422181,-1.166381
1630935168181,0.043188,-0.40180699999999997,-1.0267519999999999
1630935168190,0.040809,-0.374296,-0.975634
1630935168200,0.037881,-0.376736,-0.965203
1630935168210,0.032390999999999996,-0.39466999999999997,-0.956236
1630935168219,0.02257,-0.40089199999999997,-0.9465979999999999
1630935168229,0.015189,-0.410835,-0.927932
1630935168238,0.002806,-0.41419,-0.903593
1630935168248,-0.015433,-0.411018,-0.873642
1630935168258,-0.037637,-0.395097,-0.845399
1630935168267,-0.060268,-0.366854,-0.828502
1630935168277,-0.080825,-0.32757,-0.816912
1630935168286,-0.098881,-0.302377,-0.798124
1630935168296,-0.10437099999999999,-0.282003,-0.777323
1630935168306,-0.12132899999999999,-0.257542,-0.765794
1630935168315,-0.133712,-0.23729,-0.7777499999999999
1630935168325,-0.11114199999999999,-0.238144,-0.791109
1630935168334,-0.073505,-0.283223,-0.773419
1630935168344,-0.03843,-0.318115,-0.7610359999999999
1630935168354,0.008905999999999999,-0.359412,-0.75091
1630935168363,0.032390999999999996,-0.374052,-0.767807
1630935168373,0.04697,-0.373503,-0.825147
1630935168382,0.063196,-0.387594,-0.895297
1630935168392,0.075335,-0.416813,-0.963495
1630935168402,0.08356999999999999,-0.444446,-0.986736
1630935168411,0.097539,-0.457134,-0.952454
1630935168421,0.114619,-0.46860199999999996,-0.870775
1630935168430,0.115412,-0.464088,-0.7896449999999999
1630935168440,-0.07808,-0.38491,-0.8726659999999999
1630935168450,-0.156709,-0.09589199999999999,-1.099647
1630935168459,-0.089548,-0.226798,-0.9819169999999999
1630935168469,-0.133346,-0.294813,-0.900543
1630935168478,-0.191113,-0.312808,-0.916586
1630935168488,-0.128771,-0.348737,-0.918172
1630935168498,-0.079056,-0.426268,-0.88267
1630935168507,-0.114192,-0.418033,-0.918355
1630935168517,-0.150182,-0.436394,-0.956114
1630935168526,-0.26657,-0.36478,-1.11752
1630935168536,-0.310429,-0.294447,-1.265445
1630935168546,-0.259555,-0.330742,-1.249463
1630935168555,-0.243756,-0.363743,-1.180289
1630935168565,-0.239303,-0.348371,-1.138504
1630935168574,-0.210145,-0.346846,-1.117032
1630935168584,-0.20965699999999998,-0.331718,-1.117886
1630935168594,-0.214232,-0.302743,-1.129659
1630935168603,-0.200629,-0.286944,-1.1201429999999999
1630935168613,-0.186294,-0.27358499999999997,-1.0842749999999999
1630935168622,-0.175436,-0.263764,-1.039684
1630935168632,-0.16775,-0.249368,-0.993873
1630935168642,-0.15823399999999999,-0.240645,-0.954772
1630935168651,-0.144326,-0.248392,-0.913048
1630935168661,-0.131028,-0.259982,-0.874374
1630935168670,-0.11468,-0.26900999999999997,-0.841556
1630935168680,-0.105103,-0.266936,-0.823927
1630935168690,-0.104493,-0.244,-0.816241
1630935168699,-0.050142,-0.277428,-0.75518
1630935168709,-0.036295,-0.298961,-0.723094
1630935168718,0.005673,-0.34648,-0.705099
1630935168728,0.049471,-0.42151,-0.684786
1630935168738,0.06417199999999999,-0.477691,-0.698328
1630935168747,0.069235,-0.527589,-0.740723
1630935168757,0.068259,-0.559004,-0.799588
1630935168766,0.075213,-0.562115,-0.840824
1630935168776,0.079666,-0.53192,-0.838445
1630935168786,0.078019,-0.497394,-0.82167
1630935168795,0.088572,-0.47512899999999997,-0.811056
1630935168805,0.071309,-0.491477,-0.808555
1630935168814,-0.15884399999999999,-0.380884,-0.992165
1630935168824,-0.100406,-0.24522,-1.008635
1630935168834,0.01098,-0.353495,-0.787449
1630935168843,-0.02623,-0.272487,-0.709491
1630935168853,-0.041297,-0.244915,-0.7585959999999999
1630935168862,-0.033306,-0.265533,-0.8760209999999999
1630935168872,-0.029463,-0.267302,-1.000827
1630935168882,-0.025986,-0.294935,-1.091229
1630935168891,-0.079361,-0.30872099999999997,-1.211826
1630935168901,-0.134322,-0.298351,-1.332911
1630935168910,-0.10961699999999999,-0.311771,-1.301252
1630935168920,-0.10858,-0.321165,-1.192733
1630935168930,-0.130418,-0.289262,-1.158817
1630935168939,-0.130723,-0.256627,-1.19987
1630935168949,-0.130845,-0.256017,-1.239032
1630935168958,-0.147925,-0.248026,-1.253428
1630935168968,-0.158295,-0.250039,-1.217255
1630935168978,-0.155428,-0.257115,-1.136552
1630935168987,-0.163846,-0.256017,-1.070611
1630935168997,-0.173545,-0.244122,-1.016077
1630935169006,-0.182634,-0.2318,-0.97844
1630935169016,-0.188917,-0.22082,-0.928298
1630935169026,-0.19489499999999998,-0.208864,-0.878278
1630935169035,-0.199287,-0.19519999999999998,-0.831247
1630935169045,-0.197152,-0.18562299999999998,-0.783606
1630935169054,-0.197579,-0.182756,-0.748897
1630935169064,-0.193858,-0.178974,-0.726693
1630935169074,-0.181475,-0.17732699999999998,-0.70028
1630935169083,-0.169336,-0.16408999999999999,-0.674416
1630935169093,-0.155306,-0.164517,-0.652944
1630935169102,-0.162077,-0.17202,-0.661911
1630935169112,-0.166774,-0.163053,-0.704062
1630935169122,-0.099552,-0.243024,-0.673684
1630935169131,-0.06588,-0.318054,-0.650809
1630935169141,-0.01464,-0.408822,-0.6405609999999999
1630935169150,0.031171,-0.49763799999999997,-0.652334
1630935169160,0.038003,-0.543876,-0.714432
1630935169170,0.038857,-0.5626639999999999,-0.817644
1630935169179,0.04758,-0.56181,-0.916891
1630935169189,0.05124,-0.554612,-0.94977
1630935169198,0.063135,-0.548207,-0.88938
1630935169208,0.067344,-0.5240509999999999,-0.8033089999999999
1630935169218,-0.044896,-0.493978,-0.823317
1630935169227,-0.230214,-0.232227,-1.080798
1630935169237,-0.154025,-0.23607,-1.044808
1630935169246,-0.183549,-0.345931,-0.95282
1630935169256,-0.235826,-0.38112799999999997,-0.918355
1630935169266,-0.184891,-0.428037,-0.9323239999999999
1630935169275,-0.127612,-0.48928099999999997,-0.926041
1630935169285,-0.111996,-0.531798,-0.898774
1630935169294,-0.135176,-0.576145,-0.884439
1630935169304,-0.24326799999999998,-0.536007,-1.00711
1630935169314,-0.323971,-0.4026,-1.200785
1630935169323,-0.307074,-0.361852,-1.247572
1630935169333,-0.306952,-0.349225,-1.197979
1630935169342,-0.306403,-0.334707,-1.15961
1630935169352,-0.254614,-0.359961,-1.121546
1630935169362,-0.221247,-0.368867,-1.114287
1630935169371,-0.207644,-0.355142,-1.13338
1630935169381,-0.183976,-0.329461,-1.154303
1630935169390,-0.160552,-0.310185,-1.1417979999999999
1630935169400,-0.145729,-0.292922,-1.103734
1630935169410,-0.135664,-0.276635,-1.051762
1630935169419,-0.138531,-0.255895,-1.000339
1630935169429,-0.144082,-0.235765,-0.953857
1630935169438,-0.141093,-0.228384,-0.893833
1630935169448,-0.142069,-0.223138,-0.836127
1630935169458,-0.145668,-0.214049,-0.790804
1630935169467,-0.136701,-0.206729,-0.752252
1630935169477,-0.132553,-0.202032,-0.722484
1630935169486,-0.150914,-0.193492,-0.7141879999999999
1630935169496,-0.14036099999999999,-0.184464,-0.721447
1630935169506,-0.110105,-0.217648,-0.704916
1630935169515,-0.094428,-0.230397,-0.7117479999999999
1630935169525,-0.048678,-0.290482,-0.703086
1630935169534,-0.0017079999999999999,-0.356423,-0.693692
1630935169544,0.02684,-0.40089199999999997,-0.703879
1630935169554,0.048068,-0.436272,-0.7321219999999999
1630935169563,0.05368,-0.468724,-0.787388
1630935169573,0.069174,-0.508923,-0.855403
1630935169582,0.096197,-0.565653,-0.926102
1630935169592,0.14274,-0.622993,-0.965325
1630935169602,0.056303,-0.604632,-1.011929
1630935169611,-0.046238,-0.38204299999999997,-1.064755
1630935169621,-0.059047999999999996,-0.336171,-0.973194
1630935169630,-0.14682699999999999,-0.206058,-0.941657
1630935169640,-0.153842,-0.127185,-0.964288
1630935169650,-0.084485,-0.221552,-0.9621529999999999
1630935169659,-0.098454,-0.275598,-1.041209
1630935169669,-0.090768,-0.28914,-1.136064
1630935169678,-0.105103,-0.308172,-1.21207
1630935169688,-0.181902,-0.25498,-1.350723
1630935169698,-0.20752199999999998,-0.241255,-1.4100759999999999
1630935169707,-0.191723,-0.24949,-1.351394
1630935169717,-0.168604,-0.255346,-1.235738
1630935169726,-0.141947,-0.257237,-1.145763
1630935169736,-0.12444,-0.277184,-1.11447
1630935169746,-0.11022699999999999,-0.306342,-1.092144
1630935169755,-0.105652,-0.325069,-1.065853
1630935169765,-0.107482,-0.329888,-1.03639
1630935169774,-0.107665,-0.325252,-0.999119
1630935169784,-0.104859,-0.324276,-0.95404
1630935169794,-0.109861,-0.31024599999999997,-0.907497
1630935169803,-0.120963,-0.291153,-0.869128
1630935169813,-0.133346,-0.27022999999999997,-0.836859
1630935169822,-0.138714,-0.245525,-0.80947
1630935169832,-0.14005599999999999,-0.221247,-0.7786649999999999
1630935169842,-0.132736,-0.201483,-0.749263
1630935169851,-0.113826,-0.191357,-0.7108329999999999
1630935169861,-0.108153,-0.181231,-0.686921
1630935169870,-0.0915,-0.170068,-0.684786
1630935169880,-0.063928,-0.204472,-0.684176
1630935169890,-0.039528,-0.255346,-0.714371
1630935169899,0.013969,-0.350506,-0.747372
1630935169909,0.051484,-0.438346,-0.7911699999999999
1630935169918,0.049654,-0.472018,-0.883402
1630935169928,0.042334,-0.478301,-1.001376
1630935169938,0.058682,-0.488793,-1.06628
1630935169947,0.056424999999999996,-0.487512,-1.028948
1630935169957,0.045566999999999996,-0.462441,-0.95831
1630935169966,0.039345,-0.448106,-0.900421
1630935169976,0.0549,-0.47116399999999997,-0.84973
1630935169986,0.008173999999999999,-0.48836599999999997,-0.839665
1630935169995,-0.244549,-0.21984399999999998,-1.102575
1630935170005,-0.111752,-0.217282,-0.976793
1630935170014,-0.148901,-0.31829799999999997,-0.871995
1630935170024,-0.23003099999999999,-0.326655,-0.837835
1630935170034,-0.215757,-0.31964,-0.867664
1630935170043,-0.194407,-0.316956,-0.87108
1630935170053,-0.206058,-0.320616,-0.872422
1630935170062,-0.249368,-0.301157,-0.891698
1630935170072,-0.36758599999999997,-0.275781,-1.008757
1630935170082,-0.445483,-0.188917,-1.195051
1630935170091,-0.42828099999999997,-0.191418,-1.272033
1630935170101,-0.399855,-0.236741,-1.243912
1630935170110,-0.383324,-0.251625,-1.210667
1630935170120,-0.347944,-0.27083999999999997,-1.179069
1630935170130,-0.324947,-0.289567,-1.166564
1630935170139,-0.317505,-0.29829,-1.162294
1630935170149,-0.296216,-0.29822899999999997,-1.1387479999999999
1630935170158,-0.275964,-0.292495,-1.096963
1630935170168,-0.259494,-0.27633,-1.057435
1630935170178,-0.250466,-0.253821,-1.003206
1630935170187,-0.246684,-0.220027,-0.944036
1630935170197,-0.241377,-0.186111,-0.888099
1630935170206,-0.23363,-0.167262,-0.835517
1630935170216,-0.22326,-0.155001,-0.791048
1630935170226,-0.205753,-0.157441,-0.750178
1630935170235,-0.183976,-0.155916,-0.710894
1630935170245,-0.17116599999999998,-0.14762,-0.679296
1630935170254,-0.160491,-0.145912,-0.662033
1630935170264,-0.155916,-0.15237799999999999,-0.6685599999999999
1630935170274,-0.150792,-0.170678,-0.695339
1630935170283,-0.11870599999999999,-0.217465,-0.702659
1630935170293,-0.089365,-0.267302,-0.7065629999999999
1630935170302,-0.044652,-0.322995,-0.696742
1630935170312,0.010858,-0.38308,-0.678076
1630935170322,0.049471,-0.427244,-0.678625
1630935170331,0.06478199999999999,-0.466223,-0.696803
1630935170341,0.059475,-0.489708,-0.751337
1630935170350,0.066673,-0.498187,-0.811056
1630935170360,0.081313,-0.506422,-0.849913
1630935170370,0.070699,-0.499956,-0.872605
1630935170379,-0.133285,-0.420473,-1.006988
1630935170389,-0.19117399999999998,-0.18531799999999998,-1.102636
1630935170398,-0.11730299999999999,-0.203435,-0.958005
1630935170408,-0.16104,-0.139019,-0.872483
1630935170418,-0.194346,-0.058682,-0.932385
1630935170427,-0.124074,-0.112423,-0.971364
1630935170437,-0.11022699999999999,-0.124806,-1.037061
1630935170446,-0.099796,-0.137494,-1.092144
1630935170456,-0.13786,-0.159332,-1.189927
1630935170466,-0.207156,-0.146888,-1.337852
1630935170475,-0.21777,-0.176534,-1.404952
1630935170485,-0.193614,-0.236375,-1.34505
1630935170494,-0.17116599999999998,-0.258274,-1.241716
1630935170504,-0.166103,-0.238693,-1.160708
1630935170514,-0.173484,-0.209108,-1.142774
1630935170523,-0.174521,-0.20044599999999999,-1.15107
1630935170533,-0.163968,-0.21185299999999999,-1.134722
1630935170542,-0.15390299999999998,-0.230519,-1.09922
1630935170552,-0.14579,-0.26065299999999997,-1.040965
1630935170562,-0.147376,-0.26809499999999997,-0.994849
1630935170571,-0.15451299999999998,-0.257969,-0.952881
1630935170581,-0.163175,-0.238754,-0.915122
1630935170590,-0.17385,-0.21801399999999999,-0.872422
1630935170600,-0.183122,-0.197823,-0.828136
1630935170610,-0.198738,-0.180621,-0.798551
1630935170619,-0.19397999999999999,-0.175375,-0.765733
1630935170629,-0.186294,-0.181658,-0.734196
1630935170638,-0.191906,-0.183122,-0.736819
1630935170648,-0.163358,-0.18409799999999998,-0.75091
1630935170658,-0.135298,-0.236924,-0.750727
1630935170667,-0.107055,-0.281454,-0.75945
1630935170677,-0.050508,-0.349042,-0.7552409999999999
1630935170686,-0.017324,-0.393572,-0.763903
1630935170696,-0.021228,-0.390888,-0.809287
1630935170706,-0.015493999999999999,-0.38734999999999997,-0.866261
1630935170715,-0.0051849999999999995,-0.42431599999999997,-0.885842
1630935170725,-0.009455,-0.447984,-0.876204
1630935170734,0.013176,-0.454084,-0.838567
1630935170744,0.03965,-0.46433199999999997,-0.781349
1630935170754,0.058926,-0.49977299999999997,-0.726754
1630935170763,-0.052277,-0.487512,-0.769027
1630935170773,-0.260104,-0.16530999999999998,-1.0337669999999999
1630935170782,-0.17610699999999999,-0.188368,-0.954406
1630935170792,-0.226432,-0.243756,-0.876692
1630935170802,-0.312076,-0.24912399999999998,-0.8802909999999999
1630935170811,-0.283345,-0.243939,-0.919392
1630935170821,-0.242597,-0.283711,-0.924333
1630935170830,-0.258884,-0.31781,-0.956236
1630935170840,-0.275415,-0.382592,-0.986858
1630935170850,-0.385886,-0.36453599999999997,-1.127219
1630935170859,-0.432307,-0.279624,-1.264835
1630935170869,-0.37624799999999997,-0.290055,-1.2692269999999999
1630935170878,-0.350445,-0.30256,-1.2287839999999999
1630935170888,-0.324947,-0.292251,-1.196393
1630935170898,-0.283406,-0.313906,-1.161501
1630935170907,-0.269986,-0.338855,-1.148508
1630935170917,-0.255773,-0.340319,-1.143994
1630935170926,-0.235033,-0.338184,-1.126304
1630935170936,-0.22691999999999998,-0.321287,-1.095316
1630935170946,-0.217831,-0.287554,-1.056581
1630935170955,-0.206851,-0.249673,-1.007659
1630935170965,-0.198555,-0.219966,-0.949404
1630935170974,-0.193248,-0.206058,-0.88938
1630935170984,-0.181231,-0.215391,-0.831979
1630935170994,-0.157441,-0.235399,-0.7859849999999999
1630935171003,-0.138958,-0.248941,-0.751764
1630935171013,-0.127673,-0.252662,-0.724253
1630935171022,-0.131821,-0.24095,-0.7129679999999999
1630935171032,-0.138409,-0.23033599999999999,-0.712297
1630935171042,-0.10858,-0.254919,-0.690581
1630935171051,-0.087047,-0.289933,-0.6837489999999999
1630935171061,-0.044652,-0.367159,-0.666303
1630935171070,-0.000488,-0.46036699999999997,-0.655384
1630935171080,0.017568,-0.529541,-0.679052
1630935171090,0.024888,-0.572973,-0.721508
1630935171099,0.016104,-0.580354,-0.782142
1630935171109,0.015006,-0.5438149999999999,-0.831796
1630935171118,0.001586,-0.511302,-0.845582
1630935171128,-0.007808,-0.454206,-0.8596119999999999
1630935171138,-0.102358,-0.420778,-0.921222
1630935171147,-0.22600499999999998,-0.217648,-1.067683
1630935171157,-0.069723,-0.255041,-0.871324
1630935171166,-0.09174399999999999,-0.242475,-0.759877
1630935171176,-0.134566,-0.14219099999999998,-0.773602
1630935171186,-0.08064199999999999,-0.217221,-0.821548
1630935171195,-0.08418,-0.232349,-0.912377
1630935171205,-0.082716,-0.269864,-1.012844
1630935171214,-0.11577799999999999,-0.312198,-1.147593
1630935171224,-0.182756,-0.318481,-1.339682
1630935171234,-0.148291,-0.357216,-1.428742
1630935171243,-0.113338,-0.410774,-1.382199
1630935171253,-0.117242,-0.39894,-1.28222
1630935171262,-0.116449,-0.37777299999999997,-1.201456
1630935171272,-0.12395199999999999,-0.361547,-1.168272
1630935171282,-0.132004,-0.369843,-1.16632
1630935171291,-0.140544,-0.383751,-1.165588
1630935171301,-0.147071,-0.398452,-1.141005
1630935171310,-0.15512299999999998,-0.401136,-1.108492
1630935171320,-0.161528,-0.403393,-1.052555
1630935171330,-0.172325,-0.38856999999999997,-0.998692
1630935171339,-0.18257299999999999,-0.366488,-0.952942
1630935171349,-0.188612,-0.343125,-0.916037
1630935171358,-0.185379,-0.320799,-0.88694
1630935171368,-0.17629,-0.30561,-0.858026
1630935171378,-0.16530999999999998,-0.288042,-0.8319179999999999
1630935171387,-0.146949,-0.283528,-0.7991
1630935171397,-0.131516,-0.267302,-0.77165
1630935171406,-0.125416,-0.249673,-0.7598159999999999
1630935171416,-0.119682,-0.23119,-0.76067
1630935171426,-0.077043,-0.272792,-0.724253
1630935171435,-0.053253,-0.299144,-0.705099
1630935171445,-0.017568,-0.328729,-0.704855
1630935171454,0.028364999999999998,-0.3721,-0.7147979999999999
1630935171464,0.044469,-0.41724,-0.747738
1630935171474,0.042822,-0.433344,-0.824659
1630935171483,0.058072,-0.457256,-0.899506
1630935171493,0.073139,-0.484157,-0.929518
1630935171502,0.059719,-0.47573899999999997,-0.946049
1630935171512,0.057523,-0.468358,-0.946659
1630935171522,0.07155299999999999,-0.493429,-0.908717
1630935171531,0.09235399999999999,-0.524844,-0.843752
1630935171541,0.070882,-0.53253,-0.789706
1630935171550,-0.20557,-0.305732,-0.978928
1630935171560,-0.185501,-0.043981,-1.004975
1630935171570,-0.168726,-0.209291,-0.83082
1630935171579,-0.295911,-0.176046,-0.798185
1630935171589,-0.285846,-0.16652999999999998,-0.820999
1630935171598,-0.215452,-0.193248,-0.827587
1630935171608,-0.197091,-0.253211,-0.790377
1630935171618,-0.210816,-0.295118,-0.8008689999999999
1630935171627,-0.278221,-0.335683,-0.906338
1630935171637,-0.393511,-0.210389,-1.128744
1630935171646,-0.352397,-0.196359,-1.229882
1630935171656,-0.308599,-0.24509799999999998,-1.204018
1630935171666,-0.301096,-0.255102,-1.15595
1630935171675,-0.253516,-0.28407699999999997,-1.098305
1630935171685,-0.23649699999999999,-0.295362,-1.0735999999999999
1630935171694,-0.240828,-0.269437,-1.092327
1630935171704,-0.230275,-0.249246,-1.099708
1630935171714,-0.21862399999999999,-0.24631799999999998,-1.080249
1630935171723,-0.20599699999999999,-0.241194,-1.05286
1630935171733,-0.188856,-0.255468,-1.005463
1630935171742,-0.17446,-0.264801,-0.951112
1630935171752,-0.169824,-0.262727,-0.913902
1630935171762,-0.151829,-0.26291,-0.884378
1630935171771,-0.13017399999999998,-0.271328,-0.8611369999999999
1630935171781,-0.112118,-0.282064,-0.825452
1630935171790,-0.104798,-0.28102699999999997,-0.788913
1630935171800,-0.12139,-0.267302,-0.776652
1630935171810,-0.116022,-0.254858,-0.788669
1630935171819,-0.077348,-0.300364,-0.767807
1630935171829,-0.039406,-0.334402,-0.752374
1630935171838,0.016958,-0.409737,-0.730048
1630935171848,0.051118,-0.493063,-0.7138829999999999
1630935171858,0.040565,-0.546377,-0.7598159999999999
1630935171867,0.035868,-0.570838,-0.8331379999999999
1630935171877,0.041174999999999996,-0.566812,-0.891393
1630935171886,0.034709,-0.528199,-0.917562
1630935171896,0.013908,-0.490379,-0.929518
1630935171906,0.015067,-0.467321,-0.92903
1630935171915,0.038613,-0.471713,-0.905911
1630935171925,-0.036661,-0.437614,-0.921466
1630935171934,-0.248148,-0.15390299999999998,-1.150521
1630935171944,-0.08845,-0.122915,-0.965081
1630935171954,-0.029341,-0.183366,-0.7564
1630935171963,-0.070272,-0.146461,-0.6791739999999999
1630935171973,-0.057645,-0.189832,-0.747982
1630935171982,-0.067893,-0.205936,-0.888404
1630935171992,-0.06588,-0.203374,-1.033035
1630935172002,-0.054717,-0.23302,-1.1402729999999999
1630935172011,-0.129442,-0.20630199999999999,-1.2893569999999999
1630935172021,-0.16439499999999999,-0.130845,-1.366217
1630935172030,-0.125233,-0.125172,-1.244278
1630935172040,-0.128832,-0.111752,-1.064999
1630935172050,-0.137921,-0.108519,-0.9782569999999999
1630935172059,-0.120109,-0.131943,-1.018944
1630935172069,-0.100589,-0.164822,-1.105381
1630935172078,-0.079483,-0.222589,-1.163331
1630935172088,-0.063806,-0.289933,-1.174372
1630935172098,-0.061061,-0.34526,-1.152534
1630935172107,-0.067039,-0.388204,-1.114775
1630935172117,-0.08174,-0.40028199999999997,-1.081103
1630935172126,-0.10187,-0.398025,-1.055788
1630935172136,-0.13017399999999998,-0.374113,-1.045906
1630935172146,-0.152317,-0.35258,-1.025654
1630935172155,-0.163663,-0.335744,-0.985333
1630935172165,-0.183,-0.3111,-0.94611
1630935172174,-0.186416,-0.281393,-0.904447
1630935172184,-0.172142,-0.27297499999999997,-0.850035
1630935172194,-0.161223,-0.274012,-0.797941
1630935172203,-0.146644,-0.281576,-0.762378
1630935172213,-0.11529,-0.302194,-0.740845
1630935172222,-0.076616,-0.336354,-0.726022
1630935172232,-0.04453,-0.35922899999999997,-0.716567
1630935172242,-0.013786,-0.391132,-0.723216
1630935172251,0.0066489999999999995,-0.41260399999999997,-0.747982
1630935172261,0.018117,-0.410042,-0.812642
1630935172270,0.030378,-0.41321399999999997,-0.879254
1630935172280,0.047092,-0.432856,-0.901336
1630935172290,0.051484,-0.4392,-0.872422
1630935172299,0.059292,-0.441091,-0.8270379999999999
1630935172309,0.063806,-0.44151799999999997,-0.7829349999999999
1630935172318,0.069296,-0.446459,-0.74176
1630935172328,0.0077469999999999995,-0.436089,-0.731451
1630935172338,-0.288469,-0.14518,-1.056764
1630935172347,-0.098759,-0.054046,-0.933666
1630935172357,-0.105591,-0.253821,-0.75701
1630935172366,-0.197823,-0.27175499999999997,-0.707966
1630935172376,-0.185074,-0.291946,-0.754997
1630935172386,-0.137738,-0.305793,-0.793122
1630935172395,-0.151829,-0.368013,-0.823134
1630935172405,-0.170373,-0.434747,-0.819901
1630935172414,-0.287066,-0.475861,-0.923662
1630935172424,-0.376919,-0.36880599999999997,-1.166381
1630935172434,-0.331962,-0.376736,-1.261602
1630935172443,-0.29578899999999997,-0.427122,-1.22488
1630935172453,-0.28133199999999997,-0.41900899999999996,-1.182424
1630935172462,-0.223077,-0.435662,-1.123559
1630935172472,-0.196542,-0.440115,-1.090863
1630935172482,-0.197823,-0.412665,-1.0955599999999999
1630935172491,-0.178181,-0.388326,-1.092327
1630935172501,-0.152256,-0.37515,-1.064389
1630935172510,-0.127612,-0.353983,-1.023397
1630935172520,-0.102175,-0.34599199999999997,-0.97417
1630935172530,-0.08497299999999999,-0.336354,-0.932568
1630935172539,-0.07417599999999999,-0.31842,-0.909571
1630935172549,-0.056303,-0.311161,-0.880169
1630935172558,-0.044042,-0.301706,-0.847046
1630935172568,-0.030439,-0.292312,-0.812947
1630935172578,-0.021045,-0.280478,-0.778909
1630935172587,-0.021106,-0.256078,-0.7564609999999999
1630935172597,-0.028243,-0.247782,-0.747128
1630935172606,-0.021594,-0.256505,-0.73505
1630935172616,-0.019764,-0.275354,-0.72956
1630935172626,-0.0008539999999999999,-0.305854,-0.727181
1630935172635,0.021838,-0.356667,-0.737124
1630935172645,0.04819,-0.407236,-0.752984
1630935172654,0.066734,-0.458598,-0.772992
1630935172664,0.072163,-0.486475,-0.809043
1630935172674,0.0793,-0.498187,-0.853695
1630935172683,0.086681,-0.498126,-0.892064
1630935172693,0.08790099999999999,-0.485682,-0.923601
1630935172702,0.088633,-0.469456,-0.962092
1630935172712,0.09820999999999999,-0.495869,-0.982039
1630935172722,-0.08052,-0.46555199999999997,-1.094157
1630935172731,-0.14280099999999998,-0.259677,-1.185962
1630935172741,-0.036417,-0.30597599999999997,-0.934825
1630935172750,-0.110593,-0.215574,-0.82899
1630935172760,-0.13511499999999999,-0.134749,-0.8233779999999999
1630935172770,-0.08418,-0.18361,-0.849303
1630935172779,-0.069174,-0.19611499999999998,-0.894504
1630935172789,-0.068808,-0.235155,-0.985516
1630935172798,-0.12834399999999999,-0.23588699999999999,-1.179435
1630935172808,-0.196054,-0.19178399999999998,-1.416664
1630935172818,-0.16469999999999999,-0.210511,-1.4868139999999999
1630935172827,-0.125904,-0.287371,-1.358714
1630935172837,-0.12505,-0.316529,-1.212497
1630935172846,-0.106262,-0.331962,-1.1210579999999999
1630935172856,-0.089792,-0.333792,-1.075857
1630935172866,-0.080581,-0.334768,-1.049688
1630935172875,-0.069357,-0.333304,-1.0276669999999999
1630935172885,-0.058133,-0.329217,-1.011807
1630935172894,-0.04453,-0.334707,-0.984174
1630935172904,-0.044591,-0.32970499999999997,-0.958737
1630935172914,-0.050081,-0.311771,-0.939156
1630935172923,-0.051667,-0.292373,-0.923235
1630935172933,-0.053436,-0.280661,-0.912316
1630935172942,-0.051301,-0.276513,-0.8951749999999999
1630935172952,-0.046604,-0.277916,-0.877363
1630935172962,-0.03599,-0.279563,-0.8547319999999999
1630935172971,-0.024827,-0.277672,-0.830454
1630935172981,-0.034038,-0.253577,-0.832345
1630935172990,0.007259,-0.294752,-0.790804
1630935173000,0.011833999999999999,-0.315309,-0.783972
1630935173010,0.034404,-0.340014,-0.795074
1630935173019,0.059719,-0.362828,-0.8291729999999999
1630935173029,0.058316,-0.36972099999999997,-0.908534
1630935173038,0.048434,-0.374784,-0.996557
1630935173048,0.044347,-0.376492,-1.052128
1630935173058,0.036905,-0.373991,-1.046821
1630935173067,0.031232,-0.356728,-1.017297
1630935173077,0.040077,-0.36819599999999997,-0.9776469999999999
1630935173086,0.060268,-0.386252,-0.9283589999999999
1630935173096,0.075823,-0.393572,-0.884378
1630935173106,0.07679899999999999,-0.396805,-0.841739
1630935173115,-0.148779,-0.313357,-0.9520879999999999
1630935173125,-0.268156,0.059414,-1.158512
1630935173134,-0.051545,-0.180926,-0.860649
1630935173144,-0.172447,-0.19947,-0.770186
1630935173154,-0.259555,-0.107848,-0.788364
1630935173163,-0.195993,-0.136579,-0.8030039999999999
1630935173173,-0.162626,-0.193492,-0.7665259999999999
1630935173182,-0.143838,-0.274378,-0.732549
1630935173192,-0.170617,-0.339099,-0.771894
1630935173202,-0.312869,-0.236558,-0.99064
1630935173211,-0.293105,-0.170495,-1.14863
1630935173221,-0.215696,-0.26126299999999997,-1.135759
1630935173230,-0.20319099999999998,-0.281698,-1.106418
1630935173240,-0.17116599999999998,-0.283894,-1.104222
1630935173250,-0.142252,-0.300669,-1.105076
1630935173259,-0.155062,-0.295728,-1.118252
1630935173269,-0.158173,-0.293776,-1.115324
1630935173278,-0.144265,-0.287188,-1.099769
1630935173288,-0.13017399999999998,-0.272182,-1.072136
1630935173298,-0.11163,-0.259006,-1.0248
1630935173307,-0.10174799999999999,-0.254736,-0.970693
1630935173317,-0.101809,-0.242292,-0.9341539999999999
1630935173326,-0.101565,-0.23338599999999998,-0.9110349999999999
1630935173336,-0.09406199999999999,-0.227164,-0.8866959999999999
1630935173346,-0.086315,-0.22386999999999999,-0.856806
1630935173355,-0.087535,-0.21368299999999998,-0.826306
1630935173365,-0.096319,-0.206668,-0.8048339999999999
1630935173374,-0.119072,-0.210267,-0.789828
1630935173384,-0.149633,-0.216977,-0.795928
1630935173394,-0.168726,-0.236924,-0.8078839999999999
1630935173403,-0.165066,-0.258579,-0.812032
1630935173413,-0.149816,-0.305122,-0.803187
1630935173422,-0.132065,-0.336964,-0.786717
1630935173432,-0.09943,-0.386252,-0.770064
1630935173442,-0.074786,-0.428403,-0.767563
1630935173451,-0.062403,-0.457683,-0.793976
1630935173461,-0.051545,-0.479887,-0.83631
1630935173470,-0.050142,-0.48531599999999997,-0.8936499999999999
1630935173480,-0.04697,-0.48068,-0.94428
1630935173490,-0.031781,-0.48470599999999997,-0.963312
1630935173499,-0.043066,-0.502945,-0.9603229999999999
1630935173509,-0.235399,-0.392596,-1.108858
1630935173518,-0.244,-0.21307299999999998,-1.169675
1630935173528,-0.120109,-0.266021,-0.9496479999999999
1630935173538,-0.144509,-0.170495,-0.826611
1630935173547,-0.129991,-0.104615,-0.776652
1630935173557,-0.089853,-0.134993,-0.798978
1630935173566,-0.059231,-0.142923,-0.865834
1630935173576,-0.004758,-0.199775,-0.911889
1630935173586,-0.06039,-0.20410599999999998,-1.046394
1630935173595,-0.149145,-0.175192,-1.271911
1630935173605,-0.12871,-0.22386999999999999,-1.391044
1630935173614,-0.079483,-0.333426,-1.308816
1630935173624,-0.058865,-0.364658,-1.152229
1630935173634,-0.05246,-0.345321,-1.027728
1630935173643,-0.063501,-0.324886,-0.993202
1630935173653,-0.063989,-0.328912,-1.004487
1630935173662,-0.065209,-0.342698,-1.023336
1630935173672,-0.073017,-0.363072,-1.02724
1630935173682,-0.071797,-0.37271,-0.99796
1630935173691,-0.078568,-0.360571,-0.971181
1630935173701,-0.086925,-0.334463,-0.942755
1630935173710,-0.093452,-0.31598,-0.9113399999999999
1630935173720,-0.099003,-0.301584,-0.886757
1630935173730,-0.10638399999999999,-0.285541,-0.867969
1630935173739,-0.107177,-0.270657,-0.850584
1630935173749,-0.100894,-0.261141,-0.831979
1630935173758,-0.099186,-0.266082,-0.8066639999999999
1630935173768,-0.101992,-0.263459,-0.799466
1630935173778,-0.107726,-0.25132,-0.825635
1630935173787,-0.067954,-0.2928,-0.818742
1630935173797,-0.057706,-0.326472,-0.829722
1630935173806,-0.020801,-0.378444,-0.830027
1630935173816,0.007808,-0.414556,-0.8374079999999999
1630935173826,0.0070149999999999995,-0.421632,-0.886635
1630935173835,0.004209,-0.41504399999999997,-0.9627629999999999
1630935173845,0.003294,-0.410103,-1.019554
1630935173854,0.008539999999999999,-0.41687399999999997,-1.021506
1630935173864,0.01647,-0.429623,-0.9782569999999999
1630935173874,0.026047,-0.44365299999999996,-0.931531
1630935173883,0.038918,-0.441457,-0.892857
1630935173893,-0.056364,-0.410713,-0.930555
1630935173902,-0.162504,-0.161223,-1.116788
1630935173912,-0.054778,-0.289567,-0.9715469999999999
1630935173922,-0.10577399999999999,-0.268888,-0.931836
1630935173931,-0.123403,-0.305732,-0.880779
1630935173941,-0.118584,-0.317627,-0.8547319999999999
1630935173950,-0.115717,-0.338245,-0.806786
1630935173960,-0.138836,-0.358497,-0.777384
1630935173970,-0.180865,-0.374479,-0.80947
1630935173979,-0.2867,-0.335561,-0.9603229999999999
1630935173989,-0.331291,-0.273402,-1.125389
1630935173998,-0.324398,-0.26034799999999997,-1.188219
1630935174008,-0.293105,-0.285968,-1.153998
1630935174018,-0.268522,-0.289567,-1.108675
1630935174027,-0.231068,-0.288347,-1.06506
1630935174037,-0.21490299999999998,-0.286517,-1.042978
1630935174046,-0.21862399999999999,-0.266753,-1.051457
1630935174056,-0.206546,-0.260592,-1.060302
1630935174066,-0.190808,-0.262727,-1.057984
1630935174075,-0.175924,-0.263703,-1.032486
1630935174085,-0.158173,-0.263764,-0.99308
1630935174094,-0.143838,-0.264862,-0.952576
1630935174104,-0.133346,-0.261934,-0.917318
1630935174114,-0.126941,-0.2623,-0.883097
1630935174123,-0.11895,-0.257542,-0.8516819999999999
1630935174133,-0.10699399999999999,-0.254309,-0.81557
1630935174142,-0.111203,-0.249002,-0.7878149999999999
1630935174152,-0.122488,-0.232898,-0.775066
1630935174162,-0.131577,-0.223016,-0.763964
1630935174171,-0.152927,-0.206668,-0.770003
1630935174181,-0.127978,-0.228506,-0.743468
1630935174190,-0.115046,-0.254919,-0.7302919999999999
1630935174200,-0.087962,-0.294203,-0.720288
1630935174210,-0.047153,-0.354715,-0.711199
1630935174219,-0.029463,-0.40058699999999997,-0.730841
1630935174229,-0.026962,-0.42578,-0.7832399999999999
1630935174238,-0.023058,-0.44273799999999996,-0.838872
1630935174248,-0.018483,-0.44273799999999996,-0.88633
1630935174258,-0.019764,-0.42029,-0.9027999999999999
1630935174267,-0.017019,-0.399001,-0.891088
1630935174277,-0.0028669999999999998,-0.406809,-0.86864
1630935174286,-0.10376099999999999,-0.39466999999999997,-0.9378139999999999
1630935174296,-0.233325,-0.173728,-1.157109
1630935174306,-0.074664,-0.233508,-0.987468
1630935174315,-0.025436999999999998,-0.274988,-0.825025
1630935174325,-0.028487,-0.25973799999999997,-0.758474
1630935174334,-0.002257,-0.284321,-0.781349
1630935174344,-0.005612,-0.274744,-0.877058
1630935174354,0.01281,-0.300364,-0.966545
1630935174363,-0.003477,-0.31415,-1.0958649999999999
1630935174373,-0.081984,-0.28243,-1.313086
1630935174382,-0.11041,-0.257237,-1.464793
1630935174392,-0.085034,-0.275659,-1.3812229999999999
1630935174402,-0.088572,-0.271572,-1.204384
1630935174411,-0.10083299999999999,-0.276574,-1.11996
1630935174421,-0.083448,-0.317444,-1.112762
1630935174430,-0.074359,-0.344406,-1.148447
1630935174440,-0.081618,-0.360998,-1.170224
1630935174450,-0.09089,-0.366854,-1.157292
1630935174459,-0.090951,-0.376736,-1.10593
1630935174469,-0.086376,-0.37942,-1.0447469999999999
1630935174478,-0.085034,-0.38051799999999997,-0.986126
1630935174488,-0.092415,-0.369172,-0.948794
1630935174498,-0.102175,-0.349713,-0.92476
1630935174507,-0.106872,-0.322446,-0.8976149999999999
1630935174517,-0.102602,-0.290238,-0.8644919999999999
1630935174526,-0.10205299999999999,-0.277733,-0.826916
1630935174536,-0.095038,-0.262239,-0.798551
1630935174546,-0.07448099999999999,-0.260226,-0.762988
1630935174555,-0.072346,-0.26809499999999997,-0.747006
1630935174565,-0.051301,-0.280966,-0.753594
1630935174574,-0.02196,-0.34385699999999997,-0.748714
1630935174584,0.000488,-0.38021299999999997,-0.767319
1630935174594,0.048434,-0.423035,-0.7838499999999999
1630935174603,0.08967,-0.454206,-0.793244
1630935174613,0.091927,-0.447496,-0.830759
1630935174622,0.088145,-0.42858599999999997,-0.871263
1630935174632,0.091256,-0.415776,-0.8863909999999999
1630935174642,0.089243,-0.407968,-0.87474
1630935174651,0.099003,-0.410042,-0.843813
1630935174661,0.119194,-0.433161,-0.799832
1630935174670,0.141154,-0.476471,-0.755729
1630935174680,0.161772,-0.520879,-0.733464
1630935174690,0.027694,-0.542351,-0.844362
1630935174699,-0.158722,-0.216062,-1.227747
1630935174709,-0.0046359999999999995,-0.335439,-1.050298
1630935174718,-0.079849,-0.379176,-0.967826
1630935174728,-0.14682699999999999,-0.388753,-0.916159
1630935174738,-0.133163,-0.399001,-0.9070699999999999
1630935174747,-0.12895399999999999,-0.407053,-0.903532
1630935174757,-0.12261,-0.457744,-0.8617469999999999
1630935174766,-0.134139,-0.494283,-0.81313
1630935174776,-0.249551,-0.42584099999999997,-0.94794
1630935174786,-0.28365,-0.31799299999999997,-1.127951
1630935174795,-0.230092,-0.321714,-1.166381
1630935174805,-0.203008,-0.34416199999999997,-1.121546
1630935174814,-0.186538,-0.346236,-1.058777
1630935174824,-0.150365,-0.340258,-1.014979
1630935174834,-0.143655,-0.339953,-1.000522
1630935174843,-0.15268299999999999,-0.32452,-1.000461
1630935174853,-0.145546,-0.30439,-0.986919
1630935174862,-0.136152,-0.29273899999999997,-0.951844
1630935174872,-0.123586,-0.287188,-0.9021899999999999
1630935174882,-0.108763,-0.281698,-0.850218
1630935174891,-0.095526,-0.275232,-0.814167
1630935174901,-0.087352,-0.25973799999999997,-0.812337
1630935174910,-0.069235,-0.24729399999999999,-0.8133739999999999
1630935174920,-0.066551,-0.261629,-0.798002
1630935174930,-0.065026,-0.271999,-0.783667
1630935174939,-0.053985,-0.287005,-0.769027
1630935174949,-0.058804,-0.292373,-0.767014
1630935174958,-0.066307,-0.29609399999999997,-0.789157
1630935174968,-0.067283,-0.325862,-0.823256
1630935174978,-0.066063,-0.367403,-0.8538169999999999
1630935174987,-0.015921,-0.44029799999999997,-0.834785
1630935174997,0.010797,-0.51545,-0.831552
1630935175006,0.049898,-0.581818,-0.842044
1630935175016,0.08662,-0.629703,-0.869189
1630935175026,0.100284,-0.63013,-0.931592
1630935175035,0.113277,-0.607499,-0.999485
1630935175045,0.134017,-0.604144,-1.01626
1630935175054,0.13725,-0.616771,-0.985089
1630935175064,0.137921,-0.6378159999999999,-0.933971
1630935175074,0.046848,-0.637267,-0.922076
1630935175083,-0.229543,-0.37960299999999997,-1.201151
1630935175093,-0.079849,-0.321226,-1.060607
1630935175102,-0.071126,-0.297436,-0.903166
1630935175112,-0.167994,-0.17299599999999998,-0.848205
1630935175122,-0.18178,-0.069967,-0.899323
1630935175131,-0.088572,-0.08680299999999999,-0.881755
1630935175141,-0.019337,-0.166408,-0.842471
1630935175150,0.03538,-0.24174299999999999,-0.833504
1630935175160,-0.077958,-0.25986,-1.03212
1630935175170,-0.127002,-0.225578,-1.28344
1630935175179,-0.024888,-0.35282399999999997,-1.284294
1630935175189,-0.008113,-0.481717,-1.16937
1630935175198,-0.018543999999999998,-0.51057,-1.0922049999999999
1630935175208,-0.0021349999999999997,-0.48739,-1.04188
1630935175218,-0.018056,-0.432856,-1.035475
1630935175227,-0.033367,-0.422303,-1.031083
1630935175237,-0.038979,-0.436272,-1.018944
1630935175246,-0.041053,-0.445483,-1.002962
1630935175256,-0.049593,-0.433588,-0.988261
1630935175266,-0.053191999999999996,-0.414312,-0.964776
1630935175275,-0.052155,-0.392596,-0.9311039999999999
1630935175285,-0.046787,-0.371612,-0.897371
1630935175294,-0.028548,-0.351726,-0.8732759999999999
1630935175304,-0.021533,-0.338062,-0.853268
1630935175314,-0.008235,-0.31921299999999997,-0.824964
1630935175323,-0.010065,-0.303231,-0.797697
1630935175333,-0.022997,-0.276025,-0.801662
1630935175342,0.019825,-0.290604,-0.767075
1630935175352,0.031354,-0.279807,-0.741638
1630935175362,0.049958999999999996,-0.277916,-0.724009
1630935175371,0.072102,-0.292373,-0.723216
1630935175381,0.087169,-0.308904,-0.749507
1630935175390,0.09272,-0.336171,-0.8087989999999999
1630935175400,0.096319,-0.365329,-0.882487
1630935175410,0.109861,-0.405589,-0.930372
1630935175419,0.125111,-0.457134,-0.9333
1630935175429,0.121085,-0.48739,-0.908839
1630935175438,0.108824,-0.463478,-0.889868
1630935175448,0.09406199999999999,-0.428708,-0.869433
1630935175458,0.063806,-0.390766,-0.8498519999999999
1630935175467,-0.14945,-0.312381,-0.9699
1630935175477,-0.231068,-0.024949,-1.203957
1630935175486,-0.13047899999999998,-0.174094,-1.015772
1630935175496,-0.16958,-0.20374,-0.892308
1630935175506,-0.20862,-0.227164,-0.817705
1630935175515,-0.164151,-0.275232,-0.7640859999999999
1630935175525,-0.15975899999999998,-0.329766,-0.734501
1630935175534,-0.175009,-0.34660199999999997,-0.765428
1630935175544,-0.216733,-0.372344,-0.832284
1630935175554,-0.32848499999999997,-0.279746,-1.048407
1630935175563,-0.324947,-0.232288,-1.204323
1630935175573,-0.25193,-0.282064,-1.196881
1630935175582,-0.209169,-0.330132,-1.1204479999999999
1630935175592,-0.17732699999999998,-0.347578,-1.061461
1630935175602,-0.141825,-0.348432,-1.041636
1630935175611,-0.134139,-0.335744,-1.031388
1630935175621,-0.12688,-0.314394,-1.020225
1630935175630,-0.117608,-0.317139,-0.987956
1630935175640,-0.109556,-0.326594,-0.961421
1630935175650,-0.095343,-0.342271,-0.92842
1630935175659,-0.08851099999999999,-0.340441,-0.902068
1630935175669,-0.096502,-0.31707799999999997,-0.893162
1630935175678,-0.093208,-0.298473,-0.884134
1630935175688,-0.095038,-0.296765,-0.866505
1630935175698,-0.105042,-0.290299,-0.851316
1630935175707,-0.10144299999999999,-0.292983,-0.823561
1630935175717,-0.114985,-0.279685,-0.820328
1630935175726,-0.068747,-0.27938,-0.7746999999999999
1630935175736,-0.053558,-0.30475599999999997,-0.734501
1630935175746,-0.02318,-0.338489,-0.7015
1630935175755,0.013663999999999999,-0.404613,-0.691862
1630935175765,0.02928,-0.468114,-0.728828
1630935175774,0.031903,-0.512278,-0.8011739999999999
1630935175784,0.037698,-0.538813,-0.865224
1630935175794,0.051972,-0.551318,-0.892674
1630935175803,0.08052,-0.561688,-0.881755
1630935175813,0.114192,-0.562115,-0.853878
1630935175822,0.142252,-0.550342,-0.81618
1630935175832,0.15512299999999998,-0.5395449999999999,-0.775249
1630935175842,-0.016226,-0.461526,-0.896029
1630935175851,-0.07869,-0.234972,-1.081286
1630935175861,0.056913,-0.317871,-0.900482
1630935175870,0.030012,-0.300364,-0.790316
1630935175880,-0.029036,-0.274744,-0.793488
1630935175890,0.003355,-0.316041,-0.845582
1630935175899,-0.004148,-0.323178,-0.947574
1630935175909,0.00488,-0.34465,-1.016077
1630935175918,-0.039406,-0.340929,-1.12972
1630935175928,-0.116022,-0.291519,-1.3200399999999999
1630935175938,-0.07137,-0.319335,-1.352248
1630935175947,-0.040931,-0.393999,-1.251293
1630935175957,-0.037332,-0.39711,-1.146617
1630935175966,-0.043005,-0.407846,-1.10654
1630935175976,-0.05246,-0.41382399999999997,-1.130757
1630935175986,-0.052337999999999996,-0.420656,-1.176568
1630935175995,-0.05063,-0.42919599999999997,-1.193709
1630935176005,-0.047824,-0.434076,-1.163697
1630935176014,-0.042822,-0.43737,-1.09983
1630935176024,-0.034892,-0.433466,-1.039074
1630935176034,-0.034648,-0.41687399999999997,-0.997594
1630935176043,-0.040015999999999996,-0.386618,-0.966911
1630935176053,-0.05185,-0.356667,-0.934886
1630935176062,-0.055205,-0.314455,-0.9046299999999999
1630935176072,-0.0305,-0.296521,-0.843935
1630935176082,-0.022875,-0.291214,-0.780678
1630935176091,-0.020496,-0.282369,-0.73871
1630935176101,-0.011224,-0.279014,-0.720532
1630935176110,0.037393,-0.306647,-0.694912
1630935176120,0.061,-0.351848,-0.690642
1630935176130,0.112423,-0.411323,-0.67344
1630935176139,0.147986,-0.46128199999999997,-0.658007
1630935176149,0.151097,-0.469456,-0.683017
1630935176158,0.150914,-0.46848,-0.729316
1630935176168,0.15359799999999998,-0.473848,-0.760548
1630935176178,0.157746,-0.479826,-0.772626
1630935176187,0.170007,-0.482144,-0.759328
1630935176197,0.180987,-0.500139,-0.7330369999999999
1630935176206,0.19428499999999999,-0.52521,-0.7147979999999999
1630935176216,0.204899,-0.559004,-0.7114429999999999
1630935176226,0.09211,-0.55998,-0.80215
1630935176235,-0.107665,-0.307745,-1.148569
1630935176245,0.034587,-0.335012,-1.057618
1630935176254,-0.020191,-0.395646,-0.961482
1630935176264,-0.069296,-0.3843,-0.860405
1630935176274,-0.042943999999999996,-0.416203,-0.799161
1630935176283,-0.02989,-0.427427,-0.789706
1630935176293,-0.04392,-0.433405,-0.813313
1630935176302,-0.076677,-0.42523099999999997,-0.850828
1630935176312,-0.177998,-0.390766,-0.99186
1630935176322,-0.255895,-0.295606,-1.195844
1630935176331,-0.229116,-0.3172,-1.25965
1630935176341,-0.214354,-0.36728099999999997,-1.23342
1630935176350,-0.205387,-0.396988,-1.191513
1630935176360,-0.175131,-0.412055,-1.149728
1630935176370,-0.170678,-0.402051,-1.116605
1630935176379,-0.172752,-0.383629,-1.084458
1630935176389,-0.167262,-0.368989,-1.049078
1630935176398,-0.151768,-0.373076,-1.012234
1630935176408,-0.12932,-0.377529,-0.97722
1630935176418,-0.113704,-0.374723,-0.940376
1630935176427,-0.10577399999999999,-0.359595,-0.910364
1630935176437,-0.097234,-0.337574,-0.88633
1630935176446,-0.088938,-0.31964,-0.8614419999999999
1630935176456,-0.071126,-0.311039,-0.8296
1630935176466,-0.048739,-0.317932,-0.785497
1630935176475,-0.047275,-0.315553,-0.758718
1630935176485,-0.044225,-0.32787499999999997,-0.747006
1630935176494,-0.028182,-0.350384,-0.736331
1630935176504,-0.031415,-0.367952,-0.754387
1630935176514,-0.035197,-0.37807799999999997,-0.799222
1630935176523,-0.013542,-0.405345,-0.825635
1630935176533,0.019581,-0.44426299999999996,-0.814533
1630935176542,0.051789,-0.481717,-0.7984289999999999
1630935176552,0.096502,-0.534848,-0.77409
1630935176562,0.130662,-0.590907,-0.763415
1630935176571,0.14652199999999999,-0.62159,-0.780434
1630935176581,0.150731,-0.622444,-0.819596
1630935176590,0.149938,-0.606462,-0.8614419999999999
1630935176600,0.153171,-0.597007,-0.890844
1630935176610,0.168909,-0.600545,-0.890173
1630935176619,0.181109,-0.606645,-0.8577819999999999
1630935176629,0.104554,-0.5921879999999999,-0.863211
1630935176638,-0.177388,-0.321531,-1.149972
1630935176648,0.0035989999999999998,-0.255956,-0.946415
1630935176658,-0.0060999999999999995,-0.284626,-0.721447
1630935176667,-0.122366,-0.078873,-0.725961
1630935176677,-0.079483,-0.12395199999999999,-0.780068
1630935176686,-0.044225,-0.165737,-0.907131
1630935176696,0.062342,-0.268217,-0.9283589999999999
1630935176706,0.085644,-0.385581,-1.003511
1630935176715,-0.024461,-0.394182,-1.241045
1630935176725,-0.031354,-0.397354,-1.429474
1630935176734,0.023363,-0.491904,-1.388726
1630935176744,0.034099,-0.516792,-1.2220739999999999
1630935176754,0.044896,-0.47787399999999997,-1.059326
1630935176763,0.029036,-0.41175,-1.021994
1630935176773,0.036782999999999996,-0.393999,-1.038403
1630935176782,0.039406,-0.40992,-1.05042
1630935176792,0.034038,-0.42614599999999997,-1.0368169999999999
1630935176802,0.027938,-0.45353499999999997,-1.009672
1630935176811,0.019642,-0.4636,-0.978501
1630935176821,0.0048189999999999995,-0.457744,-0.939278
1630935176830,-0.012627,-0.442311,-0.886513
1630935176840,-0.032452,-0.424377,-0.843386
1630935176850,-0.042456,-0.39955,-0.79239
1630935176859,-0.063684,-0.370575,-0.747189
1630935176869,-0.081862,-0.335683,-0.706929
1630935176878,-0.087657,-0.30414599999999997,-0.669597
1630935176888,-0.092415,-0.275415,-0.643977
1630935176898,-0.093696,-0.251869,-0.631899
1630935176907,-0.093147,-0.231373,-0.642757
1630935176917,-0.066246,-0.265167,-0.632448
1630935176926,-0.042212,-0.354288,-0.608719
1630935176936,-0.016226,-0.42614599999999997,-0.597312
1630935176946,0.023302,-0.49233099999999996,-0.582367
1630935176955,0.041663,-0.507642,-0.5927979999999999
1630935176965,0.031476,-0.493917,-0.651358
1630935176974,0.000976,-0.493917,-0.7613409999999999
1630935176984,-0.018361,-0.512583,-0.898042
1630935176994,-0.018605,-0.551989,-1.008391
1630935177003,-0.026291,-0.59597,-1.069208
1630935177013,-0.039162,-0.6162219999999999,-1.091534
1630935177022,-0.137433,-0.614758,-1.134966
1630935177032,-0.28377199999999997,-0.429562,-1.346758
1630935177042,-0.217282,-0.44743499999999997,-1.245925
1630935177051,-0.23485,-0.431148,-1.161562
1630935177061,-0.217953,-0.491172,-0.9770369999999999
1630935177070,-0.18409799999999998,-0.523685,-0.86925
1630935177080,-0.14652199999999999,-0.574864,-0.788364
1630935177090,-0.096075,-0.646783,-0.727303
1630935177099,-0.08295999999999999,-0.695949,-0.6849689999999999
1630935177109,-0.172447,-0.673684,-0.764025
1630935177118,-0.254492,-0.555405,-0.93269
1630935177128,-0.246562,-0.458537,-1.0745149999999999
1630935177138,-0.216062,-0.41870399999999997,-1.090192
1630935177147,-0.21892899999999998,-0.389973,-1.039318
1630935177157,-0.195871,-0.364414,-0.970449
1630935177166,-0.151158,-0.38021299999999997,-0.902739
1630935177176,-0.144204,-0.381799,-0.885537
1630935177186,-0.132248,-0.375455,-0.894016
1630935177195,-0.108519,-0.37899299999999997,-0.899689
1630935177205,-0.084363,-0.38917999999999997,-0.890722
1630935177214,-0.07033299999999999,-0.400526,-0.869738
1630935177224,-0.067649,-0.403149,-0.849486
1630935177234,-0.061426999999999995,-0.394304,-0.842471
1630935177243,-0.061732,-0.394792,-0.829051
1630935177253,-0.060816999999999996,-0.388753,-0.817034
1630935177262,-0.04331,-0.385703,-0.801967
1630935177272,-0.033672,-0.379481,-0.786168
1630935177282,-0.035258,-0.371002,-0.783789
1630935177291,-0.033123,-0.372222,-0.783057
1630935177301,-0.047519,-0.376309,-0.788486
1630935177310,-0.039772,-0.36850099999999997,-0.796965
1630935177320,-0.020007999999999998,-0.396439,-0.774273
1630935177330,-0.001403,-0.433161,-0.737185
1630935177339,0.025803,-0.49519799999999997,-0.683078
1630935177349,0.044286,-0.554978,-0.629154
1630935177358,0.042395,-0.58072,-0.609939
1630935177368,0.044896,-0.574742,-0.621041
1630935177378,0.047153,-0.555344,-0.649101
1630935177387,0.063074,-0.55815,-0.681065
1630935177397,0.09516,-0.616344,-0.72468
1630935177406,0.121268,-0.667828,-0.80276
1630935177416,0.031354,-0.642208,-0.919026
1630935177426,-0.090463,-0.467809,-1.117825
1630935177435,0.003721,-0.435662,-0.970449
1630935177445,0.035136,-0.445605,-0.766282
1630935177454,0.036722,-0.413946,-0.694668
1630935177464,0.116327,-0.468846,-0.741394
1630935177474,0.199104,-0.529114,-0.884134
1630935177483,0.272182,-0.607072,-0.986431
1630935177493,0.276208,-0.696742,-1.082933
1630935177502,0.196908,-0.734379,-1.262944
1630935177512,0.186477,-0.753228,-1.361886
1630935177522,0.203557,-0.768966,-1.224758
1630935177531,0.171959,-0.6791739999999999,-1.009794
1630935177541,0.12261,-0.584319,-0.883707
1630935177550,0.113582,-0.544974,-0.8596119999999999
1630935177560,0.125843,-0.534482,-0.913658
1630935177570,0.130296,-0.538264,-0.949282
1630935177579,0.133956,-0.55144,-0.941779
1630935177589,0.14335,-0.577243,-0.8997499999999999
1630935177598,0.149877,-0.601521,-0.847168
1630935177608,0.14188599999999998,-0.6162219999999999,-0.808677
1630935177618,0.12993,-0.610854,-0.780007
1630935177627,0.122732,-0.5964579999999999,-0.745969
1630935177637,0.101626,-0.5724239999999999,-0.716689
1630935177646,0.09028,-0.530517,-0.700829
1630935177656,0.081801,-0.499529,-0.678381
1630935177666,0.085522,-0.479643,-0.6600199999999999
1630935177675,0.104615,-0.46433199999999997,-0.642025
1630935177685,0.107238,-0.469151,-0.649589
1630935177694,0.121756,-0.496296,-0.694546
1630935177704,0.165249,-0.57645,-0.7093079999999999
1630935177714,0.200019,-0.6402559999999999,-0.7096129999999999
1630935177723,0.22075899999999998,-0.675514,-0.7068679999999999
1630935177733,0.228872,-0.690398,-0.7187629999999999
1630935177742,0.220332,-0.690642,-0.757193
1630935177752,0.210694,-0.685762,-0.794525
1630935177762,0.199775,-0.684115,-0.828136
1630935177771,0.195871,-0.674111,-0.847961
1630935177781,0.19550499999999998,-0.6591049999999999,-0.849059
1630935177790,0.198921,-0.634705,-0.81252
1630935177800,0.192211,-0.605486,-0.753594
1630935177810,0.03233,-0.551318,-0.798124
1630935177819,-0.08052,-0.354898,-0.9928359999999999
1630935177829,0.069296,-0.424133,-0.813191
1630935177838,0.037881,-0.559004,-0.664107
1630935177848,-0.012627,-0.601399,-0.594506
1630935177858,-0.0064659999999999995,-0.627324,-0.622932
1630935177867,0.016714,-0.6405609999999999,-0.696193
1630935177877,-0.008052,-0.6600199999999999,-0.741821
1630935177886,-0.042822,-0.6584949999999999,-0.7893399999999999
1630935177896,-0.14188599999999998,-0.619638,-0.947574
1630935177906,-0.15799,-0.535214,-1.114653
1630935177915,-0.107665,-0.541192,-1.1256329999999999
1630935177925,-0.099247,-0.545706,-1.057923
1630935177934,-0.077775,-0.525698,-0.989603
1630935177944,-0.044407999999999996,-0.52155,-0.9551379999999999
1630935177954,-0.038979,-0.49977299999999997,-0.964532
1630935177963,-0.03721,-0.465735,-0.982588
1630935177973,-0.017873,-0.446581,-0.967948
1630935177982,-0.007625,-0.44408,-0.92964
1630935177992,-0.0048189999999999995,-0.452376,-0.8870009999999999
1630935178002,-0.001769,-0.471652,-0.847473
1630935178011,-0.0028669999999999998,-0.481839,-0.836737
1630935178021,0.001769,-0.47329899999999997,-0.83936
1630935178030,-0.002379,-0.477081,-0.832284
1630935178040,-0.005307,-0.471713,-0.82167
1630935178050,0.008905999999999999,-0.460611,-0.802577
1630935178059,0.011529,-0.44286,-0.789401
1630935178069,0.008357,-0.436882,-0.788242
1630935178078,-0.011833999999999999,-0.448716,-0.791658
1630935178088,0.037759,-0.474702,-0.762195
1630935178098,0.061305,-0.5145959999999999,-0.739259
1630935178107,0.111874,-0.557052,-0.70638
1630935178117,0.154635,-0.622139,-0.680455
1630935178126,0.170678,-0.662887,-0.686433
1630935178136,0.181292,-0.683078,-0.723338
1630935178146,0.200873,-0.675514,-0.760548
1630935178155,0.228628,-0.653798,-0.766892
1630935178165,0.25668799999999997,-0.620553,-0.747738
1630935178174,0.294691,-0.598288,-0.709186
1630935178184,0.33031499999999997,-0.583648,-0.667279
1630935178194,0.321592,-0.5885279999999999,-0.648552
1630935178203,0.067588,-0.5191709999999999,-0.866627
1630935178213,0.178913,-0.40424699999999997,-0.8839509999999999
1630935178222,0.174521,-0.408761,-0.73627
1630935178232,0.095709,-0.269193,-0.7318169999999999
1630935178242,0.100711,-0.291824,-0.7373069999999999
1630935178251,0.10284599999999999,-0.349713,-0.845948
1630935178261,0.168116,-0.422852,-0.911462
1630935178270,0.202032,-0.500139,-0.953491
1630935178280,0.136091,-0.534238,-1.0900699999999999
1630935178290,0.106262,-0.547902,-1.254892
1630935178299,0.154269,-0.629642,-1.236958
1630935178309,0.15481799999999998,-0.660386,-1.133685
1630935178318,0.144204,-0.671793,-1.04371
1630935178328,0.128283,-0.655506,-1.048346
1630935178338,0.122915,-0.625738,-1.115629
1630935178347,0.132675,-0.614636,-1.145275
1630935178357,0.127124,-0.610244,-1.124169
1630935178366,0.123708,-0.6076819999999999,-1.061827
1630935178376,0.124196,-0.592371,-0.987346
1630935178386,0.12627,-0.554002,-0.915976
1630935178395,0.127307,-0.511363,-0.84546
1630935178405,0.125477,-0.45884199999999997,-0.786656
1630935178414,0.128832,-0.41175,-0.732976
1630935178424,0.133224,-0.38247,-0.679052
1630935178434,0.151402,-0.376126,-0.622688
1630935178443,0.158905,-0.370758,-0.5882229999999999
1630935178453,0.162565,-0.360388,-0.60451
1630935178462,0.207034,-0.394914,-0.598532
1630935178472,0.22630999999999998,-0.41412899999999997,-0.609756
1630935178482,0.260714,-0.422974,-0.612379
1630935178491,0.290543,-0.451278,-0.604632
1630935178501,0.29761899999999997,-0.468968,-0.622139
1630935178510,0.290909,-0.481656,-0.67222
1630935178520,0.28365,-0.495381,-0.748897
1630935178530,0.28438199999999997,-0.522709,-0.810568
1630935178539,0.291214,-0.55388,-0.839604
1630935178549,0.290604,-0.571936,-0.825757
1630935178558,0.288591,-0.563762,-0.7826299999999999
1630935178568,0.282003,-0.545706,-0.7336469999999999
1630935178578,0.25437,-0.520818,-0.709247
1630935178587,0.020191,-0.416996,-0.899994
1630935178597,0.075213,-0.21167,-1.067134
1630935178606,0.149572,-0.386496,-0.85339
1630935178616,0.059719,-0.467199,-0.765367
1630935178626,-0.009699,-0.498309,-0.834785
1630935178635,0.05551,-0.55144,-0.922503
1630935178645,0.090585,-0.625067,-0.939156
1630935178654,0.075335,-0.671732,-0.896578
1630935178664,0.014823,-0.681248,-0.905484
1630935178674,-0.074847,-0.564677,-1.100684
1630935178683,-0.034587,-0.5164259999999999,-1.188097
1630935178693,0.001586,-0.531127,-1.127951
1630935178702,0.000183,-0.497455,-1.059204
1630935178712,0.047214,-0.480802,-0.993934
1630935178722,0.091683,-0.49141599999999996,-0.930921
1630935178731,0.10065,-0.46219699999999997,-0.916586
1630935178741,0.11223999999999999,-0.42517,-0.906948
1630935178750,0.121878,-0.385459,-0.8936499999999999
1630935178760,0.121878,-0.352275,-0.876082
1630935178770,0.12956399999999998,-0.343613,-0.843386
1630935178779,0.128832,-0.35075,-0.81008
1630935178789,0.125599,-0.35495899999999997,-0.7896449999999999
1630935178798,0.123891,-0.356972,-0.780556
1630935178808,0.117852,-0.364902,-0.772199
1630935178818,0.114741,-0.364902,-0.765855
1630935178827,0.116327,-0.36697599999999997,-0.76189
1630935178837,0.109495,-0.356301,-0.77165
1630935178846,0.095221,-0.357643,-0.795684
1630935178856,0.098027,-0.377895,-0.809531
1630935178866,0.11992599999999999,-0.42761,-0.788242
1630935178875,0.147559,-0.471225,-0.750727
1630935178885,0.188002,-0.528626,-0.7080879999999999
1630935178894,0.219905,-0.60085,-0.675941
1630935178904,0.230214,-0.677832,-0.6932039999999999
1630935178914,0.228689,-0.740906,-0.75152
1630935178923,0.217831,-0.761707,-0.8383229999999999
1630935178933,0.207644,-0.740601,-0.906216
1630935178942,0.201788,-0.699792,-0.911767
1630935178952,0.188002,-0.648918,-0.880657
1630935178962,0.046787,-0.5839529999999999,-0.9277489999999999
1630935178971,-0.09028,-0.339282,-1.131367
1630935178981,0.065697,-0.353617,-0.91744
1630935178990,0.096746,-0.354227,-0.687836
1630935179000,0.07686,-0.312015,-0.546621
1630935179010,0.131516,-0.357582,-0.506727
1630935179019,0.190747,-0.41717899999999997,-0.579378
1630935179029,0.205448,-0.445361,-0.726388
1630935179038,0.170983,-0.434198,-0.93086
1630935179048,0.074908,-0.404918,-1.1697359999999999
1630935179058,0.036539,-0.391071,-1.322602
1630935179067,0.059902,-0.43737,-1.246657
1630935179077,0.06222,-0.4209,-1.035536
1630935179086,0.02013,-0.366488,-0.923235
1630935179096,-0.000976,-0.31951799999999997,-0.944829
1630935179106,-0.006344,-0.307928,-1.0398669999999999
1630935179115,-0.013176,-0.304512,-1.1210579999999999
1630935179125,-0.004026,-0.314516,-1.152168
1630935179134,0.015616,-0.350628,-1.126365
1630935179144,0.036661,-0.383629,-1.087752
1630935179154,0.051362,-0.398086,-1.05347
1630935179163,0.060634,-0.40638199999999997,-1.021689
1630935179173,0.055570999999999995,-0.40077,-0.9974109999999999
1630935179182,0.06649,-0.38003,-0.963312
1630935179192,0.080215,-0.373137,-0.9031049999999999
1630935179202,0.081984,-0.36789099999999997,-0.843142
1630935179211,0.083509,-0.363377,-0.802028
1630935179221,0.080398,-0.355081,-0.781227
1630935179230,0.09759999999999999,-0.343674,-0.776896
1630935179240,0.119682,-0.34953,-0.776103
1630935179250,0.147071,-0.370819,-0.776042
1630935179259,0.207949,-0.41968,-0.747555
1630935179269,0.256322,-0.486109,-0.716079
1630935179278,0.292617,-0.5441199999999999,-0.718275
1630935179288,0.30872099999999997,-0.582733,-0.763659
1630935179298,0.306708,-0.610366,-0.809592
1630935179307,0.28621199999999997,-0.628361,-0.847473
1630935179317,0.270047,-0.648125,-0.873154
1630935179326,0.261019,-0.646661,-0.885049
1630935179336,0.25699299999999997,-0.624518,-0.878095
1630935179346,0.245342,-0.58987,-0.8461919999999999
1630935179355,0.230763,-0.553209,-0.816058
1630935179365,0.227042,-0.538813,-0.783118
1630935179374,0.17141,-0.538569,-0.764452
1630935179384,-0.162748,-0.307989,-1.095926
1630935179394,0.099735,-0.244732,-0.953247
1630935179403,0.051789,-0.44395799999999996,-0.7567659999999999
1630935179413,-0.067344,-0.407419,-0.713212
1630935179422,-0.076738,-0.398696,-0.769698
1630935179432,-0.025131999999999998,-0.39497499999999997,-0.837774
1630935179442,-0.042334,-0.432673,-0.824537
1630935179451,-0.073017,-0.475678,-0.7887299999999999
1630935179461,-0.218685,-0.52887,-0.871019
1630935179470,-0.31951799999999997,-0.418216,-1.107333
1630935179480,-0.236436,-0.489647,-1.153083
1630935179490,-0.215452,-0.568581,-1.111359
1630935179499,-0.210084,-0.545401,-1.091534
1630935179509,-0.136823,-0.552172,-1.070489
1630935179518,-0.091866,-0.551989,-1.046638
1630935179528,-0.081618,-0.5063,-1.043893
1630935179538,-0.051484,-0.464881,-1.0267519999999999
1630935179547,-0.030866,-0.418338,-0.989664
1630935179557,-0.011895,-0.37929799999999997,-0.947147
1630935179566,0.010675,-0.3721,-0.902129
1630935179576,0.026047,-0.358192,-0.873947
1630935179586,0.026900999999999998,-0.345931,-0.854915
1630935179595,0.025742,-0.342088,-0.838811
1630935179605,0.034587,-0.350262,-0.814533
1630935179614,0.036295,-0.344894,-0.795135
1630935179624,0.031781,-0.32147,-0.797331
1630935179634,0.029523999999999998,-0.305427,-0.796965
1630935179643,0.010492,-0.286883,-0.792756
1630935179653,-0.028243,-0.269498,-0.813191
1630935179662,-0.012688,-0.29585,-0.824476
1630935179672,0.000915,-0.367098,-0.827465
1630935179682,0.013603,-0.42395,-0.828502
1630935179691,0.040565,-0.482815,-0.824659
1630935179701,0.054655999999999996,-0.524844,-0.823744
1630935179710,0.054717,-0.537166,-0.848876
1630935179720,0.05185,-0.537349,-0.88023
1630935179730,0.05124,-0.541802,-0.906338
1630935179739,0.04636,-0.5380199999999999,-0.939766
1630935179749,0.046116,-0.552111,-0.971669
1630935179758,-0.103517,-0.446276,-1.110932
1630935179768,-0.064416,-0.336415,-1.096658
1630935179778,-0.007503,-0.362279,-0.894687
1630935179787,-0.061244,-0.271816,-0.790987
1630935179797,-0.081313,-0.243512,-0.773175
1630935179806,-0.068808,-0.254675,-0.821792
1630935179816,-0.053924,-0.281881,-0.890173
1630935179826,-0.067832,-0.25638299999999997,-1.000461
1630935179835,-0.11870599999999999,-0.24973399999999998,-1.134112
1630935179845,-0.154574,-0.24143799999999999,-1.253794
1630935179854,-0.132736,-0.244732,-1.264896
1630935179864,-0.10284599999999999,-0.241133,-1.163026
1630935179874,-0.10492,-0.24851399999999998,-1.061278
1630935179883,-0.12102399999999999,-0.263886,-1.02358
1630935179893,-0.11834,-0.293471,-1.029253
1630935179902,-0.120841,-0.304268,-1.039623
1630935179912,-0.130601,-0.289994,-1.047309
1630935179922,-0.13847,-0.28224699999999997,-1.038708
1630935179931,-0.132858,-0.272121,-1.017602
1630935179941,-0.127978,-0.256566,-0.989908
1630935179950,-0.129076,-0.23710699999999998,-0.9627629999999999
1630935179960,-0.123769,-0.225273,-0.938851
1630935179970,-0.11193499999999999,-0.220332,-0.916098
1630935179979,-0.10467599999999999,-0.224358,-0.888709
1630935179989,-0.08588799999999999,-0.23588699999999999,-0.847534
1630935179998,-0.06893,-0.24522,-0.798673
1630935180008,-0.07259,-0.234484,-0.781898
1630935180018,-0.048312,-0.244305,-0.784338
1630935180027,-0.008113,-0.305549,-0.765733
1630935180037,0.015372,-0.356911,-0.758352
1630935180046,0.058133,-0.403454,-0.7604259999999999
1630935180056,0.10699399999999999,-0.457134,-0.766892
1630935180066,0.140849,-0.493612,-0.769515
1630935180075,0.140849,-0.474031,-0.7999539999999999
1630935180085,0.134993,-0.47146899999999997,-0.852109
1630935180094,0.144204,-0.492514,-0.882243
1630935180104,0.161955,-0.530456,-0.889563
1630935180114,0.188917,-0.569801,-0.875167
1630935180123,0.217953,-0.582001,-0.851804
1630935180133,0.241072,-0.573156,-0.829661
1630935180142,0.258762,-0.560773,-0.8017839999999999
1630935180152,0.211487,-0.5450349999999999,-0.798368
1630935180162,-0.061366,-0.337513,-1.076101
1630935180171,0.072529,-0.241682,-1.115629
1630935180181,0.122366,-0.417972,-0.8522919999999999
1630935180190,0.037942,-0.41687399999999997,-0.674904
1630935180200,-0.029219,-0.432673,-0.637572
1630935180210,0.007503,-0.462868,-0.716262
1630935180219,0.06740499999999999,-0.564616,-0.763659
1630935180229,0.095526,-0.639463,-0.7549359999999999
1630935180238,0.013542,-0.636657,-0.825696
1630935180248,-0.069418,-0.480863,-1.053165
1630935180258,-0.014701,-0.445117,-1.131794
1630935180267,0.000549,-0.46616199999999997,-1.078602
1630935180277,-0.028243,-0.453291,-1.018334
1630935180286,-0.008784,-0.456463,-0.960811
1630935180296,0.011285,-0.46543,-0.934703
1630935180306,0.020252,-0.45658499999999996,-0.939095
1630935180315,0.039162,-0.442494,-0.957639
1630935180325,0.059047999999999996,-0.422303,-0.969351
1630935180334,0.073383,-0.39967199999999997,-0.965874
1630935180344,0.08527799999999999,-0.392047,-0.9353739999999999
1630935180354,0.095465,-0.391132,-0.894626
1630935180363,0.094733,-0.37960299999999997,-0.872849
1630935180373,0.092964,-0.37759,-0.854854
1630935180382,0.101504,-0.386801,-0.8255129999999999
1630935180392,0.110288,-0.39314499999999997,-0.789584
1630935180402,0.11895,-0.37942,-0.76677
1630935180411,0.116632,-0.366549,-0.7546309999999999
1630935180421,0.109068,-0.37002599999999997,-0.752557
1630935180430,0.102419,-0.38887499999999997,-0.76616
1630935180440,0.09820999999999999,-0.409066,-0.790194
1630935180450,0.113521,-0.440481,-0.812886
1630935180459,0.146034,-0.49044,-0.8124589999999999
1630935180469,0.178669,-0.526491,-0.811483
1630935180478,0.21801399999999999,-0.566385,-0.806786
1630935180488,0.245586,-0.608048,-0.809836
1630935180498,0.2623,-0.640927,-0.825757
1630935180507,0.274561,-0.651419,-0.847473
1630935180517,0.28041699999999997,-0.654469,-0.872178
1630935180526,0.283894,-0.673135,-0.897493
1630935180536,0.286395,-0.687592,-0.911523
1630935180546,0.260897,-0.686738,-0.908473
1630935180555,0.053314,-0.56669,-1.071404
1630935180565,0.10900699999999999,-0.450912,-1.041026
1630935180574,0.152134,-0.448899,-0.816363
1630935180584,0.120048,-0.36423099999999997,-0.628117
1630935180594,0.120902,-0.34172199999999997,-0.535458
1630935180603,0.14896199999999998,-0.364048,-0.572912
1630935180613,0.190137,-0.39131499999999997,-0.698755
1630935180622,0.20801,-0.40821199999999996,-0.861808
1630935180632,0.148596,-0.376675,-1.102819
1630935180642,0.100711,-0.335927,-1.346514
1630935180651,0.103395,-0.413031,-1.403671
1630935180661,0.124379,-0.495564,-1.29747
1630935180670,0.128771,-0.5133759999999999,-1.124169
1630935180680,0.110105,-0.465003,-1.0288869999999999
1630935180690,0.102907,-0.430172,-1.024556
1630935180699,0.08845,-0.400709,-1.055666
1630935180709,0.074542,-0.367525,-1.070367
1630935180718,0.069296,-0.362401,-1.054019
1630935180728,0.074237,-0.38826499999999997,-1.012783
1630935180738,0.070699,-0.40809,-0.977098
1630935180747,0.069479,-0.410286,-0.945256
1630935180757,0.049593,-0.416386,-0.913597
1630935180766,0.031964,-0.413702,-0.8870009999999999
1630935180776,0.024766,-0.406504,-0.854
1630935180786,0.017568,-0.38765499999999997,-0.831552
1630935180795,0.020007999999999998,-0.36941599999999997,-0.81618
1630935180805,0.028243,-0.360205,-0.794403
1630935180814,0.037332,-0.352885,-0.771162
1630935180824,0.047092,-0.34141699999999997,-0.758779
1630935180834,0.086132,-0.34282,-0.740784
1630935180843,0.12102399999999999,-0.370819,-0.710284
1630935180853,0.164883,-0.417728,-0.676002
1630935180862,0.212524,-0.473238,-0.65087
1630935180872,0.254309,-0.528504,-0.652578
1630935180882,0.28316199999999997,-0.570838,-0.682956
1630935180891,0.304268,-0.596702,-0.719983
1630935180901,0.313357,-0.603961,-0.751215
1630935180910,0.317627,-0.599569,-0.768417
1630935180920,0.325313,-0.579134,-0.768356
1630935180930,0.33611,-0.550647,-0.746091
1630935180939,0.3477,-0.528504,-0.7053429999999999
1630935180949,0.356423,-0.523014,-0.653371
1630935180958,0.303536,-0.52704,-0.629032
1630935180968,0.023972999999999998,-0.358985,-0.938363
1630935180978,0.164883,-0.23216599999999998,-1.009489
1630935180987,0.201422,-0.423767,-0.839604
1630935180997,0.132492,-0.540521,-0.722789
1630935181006,0.12956399999999998,-0.591639,-0.739869
1630935181016,0.180316,-0.60756,-0.823439
1630935181026,0.191235,-0.608536,-0.909388
1630935181035,0.184769,-0.626836,-0.920917
1630935181045,0.078324,-0.602619,-1.023946
1630935181054,0.0021349999999999997,-0.479948,-1.214815
1630935181064,0.039833,-0.450424,-1.25965
1630935181074,0.059047999999999996,-0.46726,-1.189012
1630935181083,0.055144,-0.441152,-1.142225
1630935181093,0.097539,-0.4392,-1.107821
1630935181102,0.11779099999999999,-0.451034,-1.082689
1630935181112,0.11699799999999999,-0.440786,-1.06201
1630935181122,0.128527,-0.431575,-1.019005
1630935181131,0.142374,-0.415288,-0.967704
1630935181141,0.156343,-0.385337,-0.914329
1630935181150,0.154635,-0.357216,-0.866383
1630935181160,0.147315,-0.333548,-0.8386279999999999
1630935181170,0.149206,-0.324032,-0.816973
1630935181179,0.150182,-0.31842,-0.807152
1630935181189,0.15616,-0.321714,-0.794525
1630935181198,0.164639,-0.32269,-0.769515
1630935181208,0.164273,-0.317932,-0.745115
1630935181218,0.163846,-0.315492,-0.719556
1630935181227,0.15982,-0.324886,-0.700768
1630935181237,0.140727,-0.328058,-0.7178479999999999
1630935181246,0.167262,-0.330193,-0.744322
1630935181256,0.204411,-0.353983,-0.725473
1630935181266,0.232593,-0.34721199999999997,-0.711504
1630935181275,0.271877,-0.35197,-0.70516
1630935181285,0.312259,-0.364597,-0.700646
1630935181294,0.341478,-0.387716,-0.712602
1630935181304,0.366732,-0.447008,-0.745054
1630935181314,0.393999,-0.533872,-0.800381
1630935181323,0.43737,-0.624701,-0.844423
1630935181333,0.476288,-0.691618,-0.844789
1630935181342,0.48562099999999997,-0.719617,-0.818254
1630935181352,0.242475,-0.64233,-0.942511
1630935181362,0.196237,-0.38308,-1.05347
1630935181371,0.250527,-0.383324,-0.7905599999999999
1630935181381,0.10052799999999999,-0.21215799999999999,-0.704184
1630935181390,0.06283,-0.166042,-0.71187
1630935181400,0.099796,-0.255285,-0.81008
1630935181410,0.128893,-0.322324,-0.9268339999999999
1630935181419,0.144814,-0.36789099999999997,-1.0404769999999999
1630935181429,0.11577799999999999,-0.416447,-1.196576
1630935181438,0.02562,-0.393816,-1.4143459999999999
1630935181448,0.028059999999999998,-0.389119,-1.449177
1630935181458,0.027389,-0.395097,-1.3224799999999999
1630935181467,0.005307,-0.364902,-1.193404
1630935181477,0.012688,-0.338489,-1.11447
1630935181486,0.008173999999999999,-0.334951,-1.083848
1630935181496,-0.018239,-0.337208,-1.0836649999999999
1630935181506,-0.033123,-0.334951,-1.071465
1630935181515,-0.037087999999999996,-0.347944,-1.057496
1630935181525,-0.033367,-0.365695,-1.032181
1630935181534,-0.034953,-0.385764,-0.9928359999999999
1630935181544,-0.048007,-0.388692,-0.95404
1630935181554,-0.055998,-0.390583,-0.922381
1630935181563,-0.065026,-0.378871,-0.900116
1630935181573,-0.075213,-0.357338,-0.907558
1630935181582,-0.074115,-0.354288,-0.903471
1630935181592,-0.066673,-0.361547,-0.876448
1630935181602,-0.059719,-0.36722,-0.845948
1630935181611,-0.051789,-0.360266,-0.827831
1630935181621,-0.039955,-0.350079,-0.811483
1630935181630,-0.006161,-0.36972099999999997,-0.772138
1630935181640,0.020496,-0.403759,-0.720654
1630935181650,0.053558,-0.44365299999999996,-0.672525
1630935181659,0.078019,-0.475068,-0.642635
1630935181669,0.078934,-0.467016,-0.665998
1630935181678,0.081191,-0.44834999999999997,-0.723643
1630935181688,0.082228,-0.444995,-0.774639
1630935181698,0.082716,-0.468785,-0.8051389999999999
1630935181707,0.076067,-0.499956,-0.825574
1630935181717,0.088328,-0.537532,-0.817583
1630935181726,0.105225,-0.560712,-0.765245
1630935181736,0.075396,-0.528748,-0.711626
1630935181746,-0.237534,-0.277184,-0.922686
1630935181755,-0.222162,0.041724,-0.978806
1630935181765,-0.17269099999999998,-0.11773,-0.835944
1630935181774,-0.240523,-0.15128,-0.780861
1630935181784,-0.234728,-0.193004,-0.807213
1630935181794,-0.167872,-0.227164,-0.8239879999999999
1630935181803,-0.09589199999999999,-0.331901,-0.777811
1630935181813,-0.07649399999999999,-0.413763,-0.7400519999999999
1630935181822,-0.152134,-0.420412,-0.832955
1630935181832,-0.28377199999999997,-0.301828,-1.095926
1630935181842,-0.275964,-0.238998,-1.290516
1630935181851,-0.194834,-0.310673,-1.352797
1630935181861,-0.156892,-0.387045,-1.344196
1630935181870,-0.121207,-0.435174,-1.294786
1630935181880,-0.095038,-0.445178,-1.212131
1630935181890,-0.11956,-0.410408,-1.161867
1630935181899,-0.125782,-0.379847,-1.151985
1630935181909,-0.116266,-0.364719,-1.137711
1630935181918,-0.101077,-0.34831,-1.105991
1630935181928,-0.101931,-0.327448,-1.056093
1630935181938,-0.104432,-0.297192,-0.9952759999999999
1630935181947,-0.109556,-0.268766,-0.927017
1630935181957,-0.12017,-0.235094,-0.880169
1630935181966,-0.120292,-0.219356,-0.835334
1630935181976,-0.11516799999999999,-0.22356499999999999,-0.790499
1630935181986,-0.11406999999999999,-0.230885,-0.75274
1630935181995,-0.116937,-0.230214,-0.725046
1630935182005,-0.11651,-0.218258,-0.714371
1630935182014,-0.118828,-0.206729,-0.710345
1630935182024,-0.127917,-0.192394,-0.73261
1630935182034,-0.122122,-0.204838,-0.769088
1630935182043,-0.088023,-0.254187,-0.780617
1630935182053,-0.060207,-0.321592,-0.793915
1630935182062,-0.030560999999999998,-0.38051799999999997,-0.801662
1630935182072,-0.01464,-0.42492599999999997,-0.810751
1630935182082,-0.017934,-0.445788,-0.848205
1630935182091,-0.009821,-0.48031399999999996,-0.898469
1630935182101,0.0048189999999999995,-0.513559,-0.954101
1630935182110,0.022203999999999998,-0.542656,-0.994422
1630935182120,0.032818,-0.559065,-1.013698
1630935182130,0.048739,-0.575352,-1.005158
1630935182139,-0.045566999999999996,-0.570716,-1.039318
1630935182149,-0.26352,-0.30256,-1.264591
1630935182158,-0.079239,-0.282674,-1.0288869999999999
1630935182168,-0.081008,-0.260592,-0.809775
1630935182178,-0.144326,-0.110898,-0.737185
1630935182187,-0.123586,-0.136762,-0.774639
1630935182197,-0.128283,-0.153415,-0.887855
1630935182206,-0.071065,-0.222345,-0.9516
1630935182216,-0.078934,-0.296033,-1.046455
1630935182226,-0.20069,-0.283894,-1.256112
1630935182235,-0.22167399999999998,-0.27205999999999997,-1.428742
1630935182245,-0.183061,-0.324947,-1.410442
1630935182254,-0.161772,-0.309575,-1.275693
1630935182264,-0.155245,-0.272487,-1.111908
1630935182274,-0.174277,-0.228018,-1.031754
1630935182283,-0.185257,-0.218441,-1.017297
1630935182293,-0.171349,-0.234423,-0.9925309999999999
1630935182302,-0.162382,-0.245342,-0.966545
1630935182312,-0.1586,-0.256322,-0.933666
1630935182322,-0.157868,-0.270169,-0.9104249999999999
1630935182331,-0.149877,-0.273951,-0.87474
1630935182341,-0.146278,-0.270352,-0.84302
1630935182350,-0.15390299999999998,-0.266082,-0.813801
1630935182360,-0.168726,-0.252601,-0.791048
1630935182370,-0.180011,-0.238998,-0.775676
1630935182379,-0.185379,-0.226554,-0.748775
1630935182389,-0.187697,-0.211731,-0.7324269999999999
1630935182398,-0.191967,-0.196847,-0.73322
1630935182408,-0.18562299999999998,-0.205143,-0.747311
1630935182418,-0.16439499999999999,-0.23119,-0.762683
1630935182427,-0.131272,-0.278892,-0.758718
1630935182437,-0.104432,-0.345016,-0.751764
1630935182446,-0.074908,-0.39344999999999997,-0.750788
1630935182456,-0.057583999999999996,-0.427732,-0.759633
1630935182466,-0.057828,-0.427488,-0.804956
1630935182475,-0.059475,-0.421876,-0.873947
1630935182485,-0.061244,-0.417667,-0.943121
1630935182494,-0.057767,-0.413763,-0.97783
1630935182504,-0.060878,-0.402905,-0.960384
1630935182514,-0.054229,-0.389668,-0.902373
1630935182523,-0.051727999999999996,-0.382226,-0.838872
1630935182533,-0.21716,-0.30195,-0.936228
1630935182542,-0.289628,-0.064904,-1.092693
1630935182552,-0.122793,-0.23003099999999999,-0.892003
1630935182562,-0.157868,-0.336659,-0.7811049999999999
1630935182571,-0.234667,-0.339282,-0.815143
1630935182581,-0.20374,-0.329278,-0.866078
1630935182590,-0.175436,-0.351482,-0.861381
1630935182600,-0.174887,-0.41321399999999997,-0.830454
1630935182610,-0.25132,-0.41992399999999996,-0.898652
1630935182619,-0.376614,-0.331596,-1.0754299999999999
1630935182629,-0.40077,-0.238815,-1.207068
1630935182638,-0.350201,-0.280173,-1.183888
1630935182648,-0.34202699999999997,-0.305549,-1.13338
1630935182658,-0.332511,-0.298656,-1.106357
1630935182667,-0.295301,-0.308965,-1.069452
1630935182677,-0.29158,-0.30414599999999997,-1.045113
1630935182686,-0.28255199999999997,-0.289506,-1.0355969999999999
1630935182696,-0.258579,-0.280783,-1.016199
1630935182706,-0.24583,-0.273524,-0.992165
1630935182715,-0.239303,-0.252174,-0.973926
1630935182725,-0.21801399999999999,-0.237534,-0.943792
1630935182734,-0.203679,-0.229177,-0.923601
1630935182744,-0.192821,-0.227164,-0.9131699999999999
1630935182754,-0.164578,-0.250344,-0.876997
1630935182763,-0.153232,-0.260104,-0.837652
1630935182773,-0.141825,-0.264984,-0.801723
1630935182782,-0.131516,-0.276452,-0.765489
1630935182792,-0.136457,-0.283955,-0.755912
1630935182802,-0.15512299999999998,-0.288164,-0.775188
1630935182811,-0.125416,-0.31232,-0.777994
1630935182821,-0.122122,-0.338306,-0.798978
1630935182830,-0.095465,-0.365695,-0.818986
1630935182840,-0.046116,-0.419985,-0.817949
1630935182850,-0.012688,-0.468114,-0.8164239999999999
1630935182859,0.009943,-0.496479,-0.829234
1630935182869,0.023241,-0.518012,-0.850584
1630935182878,0.027938,-0.527772,-0.878644
1630935182888,0.037698,-0.538874,-0.899811
1630935182898,0.048861,-0.549366,-0.91744
1630935182907,0.083387,-0.576145,-0.907009
1630935182917,-0.039162,-0.563457,-0.968741
1630935182926,-0.14274,-0.330132,-1.100074
1630935182936,0.028182,-0.375394,-0.888343
1630935182946,-0.056791,-0.271694,-0.822524
1630935182955,-0.106872,-0.147986,-0.8538169999999999
1630935182965,-0.069967,-0.218746,-0.888343
1630935182974,-0.080764,-0.251625,-0.953674
1630935182984,-0.083387,-0.304878,-1.03334
1630935182994,-0.133895,-0.328973,-1.169919
1630935183003,-0.224419,-0.307745,-1.372012
1630935183013,-0.21106,-0.331474,-1.423557
1630935183022,-0.19117399999999998,-0.336964,-1.324798
1630935183032,-0.208986,-0.286334,-1.197308
1630935183042,-0.20410599999999998,-0.25973799999999997,-1.137162
1630935183051,-0.174216,-0.270352,-1.109651
1630935183061,-0.141398,-0.29036,-1.078297
1630935183070,-0.121695,-0.300486,-1.044259
1630935183080,-0.095404,-0.316712,-0.999912
1630935183090,-0.079544,-0.338489,-0.942999
1630935183099,-0.076006,-0.3355,-0.8988349999999999
1630935183109,-0.076677,-0.318054,-0.860893
1630935183118,-0.08295999999999999,-0.291702,-0.842715
1630935183128,-0.09174399999999999,-0.277367,-0.822829
1630935183138,-0.093757,-0.274744,-0.800808
1630935183147,-0.08942599999999999,-0.275598,-0.774151
1630935183157,-0.07503,-0.272304,-0.7421869999999999
1630935183166,-0.06539199999999999,-0.26352,-0.724009
1630935183176,-0.072224,-0.250893,-0.734318
1630935183186,-0.042212,-0.266692,-0.74115
1630935183195,-0.019825,-0.31707799999999997,-0.742248
1630935183205,0.01098,-0.36661,-0.763598
1630935183214,0.054168,-0.426268,-0.798978
1630935183224,0.07356599999999999,-0.447496,-0.84912
1630935183234,0.077897,-0.44408,-0.912438
1630935183243,0.080825,-0.45383999999999997,-0.9660569999999999
1630935183253,0.085827,-0.482266,-1.004121
1630935183262,0.089365,-0.511241,-1.017968
1630935183272,0.09089,-0.524722,-1.005402
1630935183282,0.087718,-0.524844,-0.990213
1630935183291,0.09333,-0.52582,-0.975939
1630935183301,0.10607899999999999,-0.531981,-0.949587
1630935183310,0.040931,-0.512278,-0.94733
1630935183320,-0.29578899999999997,-0.203679,-1.237507
1630935183330,-0.141947,-0.055937,-1.102392
1630935183339,-0.10492,-0.300486,-0.8264279999999999
1630935183349,-0.246257,-0.283833,-0.741333
1630935183358,-0.24705,-0.289262,-0.75945
1630935183368,-0.20557,-0.32104299999999997,-0.756644
1630935183378,-0.20319099999999998,-0.35746,-0.718702
1630935183387,-0.226066,-0.367525,-0.703452
1630935183397,-0.33611,-0.346053,-0.805322
1630935183406,-0.46238,-0.196054,-1.057984
1630935183416,-0.41846,-0.170312,-1.194685
1630935183426,-0.36453599999999997,-0.232227,-1.190354
1630935183435,-0.348798,-0.235704,-1.167479
1630935183445,-0.293288,-0.255163,-1.113982
1630935183454,-0.269742,-0.261019,-1.077443
1630935183464,-0.264862,-0.229238,-1.0732949999999999
1630935183474,-0.24265799999999998,-0.21337799999999998,-1.052921
1630935183483,-0.22075899999999998,-0.213134,-1.012905
1630935183493,-0.196664,-0.225822,-0.96746
1630935183502,-0.169214,-0.241316,-0.920673
1630935183512,-0.156282,-0.234484,-0.898347
1630935183522,-0.14274,-0.235155,-0.88206
1630935183531,-0.131638,-0.232532,-0.860405
1630935183541,-0.126209,-0.22143,-0.8389329999999999
1630935183550,-0.125355,-0.216794,-0.828136
1630935183560,-0.127795,-0.210267,-0.826184
1630935183570,-0.131516,-0.217831,-0.828075
1630935183579,-0.140544,-0.233569,-0.841861
1630935183589,-0.144082,-0.249795,-0.866017
1630935183598,-0.112606,-0.28224699999999997,-0.869189
1630935183608,-0.081679,-0.326289,-0.859246
1630935183618,-0.042517,-0.36545099999999997,-0.841861
1630935183627,-0.012444,-0.40363699999999997,-0.833382
1630935183637,-0.005612,-0.419741,-0.850218
1630935183646,-0.012017,-0.415288,-0.892674
1630935183656,-0.021838,-0.403271,-0.951356
1630935183666,-0.018483,-0.40363699999999997,-1.002962
1630935183675,-0.007808,-0.405284,-1.041575
1630935183685,0.024949,-0.420412,-1.036573
1630935183694,-0.06039,-0.418277,-1.052189
1630935183704,-0.262239,-0.15853899999999999,-1.192062
1630935183714,-0.123037,-0.153842,-1.000705
1630935183723,-0.08295999999999999,-0.1525,-0.833565
1630935183733,-0.116022,-0.026168999999999998,-0.8148989999999999
1630935183742,-0.091927,-0.065636,-0.85705
1630935183752,-0.105713,-0.102236,-0.9207339999999999
1630935183762,-0.103212,-0.122488,-0.979538
1630935183771,-0.151036,-0.110349,-1.102209
1630935183781,-0.271877,-0.067283,-1.315221
1630935183790,-0.316529,-0.061488,-1.428498
1630935183800,-0.267912,-0.161589,-1.345294
1630935183810,-0.23851,-0.196054,-1.175348
1630935183819,-0.234118,-0.165127,-1.056703
1630935183829,-0.24631799999999998,-0.125843,-1.024739
1630935183838,-0.253272,-0.104432,-1.0420019999999999
1630935183848,-0.23430099999999998,-0.113643,-1.03944
1630935183858,-0.213927,-0.140544,-1.014674
1630935183867,-0.197274,-0.169031,-0.973011
1630935183877,-0.186904,-0.18812399999999999,-0.93025
1630935183886,-0.18226799999999999,-0.199409,-0.886879
1630935183896,-0.187209,-0.190137,-0.863699
1630935183906,-0.18971,-0.190625,-0.83875
1630935183915,-0.190747,-0.189588,-0.814411
1630935183925,-0.194529,-0.17330099999999998,-0.799527
1630935183934,-0.190381,-0.14865699999999998,-0.783728
1630935183944,-0.17446,-0.132309,-0.761768
1630935183954,-0.166042,-0.120963,-0.744688
1630935183963,-0.171227,-0.110349,-0.750422
1630935183973,-0.160247,-0.116815,-0.7579859999999999
1630935183982,-0.148779,-0.132126,-0.75884
1630935183992,-0.145363,-0.153171,-0.765062
1630935184002,-0.121268,-0.203679,-0.760975
1630935184011,-0.090707,-0.265045,-0.76128
1630935184021,-0.085156,-0.293227,-0.799222
1630935184030,-0.099308,-0.29395899999999997,-0.873703
1630935184040,-0.10083299999999999,-0.31171,-0.95099
1630935184050,-0.089365,-0.344955,-1.006256
1630935184059,-0.085522,-0.360998,-1.0248
1630935184069,-0.091256,-0.342698,-1.001071
1630935184078,-0.09638,-0.325557,-0.9727669999999999
1630935184088,-0.097173,-0.332267,-0.952576
1630935184098,-0.086681,-0.35800899999999997,-0.925736
1630935184107,-0.272304,-0.279136,-1.036878
1630935184117,-0.364902,0.0062829999999999995,-1.159427
1630935184126,-0.19367499999999999,-0.253516,-0.915793
1630935184136,-0.313052,-0.296216,-0.851926
1630935184146,-0.380457,-0.191723,-0.916159
1630935184155,-0.317932,-0.196969,-0.9338489999999999
1630935184165,-0.292373,-0.224907,-0.903288
1630935184174,-0.313906,-0.25742,-0.9058499999999999
1630935184184,-0.375821,-0.238205,-0.9931409999999999
1630935184194,-0.481656,-0.133651,-1.184132
1630935184203,-0.472567,-0.096136,-1.281366
1630935184213,-0.424377,-0.16469999999999999,-1.267824
1630935184222,-0.414373,-0.189893,-1.243912
1630935184232,-0.368379,-0.205631,-1.197674
1630935184242,-0.324825,-0.21594,-1.153998
1630935184251,-0.304268,-0.214476,-1.1285
1630935184261,-0.289994,-0.20008,-1.116361
1630935184270,-0.256261,-0.202032,-1.0775649999999999
1630935184280,-0.237473,-0.193431,-1.02785
1630935184290,-0.228018,-0.176168,-0.981856
1630935184299,-0.21831899999999999,-0.173667,-0.9234789999999999
1630935184309,-0.22082,-0.161894,-0.871568
1630935184318,-0.230885,-0.141764,-0.831247
1630935184328,-0.22942099999999999,-0.126758,-0.793488
1630935184338,-0.224968,-0.118889,-0.755302
1630935184347,-0.223138,-0.11468,-0.716689
1630935184357,-0.223199,-0.108824,-0.6925939999999999
1630935184366,-0.224846,-0.118523,-0.682346
1630935184376,-0.225639,-0.132492,-0.693021
1630935184386,-0.240767,-0.145302,-0.736758
1630935184395,-0.20618,-0.18666,-0.753838
1630935184405,-0.174704,-0.234362,-0.770064
1630935184414,-0.127185,-0.288103,-0.781227
1630935184424,-0.075823,-0.358375,-0.799527
1630935184434,-0.057828,-0.40394199999999997,-0.842776
1630935184443,-0.068259,-0.42309599999999997,-0.915793
1630935184453,-0.074603,-0.439932,-1.000949
1630935184462,-0.067954,-0.447496,-1.042734
1630935184472,-0.076738,-0.4209,-1.0365119999999999
1630935184482,-0.078934,-0.389424,-1.030046
1630935184491,-0.054960999999999996,-0.386374,-1.016931
1630935184501,-0.066734,-0.399123,-1.012905
1630935184510,-0.277367,-0.20996199999999998,-1.1895609999999999
1630935184520,-0.184525,-0.093452,-1.096109
1630935184530,-0.056242,-0.192028,-0.856379
1630935184539,-0.146278,-0.06466,-0.82411
1630935184549,-0.15982,-0.027755,-0.885537
1630935184558,-0.189161,-0.004758,-0.9897859999999999
1630935184568,-0.164273,-0.0032329999999999998,-1.02419
1630935184578,-0.133407,-0.065453,-1.045723
1630935184587,-0.22228399999999998,-0.043493,-1.1831559999999999
1630935184597,-0.283955,0.0053679999999999995,-1.329617
1630935184606,-0.244549,-0.043127,-1.325713
1630935184616,-0.224297,-0.078385,-1.224941
1630935184626,-0.195688,-0.086864,-1.1224
1630935184635,-0.188307,-0.08649799999999999,-1.074027
1630935184645,-0.18257299999999999,-0.090646,-1.063535
1630935184654,-0.158356,-0.125843,-1.0465769999999999
1630935184664,-0.142374,-0.146095,-1.028216
1630935184674,-0.12834399999999999,-0.168848,-1.002596
1630935184683,-0.110593,-0.205387,-0.95709
1630935184693,-0.105042,-0.226737,-0.915793
1630935184702,-0.111813,-0.224419,-0.882304
1630935184712,-0.124013,-0.201788,-0.8635769999999999
1630935184722,-0.135542,-0.18470799999999998,-0.846558
1630935184731,-0.149328,-0.169641,-0.8285629999999999
1630935184741,-0.150182,-0.169763,-0.7917799999999999
1630935184750,-0.150304,-0.174338,-0.745725
1630935184760,-0.158051,-0.16775,-0.72834
1630935184770,-0.16226,-0.146766,-0.75274
1630935184779,-0.142435,-0.137128,-0.795257
1630935184789,-0.117181,-0.15921,-0.821975
1630935184798,-0.08912099999999999,-0.190503,-0.843752
1630935184808,-0.052948,-0.228994,-0.851804
1630935184818,-0.026474,-0.268888,-0.8629669999999999
1630935184827,-0.028304,-0.280051,-0.895541
1630935184837,-0.038674,-0.282186,-0.940742
1630935184846,-0.035746,-0.299266,-0.982588
1630935184856,-0.02196,-0.32909499999999997,-1.010343
1630935184866,-0.006161,-0.347029,-1.015284
1630935184875,0.0071979999999999995,-0.357643,-0.998387
1630935184885,0.021838,-0.362706,-0.9715469999999999
1630935184894,0.0305,-0.369904,-0.941169
1630935184904,-0.17946199999999998,-0.31024599999999997,-1.033584
1630935184914,-0.38795999999999997,0.179279,-1.373415
1630935184923,-0.210145,-0.015433,-1.118618
1630935184933,-0.211914,-0.157685,-0.9176839999999999
1630935184942,-0.23485,-0.22197899999999998,-0.818864
1630935184952,-0.207888,-0.254919,-0.804712
1630935184962,-0.185257,-0.289018,-0.780007
1630935184971,-0.195078,-0.365573,-0.755485
1630935184981,-0.26169,-0.353861,-0.803431
1630935184990,-0.454572,-0.171105,-1.070611
1630935185000,-0.5453399999999999,0.03904,-1.34078
1630935185010,-0.45048499999999997,-0.022203999999999998,-1.331142
1630935185019,-0.398757,-0.11651,-1.219817
1630935185029,-0.39222999999999997,-0.113826,-1.153754
1630935185038,-0.346663,-0.149816,-1.084458
1630935185048,-0.359839,-0.147559,-1.065243
1630935185058,-0.36484099999999997,-0.135054,-1.075857
1630935185067,-0.34404,-0.14743699999999998,-1.058777
1630935185077,-0.324093,-0.158295,-1.022482
1630935185086,-0.299205,-0.153232,-0.965081
1630935185096,-0.280539,-0.131455,-0.907802
1630935185106,-0.286029,-0.09698999999999999,-0.865468
1630935185115,-0.282735,-0.069296,-0.825574
1630935185125,-0.271328,-0.061366,-0.7875099999999999
1630935185134,-0.251747,-0.05002,-0.7598159999999999
1630935185144,-0.235094,-0.043127,-0.735294
1630935185154,-0.23058,-0.02379,-0.722362
1630935185163,-0.226066,-0.0059169999999999995,-0.708515
1630935185173,-0.222467,-0.023485,-0.690276
1630935185182,-0.226432,-0.053924,-0.6938139999999999
1630935185192,-0.221308,-0.078995,-0.720532
1630935185202,-0.195871,-0.125538,-0.746518
1630935185211,-0.171288,-0.18531799999999998,-0.774761
1630935185221,-0.108763,-0.248392,-0.788974
1630935185230,-0.038246999999999996,-0.328912,-0.800991
1630935185240,0.0032329999999999998,-0.396012,-0.839055
1630935185250,0.030195,-0.468175,-0.901458
1630935185259,0.028791999999999998,-0.504287,-0.987529
1630935185269,0.023302,-0.504958,-1.054202
1630935185278,0.01281,-0.49202599999999996,-1.062376
1630935185288,0.005307,-0.465064,-1.04676
1630935185298,-0.08845,-0.433222,-1.083482
1630935185307,-0.130967,-0.28426,-1.125511
1630935185317,-0.105347,-0.352153,-0.999912
1630935185326,-0.128771,-0.216794,-0.92232
1630935185336,-0.141703,-0.154635,-0.91683
1630935185346,-0.137921,-0.105103,-0.957212
1630935185355,-0.133956,-0.127551,-1.005402
1630935185365,-0.12395199999999999,-0.151463,-1.053104
1630935185374,-0.153232,-0.151036,-1.137711
1630935185384,-0.214842,-0.068564,-1.279841
1630935185394,-0.226371,-0.035502,-1.343769
1630935185403,-0.214781,-0.061,-1.260443
1630935185413,-0.213134,-0.096502,-1.132282
1630935185422,-0.2135,-0.105408,-1.087203
1630935185432,-0.175558,-0.131089,-1.098976
1630935185442,-0.149328,-0.151341,-1.12423
1630935185451,-0.141032,-0.180316,-1.121607
1630935185461,-0.138836,-0.198555,-1.09922
1630935185470,-0.1281,-0.227408,-1.052372
1630935185480,-0.116815,-0.24601299999999998,-1.001559
1630935185490,-0.11669299999999999,-0.246745,-0.958432
1630935185499,-0.11956,-0.240584,-0.914512
1630935185509,-0.127673,-0.227774,-0.8787659999999999
1630935185518,-0.142618,-0.200934,-0.85888
1630935185528,-0.147315,-0.17385,-0.828441
1630935185538,-0.151402,-0.164639,-0.7893399999999999
1630935185547,-0.152805,-0.170068,-0.761402
1630935185557,-0.151646,-0.185501,-0.763964
1630935185566,-0.150182,-0.19178399999999998,-0.7911699999999999
1630935185576,-0.113094,-0.233264,-0.795806
1630935185586,-0.102236,-0.262117,-0.81191
1630935185595,-0.075945,-0.28468699999999997,-0.822646
1630935185605,-0.042517,-0.313906,-0.809348
1630935185614,-0.038674,-0.312991,-0.81313
1630935185624,-0.052094,-0.301828,-0.842654
1630935185634,-0.070089,-0.291519,-0.8857809999999999
1630935185643,-0.079971,-0.304695,-0.920002
1630935185653,-0.077165,-0.35197,-0.9375089999999999
1630935185662,-0.07002799999999999,-0.402478,-0.942877
1630935185672,-0.051179,-0.430904,-0.942206
1630935185682,-0.032085999999999996,-0.432307,-0.929335
1630935185691,-0.060146,-0.406748,-0.922808
1630935185701,-0.334707,-0.214476,-1.134966
1630935185710,-0.286395,0.059231,-1.195478
1630935185720,-0.141459,-0.252174,-0.9201239999999999
1630935185730,-0.231678,-0.25851799999999997,-0.857111
1630935185739,-0.294142,-0.216428,-0.958615
1630935185749,-0.23668,-0.2196,-0.997228
1630935185758,-0.189161,-0.28548,-0.931043
1630935185768,-0.165798,-0.356057,-0.83631
1630935185778,-0.243329,-0.351238,-0.86437
1630935185787,-0.37393,-0.150548,-1.063962
1630935185797,-0.322629,-0.096746,-1.13521
1630935185806,-0.276574,-0.174887,-1.085922
1630935185816,-0.301218,-0.155977,-1.092266
1630935185826,-0.270047,-0.14774199999999998,-1.103124
1630935185835,-0.23424,-0.161894,-1.094096
1630935185845,-0.236619,-0.175253,-1.083299
1630935185854,-0.240035,-0.17824199999999998,-1.076528
1630935185864,-0.224663,-0.183549,-1.040843
1630935185874,-0.21154799999999999,-0.175131,-0.996008
1630935185883,-0.196176,-0.15914899999999998,-0.957761
1630935185893,-0.19093,-0.142923,-0.934093
1630935185902,-0.188002,-0.114131,-0.917806
1630935185912,-0.175131,-0.110715,-0.886452
1630935185922,-0.168665,-0.115351,-0.85522
1630935185931,-0.155733,-0.12102399999999999,-0.828807
1630935185941,-0.13786,-0.126331,-0.80276
1630935185950,-0.131882,-0.139446,-0.776347
1630935185960,-0.158112,-0.140422,-0.775676
1630935185970,-0.16897,-0.13054,-0.7844599999999999
1630935185979,-0.155428,-0.17641199999999999,-0.780129
1630935185989,-0.148535,-0.18995399999999998,-0.796294
1630935185998,-0.10022299999999999,-0.246806,-0.808982
1630935186008,-0.069357,-0.318115,-0.818376
1630935186018,-0.06478199999999999,-0.376187,-0.867847
1630935186027,-0.058804,-0.427549,-0.935191
1630935186037,-0.045384,-0.463966,-1.009306
1630935186046,-0.02623,-0.476532,-1.045784
1630935186056,-0.02135,-0.470981,-1.038708
1630935186066,-0.022021,-0.44804499999999997,-1.00772
1630935186075,-0.01281,-0.43877299999999997,-0.989237
1630935186085,-0.102724,-0.396012,-1.053043
1630935186094,-0.216672,-0.182695,-1.1907809999999999
1630935186104,-0.050873999999999996,-0.225334,-1.001986
1630935186114,-0.074359,-0.208864,-0.881023
1630935186123,-0.169824,-0.07710399999999999,-0.92049
1630935186133,-0.181719,-0.071797,-1.013332
1630935186142,-0.202764,-0.044835,-1.0909849999999999
1630935186152,-0.161467,-0.08326499999999999,-1.108065
1630935186162,-0.183244,-0.097234,-1.149911
1630935186171,-0.301889,0.0032329999999999998,-1.28344
1630935186181,-0.317932,0.028182,-1.337059
1630935186190,-0.274622,-0.030317,-1.258125
1630935186200,-0.24759899999999999,-0.046238,-1.1865109999999999
1630935186210,-0.21337799999999998,-0.053253,-1.15839
1630935186219,-0.177144,-0.066856,-1.15351
1630935186229,-0.11962099999999999,-0.116327,-1.108004
1630935186238,-0.076311,-0.178303,-1.051518
1630935186248,-0.041236,-0.238815,-0.9900909999999999
1630935186258,-0.008967,-0.27816,-0.924272
1630935186267,0.018178,-0.288591,-0.85705
1630935186277,0.015616,-0.282979,-0.8091039999999999
1630935186286,-0.000122,-0.274073,-0.7765299999999999
1630935186296,-0.020496,-0.254858,-0.7604259999999999
1630935186306,-0.043493,-0.233325,-0.751337
1630935186315,-0.06405,-0.204533,-0.7409669999999999
1630935186325,-0.07076,-0.189405,-0.721752
1630935186334,-0.075945,-0.17580199999999999,-0.701073
1630935186344,-0.08912099999999999,-0.168421,-0.698877
1630935186354,-0.111447,-0.155672,-0.7296819999999999
1630935186363,-0.115107,-0.159881,-0.771345
1630935186373,-0.116632,-0.199958,-0.819657
1630935186382,-0.101809,-0.242292,-0.863455
1630935186392,-0.06709999999999999,-0.280661,-0.88694
1630935186402,-0.044469,-0.29829,-0.9018849999999999
1630935186411,-0.047824,-0.2806,-0.9307989999999999
1630935186421,-0.05429,-0.245159,-0.972889
1630935186430,-0.043005,-0.226432,-1.010343
1630935186440,-0.02379,-0.226798,-1.024068
1630935186450,-0.012993,-0.242109,-1.025776
1630935186459,0.005612,-0.271328,-1.017236
1630935186469,0.030439,-0.300425,-1.000034
1630935186478,-0.014518,-0.317566,-1.009062
1630935186488,-0.296277,-0.073505,-1.254404
1630935186498,-0.18849,0.030134,-1.186328
1630935186507,-0.134261,-0.188551,-0.987285
1630935186517,-0.2379,-0.223077,-0.88267
1630935186526,-0.272792,-0.205753,-0.903227
1630935186536,-0.238266,-0.21228,-0.887855
1630935186546,-0.182634,-0.30536599999999997,-0.797209
1630935186555,-0.172142,-0.398147,-0.733525
1630935186565,-0.27236499999999997,-0.401136,-0.817644
1630935186574,-0.41907,-0.236924,-1.06872
1630935186584,-0.404979,-0.150548,-1.249341
1630935186594,-0.336171,-0.196908,-1.249036
1630935186603,-0.31921299999999997,-0.211609,-1.19743
1630935186613,-0.291092,-0.207949,-1.118618
1630935186622,-0.258274,-0.20813199999999998,-1.04066
1630935186632,-0.240035,-0.200995,-0.981734
1630935186642,-0.218563,-0.18903899999999998,-0.951356
1630935186651,-0.18727,-0.17324,-0.9414129999999999
1630935186661,-0.157868,-0.15067,-0.9335439999999999
1630935186670,-0.132919,-0.145607,-0.905667
1630935186680,-0.121268,-0.153842,-0.86742
1630935186690,-0.113399,-0.150548,-0.8313079999999999
1630935186699,-0.110959,-0.138958,-0.79422
1630935186709,-0.11254499999999999,-0.139324,-0.76433
1630935186718,-0.109068,-0.15420799999999998,-0.7409669999999999
1630935186728,-0.111325,-0.171898,-0.733281
1630935186738,-0.118462,-0.191418,-0.741699
1630935186747,-0.143411,-0.213927,-0.772016
1630935186757,-0.175497,-0.22204,-0.8328329999999999
1630935186766,-0.159942,-0.257054,-0.867603
1630935186776,-0.137982,-0.310856,-0.869982
1630935186786,-0.113094,-0.339404,-0.866261
1630935186795,-0.070516,-0.384849,-0.854915
1630935186805,-0.042578,-0.41931399999999996,-0.8596119999999999
1630935186814,-0.039772,-0.428037,-0.883768
1630935186824,-0.041846,-0.42523099999999997,-0.914695
1630935186834,-0.038674,-0.416508,-0.935252
1630935186843,-0.042212,-0.40058699999999997,-0.954284
1630935186853,-0.047153,-0.373808,-0.99674
1630935186862,-0.032879,-0.389912,-1.053653
1630935186872,-0.045628,-0.443775,-1.131367
1630935186882,-0.219905,-0.376919,-1.27368
1630935186891,-0.196237,-0.272426,-1.225185
1630935186901,-0.076311,-0.357033,-0.991189
1630935186910,-0.120536,-0.25376,-0.8793759999999999
1630935186920,-0.133346,-0.191052,-0.866139
1630935186930,-0.119499,-0.188185,-0.937021
1630935186939,-0.092598,-0.19672499999999998,-1.001315
1630935186949,-0.059047999999999996,-0.249917,-1.056642
1630935186958,-0.129198,-0.246196,-1.205177
1630935186968,-0.184342,-0.228323,-1.370975
1630935186978,-0.150365,-0.281271,-1.401414
1630935186987,-0.104493,-0.350445,-1.295457
1630935186997,-0.078385,-0.34080699999999997,-1.173762
1630935187006,-0.074908,-0.30475599999999997,-1.117886
1630935187016,-0.073017,-0.288408,-1.104161
1630935187026,-0.066185,-0.298351,-1.082933
1630935187035,-0.063562,-0.316529,-1.044625
1630935187045,-0.048312,-0.339831,-0.993507
1630935187054,-0.040992,-0.364658,-0.929335
1630935187064,-0.047458,-0.369172,-0.868884
1630935187074,-0.05856,-0.364292,-0.819474
1630935187083,-0.070516,-0.35197,-0.781654
1630935187093,-0.08418,-0.33092499999999997,-0.763659
1630935187102,-0.10052799999999999,-0.30561,-0.75762
1630935187112,-0.11712,-0.287005,-0.757864
1630935187122,-0.127307,-0.277062,-0.740235
1630935187131,-0.140727,-0.266814,-0.723826
1630935187141,-0.149511,-0.26596,-0.713944
1630935187150,-0.151707,-0.265106,-0.712724
1630935187160,-0.156282,-0.250527,-0.736575
1630935187170,-0.143045,-0.238876,-0.7746999999999999
1630935187179,-0.128771,-0.266509,-0.811117
1630935187189,-0.11022699999999999,-0.282674,-0.854
1630935187198,-0.085461,-0.298412,-0.904081
1630935187208,-0.072956,-0.310795,-0.960872
1630935187218,-0.069601,-0.31768799999999997,-1.014857
1630935187227,-0.067283,-0.314943,-1.044198
1630935187237,-0.071614,-0.312381,-1.053043
1630935187246,-0.072468,-0.327265,-1.063901
1630935187256,-0.059962999999999995,-0.354532,-1.075247
1630935187266,-0.03843,-0.380335,-1.071099
1630935187275,-0.031232,-0.403149,-1.055422
1630935187285,-0.033916,-0.41382399999999997,-1.031205
1630935187294,-0.03599,-0.419131,-0.995459
1630935187304,-0.204167,-0.351116,-1.0906799999999999
1630935187314,-0.264008,-0.106201,-1.22244
1630935187323,-0.09759999999999999,-0.302804,-0.9663619999999999
1630935187333,-0.206119,-0.26065299999999997,-0.842898
1630935187342,-0.256322,-0.199714,-0.7856799999999999
1630935187352,-0.214659,-0.209535,-0.740784
1630935187362,-0.1769,-0.261141,-0.695644
1630935187371,-0.142313,-0.313723,-0.680516
1630935187381,-0.144448,-0.362096,-0.737551
1630935187390,-0.252662,-0.290787,-0.958249
1630935187400,-0.252662,-0.224968,-1.161623
1630935187410,-0.180255,-0.300913,-1.183583
1630935187419,-0.170983,-0.343003,-1.138077
1630935187429,-0.148474,-0.32878999999999997,-1.082689
1630935187438,-0.119255,-0.300852,-1.014735
1630935187448,-0.13480999999999999,-0.244244,-0.998814
1630935187458,-0.140605,-0.215879,-1.021628
1630935187467,-0.120109,-0.232044,-1.038159
1630935187477,-0.107665,-0.259921,-1.02968
1630935187486,-0.097844,-0.299266,-0.997533
1630935187496,-0.092476,-0.323483,-0.966179
1630935187506,-0.102663,-0.325618,-0.937448
1630935187515,-0.117913,-0.313906,-0.916159
1630935187525,-0.133041,-0.299083,-0.892247
1630935187534,-0.14518,-0.282918,-0.8638819999999999
1630935187544,-0.150792,-0.26657,-0.833626
1630935187554,-0.150914,-0.25729799999999997,-0.805017
1630935187563,-0.163724,-0.265289,-0.789828
1630935187573,-0.195627,-0.270718,-0.819901
1630935187582,-0.16469999999999999,-0.300425,-0.829051
1630935187592,-0.137921,-0.361608,-0.8239879999999999
1630935187602,-0.103883,-0.39405999999999997,-0.8106289999999999
1630935187611,-0.060451,-0.41961899999999996,-0.792817
1630935187621,-0.041174999999999996,-0.41724,-0.796172
1630935187630,-0.039589,-0.40638199999999997,-0.829905
1630935187640,-0.02623,-0.396683,-0.867359
1630935187650,-0.0006709999999999999,-0.384361,-0.887489
1630935187659,0.031476,-0.383324,-0.892613
1630935187669,0.068869,-0.403088,-0.874984
1630935187678,0.10174799999999999,-0.435357,-0.833504
1630935187688,0.119377,-0.46616199999999997,-0.791841
1630935187698,0.042334,-0.476715,-0.809653
1630935187707,-0.151524,-0.283589,-1.063718
1630935187717,0.078934,-0.29273899999999997,-0.894443
1630935187726,0.066124,-0.278404,-0.750483
1630935187736,0.033854999999999996,-0.177266,-0.651724
1630935187746,-0.012078,-0.156465,-0.6932039999999999
1630935187755,0.0035989999999999998,-0.127917,-0.831186
1630935187765,0.06466,-0.209535,-0.912682
1630935187774,0.08680299999999999,-0.30012,-0.9928359999999999
1630935187784,0.044896,-0.38173799999999997,-1.18279
1630935187794,0.093269,-0.445117,-1.342
1630935187803,0.140788,-0.508496,-1.331752
1630935187813,0.114619,-0.466833,-1.2422039999999999
1630935187822,0.07198,-0.396439,-1.172664
1630935187832,0.060207,-0.35258,-1.144604
1630935187842,0.062525,-0.34892,-1.153388
1630935187851,0.068625,-0.352092,-1.180289
1630935187861,0.08973099999999999,-0.371185,-1.192672
1630935187870,0.10699399999999999,-0.39711,-1.168943
1630935187880,0.107726,-0.414983,-1.119655
1630935187890,0.088267,-0.409554,-1.071831
1630935187899,0.07972699999999999,-0.400404,-1.039196
1630935187909,0.066429,-0.375394,-1.013698
1630935187918,0.038125,-0.343003,-1.010404
1630935187928,0.023302,-0.307745,-1.006256
1630935187938,0.028853,-0.281759,-0.975085
1630935187947,0.03843,-0.273768,-0.926468
1630935187957,0.053131,-0.286517,-0.88023
1630935187966,0.076677,-0.30439,-0.854915
1630935187976,0.105042,-0.3172,-0.836554
1630935187986,0.124745,-0.32086,-0.818254
1630935187995,0.131394,-0.33427999999999997,-0.818681
1630935188005,0.15359799999999998,-0.332572,-0.825025
1630935188014,0.186599,-0.328851,-0.8069689999999999
1630935188024,0.22386999999999999,-0.323788,-0.76067
1630935188034,0.240706,-0.319701,-0.712602
1630935188043,0.253089,-0.302316,-0.688141
1630935188053,0.265594,-0.272121,-0.685518
1630935188062,0.293105,-0.245647,-0.6880189999999999
1630935188072,0.318481,-0.24912399999999998,-0.671366
1630935188082,0.34721199999999997,-0.23247099999999998,-0.633363
1630935188091,0.380945,-0.218136,-0.626775
1630935188101,0.40058699999999997,-0.210206,-0.562115
1630935188110,0.39283999999999997,-0.25315,-0.51972
1630935188120,0.368318,-0.328302,-0.486963
1630935188130,0.244915,-0.396744,-0.506971
1630935188139,-0.002989,-0.309819,-0.763293
1630935188149,0.166652,-0.302987,-0.804773
1630935188158,0.207095,-0.422669,-0.786229
1630935188168,0.187209,-0.452132,-0.752862
1630935188178,0.19458999999999999,-0.457134,-0.803431
1630935188187,0.19276,-0.453474,-0.8805959999999999
1630935188197,0.23338599999999998,-0.501054,-0.892247
1630935188206,0.241499,-0.548451,-0.901153
1630935188216,0.14774199999999998,-0.5182559999999999,-1.0900699999999999
1630935188226,0.084546,-0.360022,-1.3224799999999999
1630935188235,0.147376,-0.306342,-1.444663
1630935188245,0.188307,-0.312686,-1.47742
1630935188254,0.218258,-0.322019,-1.446249
1630935188264,0.25376,-0.323056,-1.373781
1630935188274,0.255895,-0.327692,-1.287893
1630935188283,0.24820899999999999,-0.343491,-1.1892559999999999
1630935188293,0.24631799999999998,-0.356057,-1.101111
1630935188302,0.236436,-0.370819,-1.036878
1630935188312,0.224602,-0.367464,-0.989054
1630935188322,0.209413,-0.341051,-0.953796
1630935188331,0.195932,-0.325252,-0.927993
1630935188341,0.192028,-0.331779,-0.904264
1630935188350,0.208315,-0.331169,-0.885293
1630935188360,0.219112,-0.330437,-0.873093
1630935188370,0.244366,-0.312381,-0.879498
1630935188379,0.264191,-0.30872099999999997,-0.891698
1630935188389,0.283528,-0.291763,-0.916525
1630935188398,0.386801,-0.272731,-0.86925
1630935188408,0.458354,-0.252784,-0.807701
1630935188418,0.530456,-0.237656,-0.749568
1630935188427,0.592432,-0.264862,-0.692472
1630935188437,0.629215,-0.304695,-0.653676
1630935188446,0.658373,-0.348188,-0.647454
1630935188456,0.697047,-0.36722,-0.658861
1630935188466,0.723033,-0.361059,-0.667157
1630935188475,0.729255,-0.342271,-0.6609349999999999
1630935188485,0.7160179999999999,-0.34709,-0.629032
1630935188494,0.677588,-0.380091,-0.5915779999999999
1630935188504,0.584075,-0.420534,-0.574864
1630935188514,0.177815,-0.407724,-0.790316
1630935188523,0.220942,-0.288164,-1.009306
1630935188533,0.301218,-0.292251,-0.9064599999999999
1630935188542,0.226493,-0.183732,-0.878949
1630935188552,0.22386999999999999,-0.162504,-0.835822
1630935188562,0.208315,-0.181719,-0.867847
1630935188571,0.274988,-0.160125,-0.9043249999999999
1630935188581,0.309575,-0.153415,-0.891942
1630935188590,0.22783499999999998,-0.177815,-0.993019
1630935188600,0.200629,-0.26095799999999997,-1.172847
1630935188610,0.268034,-0.350201,-1.269654
1630935188619,0.247416,-0.37563799999999997,-1.28161
1630935188629,0.241804,-0.34172199999999997,-1.220305
1630935188638,0.205509,-0.301889,-1.154852
1630935188648,0.146156,-0.27572,-1.129781
1630935188658,0.118218,-0.269742,-1.1323429999999999
1630935188667,0.117242,-0.25912799999999997,-1.1356979999999999
1630935188677,0.122366,-0.248941,-1.134905
1630935188686,0.121512,-0.240889,-1.1271579999999999
1630935188696,0.125538,-0.23186099999999998,-1.098183
1630935188706,0.124318,-0.22752999999999998,-1.05286
1630935188715,0.12163399999999999,-0.21594,-0.996679
1630935188725,0.110898,-0.198982,-0.9502579999999999
1630935188734,0.104432,-0.174948,-0.912499
1630935188744,0.092903,-0.149816,-0.86376
1630935188754,0.079605,-0.14091,-0.803492
1630935188763,0.06447699999999999,-0.14835199999999998,-0.749446
1630935188773,0.066612,-0.160613,-0.716994
1630935188782,0.080276,-0.162931,-0.705404
1630935188792,0.12017,-0.159393,-0.70089
1630935188802,0.152439,-0.17299599999999998,-0.711687
1630935188811,0.212646,-0.174521,-0.722972
1630935188821,0.255224,-0.167933,-0.744322
1630935188830,0.27297499999999997,-0.165859,-0.761463
1630935188840,0.28487,-0.180926,-0.767563
1630935188850,0.283284,-0.207766,-0.770003
1630935188859,0.285663,-0.23033599999999999,-0.7990389999999999
1630935188869,0.307257,-0.231068,-0.825391
1630935188878,0.327143,-0.236436,-0.816302
1630935188888,0.32787499999999997,-0.246806,-0.79544
1630935188898,0.235948,-0.246257,-0.820999
1630935188907,0.11577799999999999,-0.17629,-0.9526979999999999
1630935188917,0.22386999999999999,-0.249673,-0.928176
1630935188926,0.21289,-0.338977,-0.896212
1630935188936,0.161406,-0.327692,-0.912682
1630935188946,0.17885199999999998,-0.306647,-0.919941
1630935188955,0.183427,-0.300303,-0.8957849999999999
1630935188965,0.164578,-0.319091,-0.875045
1630935188974,0.12023099999999999,-0.356972,-0.883768
1630935188984,0.027632999999999998,-0.34221,-0.9964959999999999
1630935188994,-0.011833999999999999,-0.296582,-1.145641
1630935189003,0.023302,-0.308477,-1.203774
1630935189013,0.030744,-0.327692,-1.216096
1630935189022,0.029951,-0.307074,-1.217987
1630935189032,0.054168,-0.296277,-1.177849
1630935189042,0.065148,-0.290604,-1.12911
1630935189051,0.065026,-0.285114,-1.086532
1630935189061,0.07417599999999999,-0.292861,-1.044198
1630935189070,0.08784,-0.3111,-1.015528
1630935189080,0.089914,-0.329278,-0.99186
1630935189090,0.085034,-0.35251899999999997,-0.956602
1630935189099,0.07972699999999999,-0.368562,-0.955199
1630935189109,0.090585,-0.374296,-0.959347
1630935189118,0.092598,-0.374113,-0.9533079999999999
1630935189128,0.097966,-0.373869,-0.935435
1630935189138,0.107482,-0.37332,-0.914756
1630935189147,0.10467599999999999,-0.361974,-0.872605
1630935189157,0.095404,-0.346358,-0.845704
1630935189166,0.10467599999999999,-0.333487,-0.840397
1630935189176,0.15359799999999998,-0.35465399999999997,-0.831857
1630935189186,0.197884,-0.37807799999999997,-0.841129
1630935189195,0.255163,-0.404064,-0.852658
1630935189205,0.305427,-0.43816299999999997,-0.868518
1630935189214,0.35075,-0.465796,-0.866139
1630935189224,0.376736,-0.47726399999999997,-0.844728
1630935189234,0.390522,-0.458537,-0.823012
1630935189243,0.413885,-0.426329,-0.772077
1630935189253,0.43041599999999997,-0.410896,-0.695583
1630935189262,0.419497,-0.424255,-0.63867
1630935189272,0.414312,-0.42334,-0.614331
1630935189282,0.402966,-0.42944,-0.613233
1630935189291,0.222589,-0.42944,-0.728523
1630935189301,-0.022631,-0.265472,-1.10105
1630935189310,0.156221,-0.237534,-1.085617
1630935189320,0.136518,-0.276269,-0.900604
1630935189330,0.074725,-0.189588,-0.841739
1630935189339,0.080581,-0.213622,-0.790011
1630935189349,0.109739,-0.228018,-0.883829
1630935189358,0.228323,-0.302316,-0.889258
1630935189368,0.244976,-0.397598,-0.9797819999999999
1630935189378,0.159088,-0.44682499999999997,-1.271179
1630935189387,0.20862,-0.511424,-1.512068
1630935189397,0.243756,-0.586271,-1.49145
1630935189406,0.199592,-0.548512,-1.337974
1630935189416,0.146278,-0.47390899999999997,-1.170285
1630935189426,0.080215,-0.423462,-1.0909849999999999
1630935189435,0.053191999999999996,-0.414007,-1.0949499999999999
1630935189445,0.048494999999999996,-0.416386,-1.11569
1630935189454,0.039528,-0.405711,-1.110688
1630935189464,0.024766,-0.375211,-1.081103
1630935189474,0.00042699999999999997,-0.336293,-1.036939
1630935189483,-0.024766,-0.294508,-0.973133
1630935189493,-0.059047999999999996,-0.263886,-0.92293
1630935189502,-0.090158,-0.24583,-0.885964
1630935189512,-0.112484,-0.238998,-0.846375
1630935189522,-0.12071899999999999,-0.240218,-0.792329
1630935189531,-0.112057,-0.236009,-0.729804
1630935189541,-0.09759999999999999,-0.23399599999999998,-0.676246
1630935189550,-0.070272,-0.220698,-0.658312
1630935189560,-0.021471999999999998,-0.24583,-0.652761
1630935189570,0.010797,-0.297253,-0.6771
1630935189579,0.059414,-0.382104,-0.705221
1630935189589,0.07869,-0.45566999999999996,-0.755973
1630935189598,0.075396,-0.468541,-0.7993439999999999
1630935189608,0.063074,-0.450241,-0.8285629999999999
1630935189618,0.060878,-0.44347,-0.826672
1630935189627,0.063013,-0.450668,-0.786046
1630935189637,0.059414,-0.449204,-0.736636
1630935189646,0.064294,-0.45139999999999997,-0.690276
1630935189656,0.060451,-0.452193,-0.6685599999999999
1630935189666,0.065331,-0.450058,-0.671854
1630935189675,0.067832,-0.457012,-0.698389
1630935189685,-0.09881999999999999,-0.395768,-0.843203
1630935189694,-0.148169,-0.235765,-1.016199
1630935189704,-0.047458,-0.32878999999999997,-0.932995
1630935189714,-0.076128,-0.371612,-0.8599169999999999
1630935189723,-0.156282,-0.333487,-0.889624
1630935189733,-0.109129,-0.37594299999999997,-0.866505
1630935189742,-0.091683,-0.446337,-0.872178
1630935189752,-0.119377,-0.47360399999999997,-0.953064
1630935189762,-0.14091,-0.537532,-1.056398
1630935189771,-0.223443,-0.533872,-1.220183
1630935189781,-0.26047,-0.514779,-1.357616
1630935189790,-0.220027,-0.572973,-1.38287
1630935189800,-0.206424,-0.586942,-1.351638
1630935189810,-0.216306,-0.498736,-1.298568
1630935189819,-0.221308,-0.418826,-1.244278
1630935189829,-0.23094599999999998,-0.357826,-1.217438
1630935189838,-0.21215799999999999,-0.333609,-1.183949
1630935189848,-0.180987,-0.32086,-1.146068
1630935189858,-0.155184,-0.298168,-1.099586
1630935189867,-0.124074,-0.303353,-1.0343769999999999
1630935189877,-0.10022299999999999,-0.33427999999999997,-0.9694119999999999
1630935189886,-0.089182,-0.318481,-0.910669
1630935189896,-0.079666,-0.288713,-0.861869
1630935189906,-0.075823,-0.263154,-0.82838
1630935189915,-0.071065,-0.241194,-0.8091039999999999
1630935189925,-0.069052,-0.212646,-0.777079
1630935189934,-0.07869,-0.164578,-0.753167
1630935189944,-0.039589,-0.157868,-0.6922889999999999
1630935189954,-0.02562,-0.169092,-0.655079
1630935189963,0.009455,-0.220027,-0.623908
1630935189973,0.054839,-0.293776,-0.598776
1630935189982,0.08033699999999999,-0.358497,-0.6134769999999999
1630935189992,0.093879,-0.398208,-0.645807
1630935190002,0.100406,-0.427122,-0.67649
1630935190011,0.109983,-0.422425,-0.701988
1630935190021,0.129808,-0.414495,-0.706136
1630935190030,0.149084,-0.433954,-0.696498
1630935190040,0.149145,-0.44804499999999997,-0.693265
1630935190050,0.145363,-0.449448,-0.686128
1630935190059,0.120658,-0.459818,-0.6828339999999999
1630935190069,-0.148901,-0.362035,-0.863699
1630935190078,-0.328607,0.025315,-1.206153
1630935190088,-0.158783,-0.10858,-0.9961909999999999
1630935190098,-0.196359,-0.043981,-0.938058
1630935190107,-0.187758,-0.011895,-0.868823
1630935190117,-0.172569,-0.095404,-0.870592
1630935190126,-0.191845,-0.109678,-0.919453
1630935190136,-0.158478,-0.184647,-0.931653
1630935190146,-0.253943,-0.214781,-1.055666
1630935190155,-0.388021,-0.164151,-1.326506
1630935190165,-0.385642,-0.176595,-1.468026
1630935190174,-0.352702,-0.25986,-1.441247
1630935190184,-0.330437,-0.283589,-1.3604829999999999
1630935190194,-0.330254,-0.246074,-1.301008
1630935190203,-0.331352,-0.188246,-1.27307
1630935190213,-0.31055099999999997,-0.166652,-1.255868
1630935190222,-0.288042,-0.187453,-1.240008
1630935190232,-0.271816,-0.20435,-1.234091
1630935190242,-0.250222,-0.215757,-1.2078
1630935190251,-0.224968,-0.222772,-1.151924
1630935190261,-0.20557,-0.222772,-1.0900699999999999
1630935190270,-0.183,-0.228384,-1.021689
1630935190280,-0.16652999999999998,-0.237473,-0.963495
1630935190290,-0.154391,-0.255285,-0.910547
1630935190299,-0.151951,-0.263093,-0.871934
1630935190309,-0.142008,-0.269986,-0.832101
1630935190318,-0.10858,-0.301706,-0.7826299999999999
1630935190328,-0.0732,-0.33916,-0.731329
1630935190338,-0.029158,-0.365329,-0.673867
1630935190347,0.010065,-0.37990799999999997,-0.622566
1630935190357,0.041846,-0.39936699999999997,-0.582306
1630935190366,0.060146,-0.41992399999999996,-0.563091
1630935190376,0.069723,-0.438407,-0.561688
1630935190386,0.07155299999999999,-0.456524,-0.57401
1630935190395,0.062525,-0.474763,-0.595604
1630935190405,0.06831999999999999,-0.489342,-0.6165269999999999
1630935190414,0.103395,-0.518195,-0.609024
1630935190424,0.089914,-0.535031,-0.5851729999999999
1630935190434,0.028548,-0.485987,-0.6082919999999999
1630935190443,-0.020557,-0.411628,-0.632082
1630935190453,-0.094428,-0.305854,-0.6609349999999999
1630935190462,-0.204045,-0.176351,-0.721264
1630935190472,-0.327082,-0.059352999999999996,-0.8316129999999999
1630935190482,-0.34172199999999997,0.008784,-0.8790709999999999
1630935190491,-0.261141,-0.128161,-0.813008
1630935190501,-0.249246,-0.210633,-0.8313079999999999
1630935190510,-0.261812,-0.226493,-0.919087
1630935190520,-0.25912799999999997,-0.263825,-0.990762
1630935190530,-0.259494,-0.334463,-1.02114
1630935190539,-0.32208,-0.337757,-1.123071
1630935190549,-0.361059,-0.319762,-1.263981
1630935190558,-0.36966,-0.332694,-1.369816
1630935190568,-0.359351,-0.384178,-1.444114
1630935190578,-0.348676,-0.421327,-1.4752239999999999
1630935190587,-0.363804,-0.399184,-1.447042
1630935190597,-0.398696,-0.362035,-1.40117
1630935190606,-0.395707,-0.34599199999999997,-1.361215
1630935190616,-0.362889,-0.321775,-1.300337
1630935190626,-0.31982299999999997,-0.302499,-1.241106
1630935190635,-0.27083999999999997,-0.297985,-1.188097
1630935190645,-0.23058,-0.296216,-1.135881
1630935190654,-0.19489499999999998,-0.290787,-1.073966
1630935190664,-0.15372,-0.293166,-0.9961909999999999
1630935190674,-0.12395199999999999,-0.302987,-0.92598
1630935190683,-0.106567,-0.302011,-0.87718
1630935190693,-0.082533,-0.290665,-0.839177
1630935190702,-0.010492,-0.327936,-0.767075
1630935190712,0.039101,-0.3599,-0.698755
1630935190722,0.098027,-0.390461,-0.620736
1630935190731,0.112179,-0.430782,-0.574132
1630935190741,0.10437099999999999,-0.475312,-0.5879179999999999
1630935190750,0.094855,-0.525637,-0.638548
1630935190760,0.103395,-0.554795,-0.683322
1630935190770,0.126514,-0.5666289999999999,-0.703574
1630935190779,0.136396,-0.5614439999999999,-0.693936
1630935190789,0.144692,-0.549,-0.651175
1630935190798,0.145546,-0.538569,-0.593347
1630935190808,0.093635,-0.506361,-0.5651039999999999
1630935190818,-0.16591999999999998,-0.348554,-0.728401
1630935190827,-0.240035,-0.052948,-0.878034
1630935190837,-0.11376499999999999,-0.19337,-0.6652049999999999
1630935190846,-0.183244,-0.121268,-0.668438
1630935190856,-0.17385,-0.168604,-0.703574
1630935190866,-0.130662,-0.252174,-0.823195
1630935190875,-0.089243,-0.279136,-0.9256139999999999
1630935190885,-0.05917,-0.31537,-0.996435
1630935190894,-0.14091,-0.29365399999999997,-1.17791
1630935190904,-0.253699,-0.219905,-1.442284
1630935190914,-0.269071,-0.227774,-1.575386
1630935190923,-0.262178,-0.29761899999999997,-1.549827
1630935190933,-0.252723,-0.316956,-1.4180059999999999
1630935190942,-0.258762,-0.276452,-1.289113
1630935190952,-0.298351,-0.210328,-1.239886
1630935190962,-0.306464,-0.181048,-1.2284789999999999
1630935190971,-0.288896,-0.177998,-1.207068
1630935190981,-0.27755,-0.180987,-1.167723
1630935190990,-0.267973,-0.181475,-1.106174
1630935191000,-0.256444,-0.173362,-1.0413919999999999
1630935191010,-0.246684,-0.157136,-0.980026
1630935191019,-0.23973,-0.142923,-0.934947
1630935191029,-0.22783499999999998,-0.141093,-0.8970049999999999
1630935191038,-0.206546,-0.157563,-0.857599
1630935191048,-0.185684,-0.1708,-0.8113
1630935191058,-0.17385,-0.164456,-0.770064
1630935191067,-0.167689,-0.150731,-0.755668
1630935191077,-0.150243,-0.158661,-0.748531
1630935191086,-0.10992199999999999,-0.202032,-0.724253
1630935191096,-0.055083,-0.28731,-0.691801
1630935191106,-0.015982,-0.36295,-0.675697
1630935191115,0.008113,-0.41748399999999997,-0.68381
1630935191125,0.015677,-0.435052,-0.706624
1630935191134,0.016287,-0.422608,-0.729316
1630935191144,0.02257,-0.403881,-0.748897
1630935191154,0.03965,-0.41107899999999997,-0.748104
1630935191163,0.064355,-0.433161,-0.7284619999999999
1630935191173,0.092964,-0.476593,-0.692106
1630935191182,0.116876,-0.533018,-0.653249
1630935191192,0.077348,-0.551074,-0.656726
1630935191202,-0.192943,-0.32269,-0.8939549999999999
1630935191211,-0.218075,-0.108397,-1.009916
1630935191221,-0.175009,-0.229177,-0.904447
1630935191230,-0.23912,-0.267607,-0.83814
1630935191240,-0.26657,-0.327265,-0.840092
1630935191250,-0.274622,-0.35746,-0.886574
1630935191259,-0.310368,-0.333853,-0.934093
1630935191269,-0.341844,-0.344589,-0.956724
1630935191278,-0.437004,-0.32256799999999997,-1.056154
1630935191288,-0.534482,-0.21899,-1.223843
1630935191298,-0.514108,-0.18544,-1.314306
1630935191307,-0.482083,-0.22143,-1.3163799999999999
1630935191317,-0.466345,-0.241987,-1.314611
1630935191326,-0.43127,-0.261385,-1.3194299999999999
1630935191336,-0.40516199999999997,-0.262605,-1.334863
1630935191346,-0.388936,-0.247538,-1.357128
1630935191355,-0.356057,-0.23985199999999998,-1.357372
1630935191365,-0.318969,-0.236436,-1.317356
1630935191374,-0.283894,-0.222589,-1.249463
1630935191384,-0.246501,-0.209413,-1.168943
1630935191394,-0.214659,-0.191052,-1.094218
1630935191403,-0.189832,-0.174948,-1.029375
1630935191413,-0.163663,-0.171898,-0.96929
1630935191422,-0.13480999999999999,-0.177144,-0.915854
1630935191432,-0.109983,-0.17751,-0.87169
1630935191442,-0.090402,-0.179035,-0.8374079999999999
1630935191451,-0.079361,-0.174033,-0.813435
1630935191461,-0.013115,-0.208925,-0.73444
1630935191470,0.015006,-0.242109,-0.6697799999999999
1630935191480,0.053741,-0.287737,-0.62586
1630935191490,0.099186,-0.363804,-0.599813
1630935191499,0.112484,-0.42212,-0.607377
1630935191509,0.121756,-0.452376,-0.6387309999999999
1630935191518,0.124989,-0.451522,-0.669902
1630935191528,0.140544,-0.45475499999999996,-0.675575
1630935191538,0.164883,-0.482693,-0.639768
1630935191547,0.175985,-0.501298,-0.5897479999999999
1630935191557,0.157563,-0.48092399999999996,-0.559492
1630935191566,-0.07015,-0.354837,-0.697779
1630935191576,-0.270108,-0.015189,-0.954101
1630935191586,-0.15268299999999999,-0.064965,-0.872178
1630935191595,-0.173484,-0.084668,-0.804285
1630935191605,-0.194346,-0.058804,-0.828929
1630935191614,-0.171044,-0.136579,-0.901946
1630935191624,-0.192943,-0.10498099999999999,-1.021506
1630935191634,-0.184769,-0.083448,-1.101233
1630935191643,-0.231007,-0.07448099999999999,-1.235067
1630935191653,-0.336415,-0.035746,-1.450092
1630935191662,-0.342881,-0.031903,-1.547875
1630935191672,-0.284626,-0.125599,-1.467782
1630935191682,-0.26291,-0.15390299999999998,-1.36091
1630935191691,-0.231068,-0.18470799999999998,-1.28649
1630935191701,-0.216428,-0.21045,-1.249646
1630935191710,-0.217221,-0.225212,-1.226771
1630935191720,-0.21045,-0.220332,-1.192184
1630935191730,-0.201422,-0.203069,-1.1347829999999999
1630935191739,-0.201788,-0.17812,-1.0763449999999999
1630935191749,-0.21411,-0.149328,-1.035353
1630935191758,-0.220698,-0.126575,-0.996862
1630935191768,-0.217831,-0.121573,-0.958676
1630935191778,-0.2074,-0.130418,-0.917867
1630935191787,-0.193248,-0.14097099999999999,-0.880474
1630935191797,-0.177998,-0.158722,-0.83509
1630935191806,-0.161467,-0.195078,-0.782996
1630935191816,-0.160613,-0.227896,-0.744322
1630935191826,-0.134993,-0.268522,-0.70455
1630935191835,-0.112057,-0.30134,-0.696193
