timestamp,ax,ay,az
1629376437011,-0.0765380859375,-0.000732421875,0.9976806640625
1629376437011,-0.08172607421875,0.00048828125,0.9976806640625
1629376437012,-0.07818603515625,-0.00286865234375,0.99664306640625
1629376437083,-0.082275390625,-0.00201416015625,0.99664306640625
1629376437083,-0.0811767578125,-0.0037841796875,0.99627685546875
1629376437083,-0.07879638671875,-0.00048828125,0.9981689453125
1629376437119,-0.0750732421875,-0.00238037109375,0.999267578125
1629376437120,-0.0802001953125,-0.00103759765625,0.9993896484375
1629376437120,-0.07867431640625,-0.0030517578125,0.996337890625
1629376437148,-0.0770263671875,-0.00384521484375,0.99591064453125
1629376437149,-0.08123779296875,-0.00390625,0.99688720703125
1629376437150,-0.07940673828125,-0.00555419921875,0.99371337890625
1629376437322,-0.07794189453125,-0.00189208984375,0.99847412109375
1629376437324,-0.081298828125,-0.0025634765625,0.99627685546875
1629376437326,-0.0782470703125,-0.00164794921875,0.99053955078125
1629376437343,-0.07806396484375,-0.00152587890625,0.99267578125
1629376437401,-0.07830810546875,0.00054931640625,0.999755859375
1629376437402,-0.07611083984375,0.0008544921875,0.99835205078125
1629376437402,-0.07733154296875,0.0047607421875,0.99725341796875
1629376437449,-0.07958984375,0.00433349609375,0.9949951171875
1629376437450,-0.07598876953125,0.00067138671875,0.99725341796875
1629376437450,-0.0816650390625,0.00390625,0.997314453125
1629376437482,-0.076416015625,-0.0023193359375,0.99456787109375
1629376437483,-0.0758056640625,-0.00469970703125,0.9947509765625
1629376437483,-0.0775146484375,-0.000244140625,0.99578857421875
1629376437537,-0.07684326171875,-0.00677490234375,0.9964599609375
1629376437539,-0.07696533203125,-0.00494384765625,0.99658203125
1629376437540,-0.07684326171875,-0.00372314453125,0.99676513671875
1629376437591,-0.07684326171875,-0.0042724609375,0.99798583984375
1629376437593,-0.07733154296875,-0.0054931640625,1.0003662109375
1629376437594,-0.0771484375,-0.00433349609375,0.997314453125
1629376437671,-0.07183837890625,-0.0018310546875,1.00018310546875
1629376437672,-0.07171630859375,-0.003173828125,0.998779296875
1629376437672,-0.0704345703125,-0.0079345703125,1.00238037109375
1629376437734,-0.0736083984375,-0.00506591796875,1.002197265625
1629376437735,-0.06768798828125,-0.0064697265625,0.999267578125
1629376437736,-0.07574462890625,6.103515625e-05,1.00189208984375
1629376437799,-0.0765380859375,0.00177001953125,1.002197265625
1629376437800,-0.07830810546875,0.001220703125,0.99676513671875
1629376437800,-0.07904052734375,0.0008544921875,0.99188232421875
1629376437811,-0.079345703125,-0.00103759765625,0.99493408203125
1629376437811,-0.07818603515625,-0.00128173828125,0.98968505859375
1629376437811,-0.078125,0.0029296875,0.99456787109375
1629376437969,-0.0782470703125,-0.0001220703125,0.99945068359375
1629376437970,-0.07379150390625,-0.00225830078125,0.9991455078125
1629376437972,-0.07623291015625,-0.0006103515625,1.00018310546875
1629376438025,-0.07403564453125,-0.00115966796875,0.9951171875
1629376438026,-0.0787353515625,-0.0023193359375,0.99896240234375
1629376438027,-0.07708740234375,-0.00164794921875,0.9957275390625
1629376438072,-0.0826416015625,-0.0018310546875,0.9937744140625
1629376438072,-0.07794189453125,0.00067138671875,0.99749755859375
1629376438073,-0.077880859375,0.000732421875,0.99822998046875
1629376438098,-0.0802001953125,0.0008544921875,1.00030517578125
1629376438099,-0.08154296875,-0.0003662109375,0.9962158203125
1629376438099,-0.08282470703125,-0.000732421875,0.9927978515625
1629376438111,-0.0838623046875,-0.0013427734375,0.993408203125
1629376438111,-0.08367919921875,-0.00091552734375,0.9967041015625
1629376438112,-0.08251953125,0.00262451171875,0.9971923828125
1629376438185,-0.080322265625,0.001708984375,0.99371337890625
1629376438185,-0.08551025390625,0.00262451171875,0.99365234375
1629376438186,-0.08099365234375,0.0008544921875,0.9954833984375
1629376438228,-0.0814208984375,-0.00323486328125,0.996337890625
1629376438228,-0.08514404296875,0.00213623046875,0.998046875
1629376438229,-0.081298828125,-0.00079345703125,0.99530029296875
1629376438272,-0.079833984375,-0.000244140625,0.99432373046875
1629376438273,-0.08050537109375,-0.0035400390625,0.99566650390625
1629376438273,-0.07763671875,-0.00286865234375,0.9947509765625
1629376438356,-0.077392578125,-0.0009765625,0.9942626953125
1629376438356,-0.07513427734375,-0.00140380859375,0.99566650390625
1629376438357,-0.07745361328125,-0.0001220703125,0.99822998046875
1629376438423,-0.07135009765625,-0.00408935546875,0.99908447265625
1629376438424,-0.075927734375,-0.00030517578125,0.998779296875
1629376438424,-0.072509765625,6.103515625e-05,0.9976806640625
1629376438535,-0.07061767578125,0.0013427734375,1.00042724609375
1629376438536,-0.07354736328125,-0.000732421875,0.99755859375
1629376438536,-0.07379150390625,0.00103759765625,0.99951171875
1629376438548,-0.07421875,-0.0018310546875,1.00201416015625
1629376438549,-0.0712890625,-0.00396728515625,1.002197265625
1629376438549,-0.06951904296875,0.00048828125,1.0001220703125
1629376438578,-0.0789794921875,-0.00189208984375,0.9991455078125
1629376438578,-0.08135986328125,0.00091552734375,0.9959716796875
1629376438578,-0.076416015625,-0.00360107421875,0.99481201171875
1629376438708,-0.082275390625,-0.00421142578125,0.990234375
1629376438708,-0.0828857421875,-0.00299072265625,0.99407958984375
1629376438711,-0.083740234375,-0.00616455078125,0.990234375
1629376438738,-0.08380126953125,-0.00164794921875,0.99505615234375
1629376438739,-0.07794189453125,0.00079345703125,0.99749755859375
1629376438739,-0.0794677734375,-0.00042724609375,1.00042724609375
1629376438766,-0.07635498046875,0.000732421875,0.996337890625
1629376438766,-0.0736083984375,0.00164794921875,0.99639892578125
1629376438767,-0.08099365234375,0.00250244140625,0.9996337890625
1629376438809,-0.07989501953125,-0.00714111328125,0.99884033203125
1629376438809,-0.080078125,-0.00372314453125,0.9989013671875
1629376438865,-0.08062744140625,-0.00091552734375,0.99322509765625
1629376438865,-0.08270263671875,-0.001708984375,0.9942626953125
1629376438866,-0.079345703125,0.0013427734375,0.99517822265625
1629376438932,-0.08172607421875,0.0025634765625,0.9990234375
1629376438933,-0.07879638671875,-0.00177001953125,0.99169921875
1629376438933,-0.08319091796875,0.001220703125,0.99627685546875
1629376439075,-0.08099365234375,0.00128173828125,0.99786376953125
1629376439075,-0.08203125,0.00067138671875,0.993408203125
1629376439076,-0.08074951171875,-0.00030517578125,0.996337890625
1629376439096,-0.0751953125,6.103515625e-05,0.99981689453125
1629376439097,-0.07666015625,-0.0062255859375,0.99676513671875
1629376439097,-0.076904296875,-0.00335693359375,1.00018310546875
1629376439131,-0.07763671875,-0.00555419921875,0.99505615234375
1629376439131,-0.07757568359375,-0.0064697265625,0.99517822265625
1629376439131,-0.07757568359375,-0.00775146484375,0.99560546875
1629376439179,-0.0770263671875,-0.0084228515625,0.99481201171875
1629376439180,-0.0814208984375,-0.00750732421875,0.9976806640625
1629376439180,-0.07952880859375,-0.0059814453125,0.99530029296875
1629376439224,-0.07952880859375,-0.0050048828125,0.995849609375
1629376439225,-0.07666015625,-0.00390625,0.9991455078125
1629376439225,-0.07611083984375,-0.00421142578125,0.998046875
1629376439283,-0.0762939453125,-0.0045166015625,0.997802734375
1629376439285,-0.07757568359375,-0.00250244140625,1.000244140625
1629376439286,-0.0760498046875,-0.00390625,0.99627685546875
1629376439428,-0.073974609375,0.00042724609375,0.9945068359375
1629376439432,-0.072265625,-0.00457763671875,0.99505615234375
1629376439433,-0.07305908203125,-0.0001220703125,1.0030517578125
1629376439451,-0.06939697265625,-0.00518798828125,1.00091552734375
1629376439452,-0.0701904296875,-0.00286865234375,1.0015869140625
1629376439452,-0.06744384765625,-0.00323486328125,1.00103759765625
1629376439560,-0.07781982421875,-0.0001220703125,1.006103515625
1629376439560,-0.07257080078125,0.00128173828125,1.00665283203125
1629376439561,-0.07989501953125,0.00262451171875,0.99609375
1629376439644,-0.07958984375,-0.00054931640625,0.99029541015625
1629376439645,-0.07952880859375,0.00244140625,0.99676513671875
1629376439645,-0.07867431640625,0.0035400390625,0.99285888671875
1629376439657,-0.07427978515625,-0.0015869140625,0.99737548828125
1629376439658,-0.0770263671875,-0.0018310546875,0.99786376953125
1629376439659,-0.07354736328125,0.000244140625,0.99749755859375
1629376439667,-0.07550048828125,-0.0009765625,0.9970703125
1629376439668,-0.07745361328125,-0.00555419921875,0.998291015625
1629376439668,-0.0765380859375,0.00146484375,0.9954833984375
1629376439698,-0.0767822265625,-0.00390625,0.992919921875
1629376439699,-0.077392578125,-0.00567626953125,0.99462890625
1629376439699,-0.07464599609375,-0.00634765625,1.000244140625
1629376439827,-0.07525634765625,-0.00506591796875,0.998046875
1629376439827,-0.076904296875,-0.00360107421875,0.99932861328125
1629376439828,-0.0765380859375,-0.00213623046875,0.996826171875
1629376439857,-0.080810546875,-0.00299072265625,0.9989013671875
1629376439858,-0.07781982421875,-0.0042724609375,0.99627685546875
1629376439858,-0.0772705078125,-0.0006103515625,0.9942626953125
1629376439878,-0.0792236328125,0.0009765625,1.0015869140625
1629376439879,-0.07757568359375,-0.00189208984375,0.99755859375
1629376439880,-0.0799560546875,-0.0006103515625,0.9967041015625
1629376439961,-0.07684326171875,-0.00079345703125,0.99871826171875
1629376439961,-0.0806884765625,0.00018310546875,0.99761962890625
1629376439962,-0.07550048828125,-0.001220703125,0.9976806640625
1629376440115,-0.07525634765625,0.00360107421875,0.99847412109375
1629376440116,-0.0775146484375,0.00091552734375,0.998291015625
1629376440116,-0.0762939453125,-0.00048828125,0.99322509765625
1629376440139,-0.0780029296875,-0.00244140625,0.9913330078125
1629376440140,-0.078857421875,-0.0042724609375,0.9931640625
1629376440140,-0.077392578125,-0.00286865234375,0.994140625
1629376440207,-0.07720947265625,-0.0010986328125,0.99658203125
1629376440208,-0.078857421875,-0.000244140625,0.99945068359375
1629376440208,-0.07708740234375,-0.0003662109375,0.9969482421875
1629376440229,-0.079833984375,0.00091552734375,0.99713134765625
1629376440229,-0.07745361328125,-0.0023193359375,0.99737548828125
1629376440230,-0.0767822265625,-0.00445556640625,0.99658203125
1629376440408,-0.073974609375,-0.00048828125,1.0009765625
1629376440409,-0.07958984375,-0.00250244140625,0.99945068359375
1629376440410,-0.076904296875,-0.001708984375,0.99554443359375
1629376440477,-0.0789794921875,-0.001220703125,0.9947509765625
1629376440478,-0.07958984375,-0.00201416015625,1.00018310546875
1629376440478,-0.077392578125,-0.0032958984375,0.99810791015625
1629376440516,-0.08453369140625,-0.00262451171875,0.9945068359375
1629376440516,-0.08282470703125,-0.00445556640625,0.9925537109375
1629376440517,-0.08355712890625,-0.00494384765625,0.9921875
1629376440536,-0.078857421875,-6.103515625e-05,0.99908447265625
1629376440536,-0.078857421875,-0.00042724609375,0.99237060546875
1629376440537,-0.07733154296875,6.103515625e-05,0.99676513671875
1629376440570,-0.08135986328125,-0.00189208984375,0.99609375
1629376440571,-0.0802001953125,-0.0010986328125,0.998046875
1629376440571,-0.07818603515625,0.0013427734375,0.99755859375
1629376440582,-0.08367919921875,-0.003662109375,1.000244140625
1629376440582,-0.084228515625,-0.0025634765625,1.00006103515625
1629376440583,-0.080078125,-0.0028076171875,0.99676513671875
1629376440609,-0.08062744140625,-0.0020751953125,0.99468994140625
1629376440609,-0.08251953125,-0.00299072265625,0.99468994140625
1629376440610,-0.08258056640625,0.0006103515625,0.99700927734375
1629376440654,-0.08673095703125,-0.00225830078125,0.9952392578125
1629376440655,-0.08685302734375,0.00018310546875,0.99200439453125
1629376440656,-0.082763671875,0.00250244140625,0.9892578125
1629376440765,-0.0850830078125,-0.00213623046875,0.99310302734375
1629376440766,-0.082275390625,-0.00048828125,0.9971923828125
1629376440768,-0.08270263671875,-0.00030517578125,0.999267578125
1629376440801,-0.0814208984375,0.00299072265625,0.99560546875
1629376440802,-0.08331298828125,0.0040283203125,0.9984130859375
1629376440803,-0.0811767578125,-0.00048828125,0.99462890625
1629376440853,-0.08050537109375,-0.00244140625,0.994384765625
1629376440853,-0.08233642578125,-0.0025634765625,0.995849609375
1629376440854,-0.0836181640625,-0.0023193359375,0.997314453125
1629376440881,-0.083740234375,0.0003662109375,0.99603271484375
1629376440881,-0.08148193359375,-0.003173828125,0.99530029296875
1629376440882,-0.08099365234375,-0.0008544921875,0.99395751953125
1629376441076,-0.0811767578125,-0.00115966796875,0.9969482421875
1629376441077,-0.08392333984375,0.00048828125,1.0008544921875
1629376441077,-0.08343505859375,-0.00128173828125,0.99725341796875
1629376441100,-0.078857421875,-0.00274658203125,0.9931640625
1629376441100,-0.08038330078125,0.00067138671875,0.99578857421875
1629376441101,-0.0806884765625,0.00262451171875,1.00079345703125
1629376441111,-0.0810546875,0.003173828125,0.99737548828125
1629376441112,-0.0770263671875,0.000244140625,0.99920654296875
1629376441113,-0.0771484375,0.0008544921875,1.00238037109375
1629376441137,-0.07440185546875,0.0029296875,1.00091552734375
1629376441138,-0.07574462890625,0.00146484375,1.0003662109375
1629376441138,-0.0767822265625,0.001708984375,1.00140380859375
1629376441277,-0.0755615234375,0.00042724609375,0.99371337890625
1629376441278,-0.076904296875,0.0006103515625,0.99981689453125
1629376441279,-0.07958984375,0.00042724609375,0.9984130859375
1629376441295,-0.07977294921875,0.00030517578125,1.0015869140625
1629376441296,-0.07965087890625,-0.00244140625,0.98992919921875
1629376441296,-0.07989501953125,-0.0047607421875,0.9920654296875
1629376441334,-0.07977294921875,-0.0023193359375,0.99652099609375
1629376441335,-0.08050537109375,-0.0029296875,0.997314453125
1629376441384,-0.07952880859375,0.0008544921875,0.9981689453125
1629376441386,-0.07586669921875,0.0006103515625,0.99603271484375
1629376441490,-0.08123779296875,-0.00396728515625,0.99884033203125
1629376441492,-0.08233642578125,-0.00750732421875,0.99639892578125
1629376441494,-0.08099365234375,-0.00885009765625,0.99664306640625
1629376441520,-0.07989501953125,-0.0054931640625,0.996826171875
1629376441522,-0.08050537109375,-0.00042724609375,0.99884033203125
1629376441547,-0.08038330078125,0.00091552734375,1.00048828125
1629376441548,-0.08001708984375,0.0015869140625,0.99798583984375
1629376441549,-0.07879638671875,-0.00140380859375,0.9947509765625
1629376441636,-0.08251953125,-0.00262451171875,0.99456787109375
1629376441636,-0.0814208984375,-0.00341796875,0.99530029296875
1629376441637,-0.0843505859375,0.000244140625,0.99700927734375
1629376441741,-0.08575439453125,0.00103759765625,0.9969482421875
1629376441741,-0.08294677734375,0.001708984375,1.0
1629376441742,-0.0848388671875,0.00445556640625,0.9964599609375
1629376441836,-0.08056640625,-0.00262451171875,0.99127197265625
1629376441836,-0.08270263671875,6.103515625e-05,0.99151611328125
1629376441836,-0.083740234375,0.001220703125,0.997802734375
1629376441864,-0.08026123046875,0.00274658203125,0.99273681640625
1629376441864,-0.0809326171875,-0.00103759765625,0.99102783203125
1629376441865,-0.07989501953125,-0.00177001953125,0.9989013671875
1629376441929,-0.07989501953125,0.0040283203125,0.9996337890625
1629376441929,-0.07525634765625,0.00238037109375,0.9981689453125
1629376441929,-0.07769775390625,0.00665283203125,0.9993896484375
1629376441967,-0.07611083984375,-0.000244140625,0.998779296875
1629376441967,-0.0770263671875,0.001953125,0.99755859375
1629376441968,-0.07745361328125,-0.0048828125,0.99627685546875
1629376442040,-0.08026123046875,-0.00469970703125,0.99908447265625
1629376442040,-0.07513427734375,-0.00323486328125,0.99884033203125
1629376442040,-0.077392578125,-0.00628662109375,0.998779296875
1629376442064,-0.07611083984375,-0.0008544921875,0.99786376953125
1629376442065,-0.0758056640625,-0.00299072265625,0.99530029296875
1629376442065,-0.0770263671875,-0.00146484375,0.99700927734375
1629376442092,-0.080322265625,0.0025634765625,0.99615478515625
1629376442092,-0.0791015625,-0.0009765625,0.99566650390625
1629376442092,-0.077880859375,-0.0028076171875,0.995361328125
1629376442167,-0.0767822265625,0.00079345703125,0.998291015625
1629376442168,-0.0782470703125,-0.0015869140625,0.99530029296875
1629376442168,-0.07745361328125,-6.103515625e-05,1.0003662109375
1629376442182,-0.078125,-0.002197265625,0.99798583984375
1629376442182,-0.0799560546875,-0.00335693359375,0.99993896484375
1629376442183,-0.079833984375,-0.00335693359375,0.99578857421875
1629376442218,-0.07476806640625,0.0003662109375,1.00128173828125
1629376442218,-0.07843017578125,-0.00286865234375,0.99822998046875
1629376442218,-0.07818603515625,-0.00579833984375,0.99591064453125
1629376442344,-0.0751953125,-0.0006103515625,1.00103759765625
1629376442345,-0.076171875,0.0020751953125,0.99603271484375
1629376442346,-0.07781982421875,-0.00018310546875,0.99810791015625
1629376442376,-0.07550048828125,-0.00048828125,0.99786376953125
1629376442377,-0.0758056640625,0.000244140625,0.99591064453125
1629376442377,-0.08294677734375,-0.0008544921875,0.9976806640625
1629376442486,-0.08380126953125,-0.0045166015625,0.993896484375
1629376442486,-0.08447265625,-0.00146484375,0.9921875
1629376442487,-0.08087158203125,-0.00128173828125,0.99114990234375
1629376442495,-0.08221435546875,-0.0009765625,0.999267578125
1629376442495,-0.08099365234375,-0.00115966796875,0.99627685546875
1629376442496,-0.08306884765625,0.001953125,0.99493408203125
1629376442640,-0.07855224609375,0.00067138671875,0.9937744140625
1629376442641,-0.082275390625,0.0032958984375,0.99603271484375
1629376442642,-0.07501220703125,0.00091552734375,0.99615478515625
1629376442661,-0.080810546875,-0.00115966796875,0.99951171875
1629376442662,-0.0780029296875,-0.00323486328125,0.9984130859375
1629376442662,-0.07586669921875,-0.00164794921875,0.99798583984375
1629376442729,-0.0758056640625,-0.00115966796875,1.00146484375
1629376442730,-0.07843017578125,-0.00213623046875,0.99908447265625
1629376442731,-0.08001708984375,0.00262451171875,1.00347900390625
1629376442744,-0.07366943359375,0.00042724609375,0.99798583984375
1629376442745,-0.078369140625,0.0025634765625,1.00146484375
1629376442745,-0.08233642578125,0.00421142578125,1.00189208984375
1629376442805,-0.07928466796875,0.0048828125,0.9942626953125
1629376442806,-0.0780029296875,0.00177001953125,0.9940185546875
1629376442808,-0.0816650390625,-0.0042724609375,0.9932861328125
1629376442897,-0.081787109375,-0.0023193359375,0.99871826171875
1629376442899,-0.08160400390625,-0.00341796875,1.00048828125
1629376442932,-0.07928466796875,-0.00018310546875,0.999755859375
1629376442933,-0.08245849609375,-0.00244140625,0.99560546875
1629376442933,-0.08197021484375,-0.0001220703125,0.996337890625
1629376442991,-0.0830078125,-0.002685546875,0.99505615234375
1629376442992,-0.082763671875,-0.00592041015625,0.99688720703125
1629376442993,-0.0843505859375,-0.00164794921875,0.9925537109375
1629376443111,-0.0843505859375,-0.00384521484375,0.99310302734375
1629376443111,-0.08489990234375,-0.00482177734375,0.997314453125
1629376443112,-0.0885009765625,-0.00445556640625,0.9912109375
1629376443117,-0.08905029296875,-0.00445556640625,0.9903564453125
1629376443118,-0.0887451171875,-0.00286865234375,0.99346923828125
1629376443119,-0.09124755859375,-0.00146484375,0.996826171875
1629376443213,-0.084228515625,-0.0052490234375,0.995361328125
1629376443213,-0.0843505859375,-0.000244140625,0.9993896484375
1629376443214,-0.08673095703125,-0.00250244140625,0.99371337890625
1629376443222,-0.08184814453125,-0.00250244140625,0.999755859375
1629376443224,-0.085693359375,0.0006103515625,1.00164794921875
1629376443225,-0.090087890625,-0.00335693359375,0.99908447265625
1629376443293,-0.0849609375,-0.00421142578125,0.99267578125
1629376443293,-0.0867919921875,-0.00030517578125,0.989990234375
1629376443294,-0.0865478515625,-0.0008544921875,0.994384765625
1629376443319,-0.0849609375,-0.001220703125,0.998046875
1629376443319,-0.08538818359375,0.00030517578125,0.996826171875
1629376443319,-0.08392333984375,-0.0028076171875,0.99713134765625
1629376443379,-0.084228515625,-0.00103759765625,0.99774169921875
1629376443380,-0.08416748046875,-0.001953125,0.9951171875
1629376443380,-0.079345703125,-0.00433349609375,0.9984130859375
1629376443529,-0.08660888671875,-0.00384521484375,0.99591064453125
1629376443530,-0.08831787109375,-0.00054931640625,0.9947509765625
1629376443531,-0.08135986328125,-0.001708984375,0.9970703125
1629376443547,-0.08209228515625,-0.00067138671875,0.99530029296875
1629376443548,-0.0802001953125,0.0029296875,0.996826171875
1629376443548,-0.0810546875,0.00341796875,0.99871826171875
1629376443611,-0.08050537109375,0.0015869140625,0.99755859375
1629376443611,-0.08056640625,-0.004638671875,0.9967041015625
1629376443612,-0.08477783203125,-0.002685546875,0.9967041015625
1629376443671,-0.086181640625,-0.003662109375,0.99859619140625
1629376443672,-0.082763671875,-0.0023193359375,0.99932861328125
1629376443672,-0.08306884765625,-0.0050048828125,1.002685546875
1629376443727,-0.0826416015625,-0.00616455078125,0.99755859375
1629376443729,-0.08685302734375,-0.00439453125,0.99884033203125
1629376443730,-0.0845947265625,-0.00408935546875,0.99560546875
1629376443754,-0.08477783203125,-0.0084228515625,0.99310302734375
1629376443755,-0.08502197265625,-0.0087890625,0.9952392578125
1629376443759,-0.083740234375,-0.00823974609375,0.9952392578125
1629376443777,-0.08636474609375,-0.00958251953125,0.996337890625
1629376443778,-0.089111328125,-0.00787353515625,0.9976806640625
1629376443778,-0.08746337890625,-0.00537109375,0.99505615234375
1629376443828,-0.08489990234375,-0.00140380859375,0.995849609375
1629376443829,-0.08184814453125,0.00140380859375,0.99749755859375
1629376443830,-0.0853271484375,0.00372314453125,0.99530029296875
1629376444018,-0.082763671875,0.00152587890625,0.99725341796875
1629376444019,-0.084716796875,0.0028076171875,0.99884033203125
1629376444055,-0.0855712890625,0.0029296875,0.99737548828125
1629376444057,-0.08563232421875,-0.00323486328125,0.99310302734375
1629376444061,-0.0819091796875,0.003173828125,0.993896484375
1629376444068,-0.08648681640625,0.0040283203125,0.993896484375
1629376444077,-0.0845947265625,0.00128173828125,0.99395751953125
1629376444144,-0.08489990234375,0.00244140625,0.99468994140625
1629376444146,-0.082763671875,0.0008544921875,1.0008544921875
1629376444149,-0.08056640625,-0.00347900390625,1.0008544921875
1629376444201,-0.0791015625,-0.001220703125,0.99908447265625
1629376444203,-0.08148193359375,-0.00030517578125,1.001220703125
1629376444205,-0.083251953125,0.0001220703125,0.99407958984375
1629376444304,-0.08544921875,-0.00091552734375,0.99688720703125
1629376444305,-0.08502197265625,-0.000732421875,0.98992919921875
1629376444305,-0.08673095703125,-0.00311279296875,0.99053955078125
1629376444332,-0.082763671875,0.000244140625,0.99517822265625
1629376444333,-0.07958984375,-0.00244140625,1.00128173828125
1629376444378,-0.07855224609375,-0.00048828125,0.99853515625
1629376444379,-0.0792236328125,-0.00250244140625,0.99957275390625
1629376444379,-0.0791015625,-0.00311279296875,0.99639892578125
1629376444507,-0.0849609375,0.00030517578125,0.99798583984375
1629376444507,-0.08099365234375,-0.0020751953125,0.99774169921875
1629376444508,-0.0804443359375,-0.00048828125,0.99505615234375
1629376444643,-0.08197021484375,-0.0037841796875,0.9957275390625
1629376444646,-0.07843017578125,0.00152587890625,0.9974365234375
1629376444648,-0.084716796875,0.003662109375,1.0
1629376444665,-0.08221435546875,0.0047607421875,0.9981689453125
1629376444666,-0.08135986328125,0.00421142578125,0.99444580078125
1629376444666,-0.081787109375,0.002685546875,0.99365234375
1629376444679,-0.08355712890625,0.0050048828125,0.9984130859375
1629376444680,-0.082275390625,0.00518798828125,1.00250244140625
1629376444712,-0.084716796875,-0.000244140625,0.99798583984375
1629376444712,-0.08099365234375,0.001220703125,0.9990234375
1629376444713,-0.08209228515625,0.001708984375,0.99578857421875
1629376444746,-0.08612060546875,-0.00262451171875,0.994140625
1629376444746,-0.0804443359375,0.0020751953125,0.9954833984375
1629376444746,-0.085205078125,-0.00018310546875,0.99481201171875
1629376444808,-0.08526611328125,-0.00225830078125,0.99237060546875
1629376444811,-0.089599609375,-0.0013427734375,0.99420166015625
1629376444813,-0.082763671875,-0.000732421875,0.99517822265625
1629376444869,-0.08282470703125,6.103515625e-05,0.994873046875
1629376444870,-0.0770263671875,0.0040283203125,0.99993896484375
1629376444871,-0.08270263671875,0.00494384765625,1.00274658203125
1629376444926,-0.07769775390625,0.0010986328125,0.99969482421875
1629376444928,-0.080810546875,-0.00048828125,0.99591064453125
1629376444930,-0.07904052734375,-0.001708984375,0.99664306640625
1629376444950,-0.07952880859375,-0.00238037109375,0.99774169921875
1629376444951,-0.08184814453125,0.001953125,1.0003662109375
1629376444999,-0.07928466796875,-0.000244140625,0.9952392578125
1629376445000,-0.0816650390625,-0.000732421875,0.99700927734375
1629376445000,-0.08013916015625,0.0013427734375,0.99298095703125
1629376445059,-0.08197021484375,0.00140380859375,0.99847412109375
1629376445060,-0.07977294921875,-0.001708984375,0.99993896484375
1629376445061,-0.0777587890625,-0.001220703125,0.99591064453125
1629376445149,-0.08111572265625,-0.001708984375,0.99725341796875
1629376445150,-0.07952880859375,-0.00091552734375,0.99560546875
1629376445151,-0.0848388671875,-0.00201416015625,0.995361328125
1629376445184,-0.081787109375,-0.00750732421875,0.991943359375
1629376445185,-0.0821533203125,-0.00531005859375,0.99237060546875
1629376445217,-0.07672119140625,0.00140380859375,1.000244140625
1629376445218,-0.07470703125,0.00146484375,0.997802734375
1629376445219,-0.0758056640625,0.0025634765625,0.9974365234375
1629376445259,-0.08062744140625,0.00653076171875,0.99859619140625
1629376445260,-0.07769775390625,0.0042724609375,0.99652099609375
1629376445260,-0.07476806640625,0.00323486328125,0.99859619140625
1629376445399,-0.07855224609375,-0.00042724609375,0.99578857421875
1629376445399,-0.08050537109375,-0.0008544921875,0.99407958984375
1629376445436,-0.079345703125,-0.00445556640625,0.99578857421875
1629376445438,-0.08441162109375,-0.00152587890625,0.99566650390625
1629376445440,-0.08355712890625,-0.0042724609375,0.99761962890625
1629376445457,-0.0843505859375,-0.00189208984375,0.992919921875
1629376445458,-0.086181640625,0.00177001953125,0.99395751953125
1629376445458,-0.0833740234375,0.00250244140625,0.99212646484375
1629376445649,-0.08392333984375,0.0059814453125,0.99468994140625
1629376445649,-0.08685302734375,0.00238037109375,0.99468994140625
1629376445650,-0.0849609375,0.00140380859375,0.99871826171875
1629376445750,-0.08306884765625,-0.00177001953125,1.00079345703125
1629376445751,-0.08233642578125,0.0010986328125,0.99432373046875
1629376445751,-0.0792236328125,-0.0006103515625,0.992919921875
1629376445763,-0.079833984375,0.00054931640625,0.99481201171875
1629376445763,-0.07965087890625,0.0032958984375,0.99603271484375
1629376445763,-0.0799560546875,0.00146484375,1.0003662109375
1629376445842,-0.07403564453125,0.00567626953125,1.00146484375
1629376445842,-0.07672119140625,0.00238037109375,0.998046875
1629376445843,-0.07073974609375,0.004150390625,1.001220703125
1629376445899,-0.07177734375,0.00189208984375,1.00140380859375
1629376445899,-0.07147216796875,0.0030517578125,1.00506591796875
1629376445900,-0.0731201171875,0.003173828125,1.0064697265625
1629376445915,-0.07476806640625,-0.00091552734375,1.001708984375
1629376445915,-0.07330322265625,0.00469970703125,0.99920654296875
1629376445917,-0.07647705078125,0.0025634765625,0.99432373046875
1629376446010,-0.0760498046875,0.0048828125,0.998779296875
1629376446011,-0.0767822265625,0.00201416015625,0.9925537109375
1629376446012,-0.079833984375,0.0009765625,0.9935302734375
1629376446050,-0.0784912109375,0.000732421875,0.9951171875
1629376446050,-0.081787109375,0.00396728515625,0.99383544921875
1629376446051,-0.0780029296875,0.0015869140625,0.99420166015625
1629376446134,-0.07574462890625,-0.00518798828125,0.99615478515625
1629376446134,-0.07781982421875,-0.00054931640625,1.000244140625
1629376446135,-0.07501220703125,-0.0006103515625,0.99688720703125
1629376446166,-0.08087158203125,-0.00103759765625,1.0009765625
1629376446166,-0.07952880859375,-0.00274658203125,1.00048828125
1629376446168,-0.08233642578125,-0.0078125,0.99853515625
1629376446260,-0.08184814453125,-0.005859375,0.9908447265625
1629376446260,-0.0787353515625,-0.00347900390625,0.99658203125
1629376446262,-0.08056640625,-0.00323486328125,0.99957275390625
1629376446302,-0.07708740234375,-0.00238037109375,1.0020751953125
1629376446303,-0.07952880859375,-0.0052490234375,0.99737548828125
1629376446303,-0.076904296875,-0.00274658203125,0.9971923828125
1629376446330,-0.08074951171875,-0.00189208984375,0.99761962890625
1629376446330,-0.0794677734375,0.000732421875,0.99713134765625
1629376446331,-0.08197021484375,0.0015869140625,0.994140625
1629376446397,-0.08148193359375,0.00341796875,0.99395751953125
1629376446398,-0.08294677734375,0.00335693359375,0.993896484375
1629376446398,-0.0826416015625,0.00579833984375,0.99298095703125
1629376446410,-0.08282470703125,0.00494384765625,0.9947509765625
1629376446411,-0.08563232421875,0.00634765625,0.9952392578125
1629376446411,-0.08074951171875,0.00811767578125,0.995849609375
1629376446422,-0.0833740234375,0.00384521484375,0.99456787109375
1629376446423,-0.080810546875,0.004150390625,0.99505615234375
1629376446424,-0.0836181640625,0.0009765625,1.0008544921875
1629376446468,-0.08184814453125,0.00244140625,0.998046875
1629376446468,-0.07720947265625,-0.00018310546875,1.00482177734375
1629376446468,-0.07904052734375,0.00189208984375,1.00494384765625
1629376446505,-0.07904052734375,0.00030517578125,0.99945068359375
1629376446505,-0.0787353515625,-0.0023193359375,1.0040283203125
1629376446506,-0.082763671875,0.00408935546875,0.9976806640625
1629376446524,-0.08111572265625,0.002685546875,0.9990234375
1629376446524,-0.07977294921875,-0.00042724609375,0.99554443359375
1629376446525,-0.085693359375,-0.0025634765625,0.99407958984375
1629376446569,-0.084228515625,-0.00177001953125,0.99371337890625
1629376446571,-0.08392333984375,0.000244140625,0.98992919921875
1629376446571,-0.0875244140625,0.00140380859375,0.98809814453125
1629376446683,-0.08367919921875,0.0010986328125,0.99041748046875
1629376446687,-0.08612060546875,0.0006103515625,0.99560546875
1629376446761,-0.0799560546875,-0.00311279296875,0.99755859375
1629376446763,-0.08428955078125,-0.0025634765625,0.9986572265625
1629376446763,-0.07965087890625,-0.0023193359375,0.99786376953125
1629376446784,-0.0799560546875,-0.00146484375,0.99774169921875
1629376446785,-0.08050537109375,-0.00189208984375,0.998291015625
1629376446861,-0.07916259765625,-0.00299072265625,1.00164794921875
1629376446862,-0.076904296875,-0.0018310546875,0.99700927734375
1629376446862,-0.0819091796875,0.00067138671875,1.0042724609375
1629376446941,-0.08270263671875,0.0042724609375,0.9969482421875
1629376446943,-0.08514404296875,0.0054931640625,0.99920654296875
1629376446944,-0.08465576171875,-0.0020751953125,0.99169921875
1629376446960,-0.086669921875,0.00396728515625,0.9886474609375
1629376446961,-0.0860595703125,0.0032958984375,0.99200439453125
1629376446962,-0.079833984375,0.000732421875,0.9957275390625
1629376447134,-0.07940673828125,0.00390625,0.99652099609375
1629376447135,-0.07904052734375,0.00189208984375,0.9971923828125
1629376447137,-0.08331298828125,0.00494384765625,0.99786376953125
1629376447153,-0.08209228515625,0.00341796875,0.99285888671875
1629376447154,-0.07965087890625,0.0028076171875,0.9964599609375
1629376447155,-0.0806884765625,0.0015869140625,0.998291015625
1629376447193,-0.07830810546875,0.0020751953125,0.9974365234375
1629376447193,-0.08148193359375,-0.000732421875,0.99493408203125
1629376447221,-0.079345703125,0.001708984375,1.001953125
1629376447228,-0.08001708984375,0.000732421875,0.998779296875
1629376447229,-0.082275390625,-0.00323486328125,0.99786376953125
1629376447241,-0.08319091796875,-6.103515625e-05,0.99884033203125
1629376447243,-0.08514404296875,0.0057373046875,0.9959716796875
1629376447243,-0.08209228515625,0.00372314453125,1.0028076171875
1629376447315,-0.08636474609375,0.00628662109375,0.996826171875
1629376447316,-0.08758544921875,0.0035400390625,0.99365234375
1629376447316,-0.079345703125,0.00531005859375,0.9971923828125
1629376447361,-0.0855712890625,0.0023193359375,0.99267578125
1629376447362,-0.08758544921875,0.00482177734375,0.99371337890625
1629376447362,-0.08612060546875,0.00677490234375,0.9923095703125
1629376447442,-0.08599853515625,0.00177001953125,0.994384765625
1629376447444,-0.08489990234375,0.001220703125,0.99627685546875
1629376447446,-0.0855712890625,0.00018310546875,0.9981689453125
1629376447513,-0.08349609375,0.00262451171875,0.99554443359375
1629376447514,-0.08349609375,-0.00030517578125,0.994873046875
1629376447515,-0.08331298828125,0.0003662109375,0.99700927734375
1629376447585,-0.08111572265625,-0.00042724609375,0.99542236328125
1629376447586,-0.08001708984375,-0.00164794921875,0.99676513671875
1629376447586,-0.07958984375,0.0023193359375,0.998046875
1629376447621,-0.08062744140625,0.00457763671875,0.9947509765625
1629376447622,-0.0780029296875,-0.00042724609375,1.00054931640625
1629376447625,-0.080078125,-0.0006103515625,0.99835205078125
1629376447660,-0.0775146484375,-0.0020751953125,0.99945068359375
1629376447661,-0.078369140625,-0.0001220703125,0.99822998046875
1629376447661,-0.0799560546875,0.00048828125,1.0001220703125
1629376447714,-0.08074951171875,-0.00201416015625,0.99798583984375
1629376447716,-0.0848388671875,-0.0009765625,0.99932861328125
1629376447716,-0.0823974609375,-0.0013427734375,0.99749755859375
1629376447832,-0.08392333984375,-0.00311279296875,0.99267578125
1629376447833,-0.0870361328125,-0.0032958984375,0.9896240234375
1629376447835,-0.08428955078125,-0.0064697265625,0.9945068359375
1629376447856,-0.0748291015625,0.002685546875,0.99664306640625
1629376447856,-0.0799560546875,0.00390625,0.99676513671875
1629376447856,-0.08319091796875,-0.000732421875,0.9959716796875
1629376447934,-0.07861328125,0.00054931640625,0.99749755859375
1629376447934,-0.07666015625,0.0035400390625,0.99945068359375
1629376447934,-0.078857421875,0.00335693359375,1.00048828125
1629376447934,-0.08209228515625,0.0020751953125,0.99871826171875
1629376447934,-0.080322265625,-0.0009765625,0.99658203125
1629376447934,-0.08441162109375,-0.00067138671875,0.99530029296875
1629376447984,-0.082763671875,0.0010986328125,0.99078369140625
1629376447984,-0.0816650390625,0.00250244140625,0.99993896484375
1629376447984,-0.0838623046875,0.00115966796875,0.991943359375
1629376448156,-0.0845947265625,0.002685546875,0.9935302734375
1629376448156,-0.08319091796875,0.003173828125,0.99212646484375
1629376448156,-0.0849609375,0.0030517578125,1.00048828125
1629376448172,-0.08111572265625,0.0018310546875,0.9990234375
1629376448172,-0.08489990234375,0.00042724609375,0.9998779296875
1629376448172,-0.08331298828125,0.00067138671875,0.99517822265625
1629376448188,-0.07940673828125,-0.00091552734375,1.0
1629376448188,-0.0780029296875,0.001708984375,1.00164794921875
1629376448188,-0.0806884765625,-0.00048828125,0.99481201171875
1629376448291,-0.081787109375,-0.0020751953125,0.99700927734375
1629376448292,-0.079345703125,0.00018310546875,0.99542236328125
1629376448295,-0.0810546875,-0.0001220703125,0.99639892578125
1629376448355,-0.084228515625,0.0001220703125,0.99371337890625
1629376448355,-0.0821533203125,-0.001220703125,0.99395751953125
1629376448355,-0.0831298828125,0.001220703125,0.99249267578125
1629376448387,-0.07781982421875,0.00048828125,0.99725341796875
1629376448387,-0.07830810546875,0.002197265625,0.99871826171875
1629376448387,-0.0811767578125,0.0009765625,0.9974365234375
1629376448433,-0.07470703125,0.00018310546875,1.001953125
1629376448433,-0.0782470703125,-0.00323486328125,1.00128173828125
1629376448433,-0.07684326171875,-0.00177001953125,1.00390625
1629376448558,-0.074462890625,-0.0035400390625,1.001220703125
1629376448558,-0.07476806640625,-0.00164794921875,0.99871826171875
1629376448558,-0.07464599609375,0.0008544921875,1.001220703125
1629376448605,-0.0784912109375,0.00225830078125,0.9991455078125
1629376448605,-0.07635498046875,-0.00299072265625,1.002197265625
1629376448621,-0.0830078125,-0.0037841796875,1.0008544921875
1629376448636,-0.0811767578125,0.00238037109375,0.9969482421875
1629376448636,-0.07830810546875,-0.00048828125,0.9937744140625
1629376448636,-0.0784912109375,-0.00250244140625,0.99688720703125
1629376448668,-0.08270263671875,0.0006103515625,0.99053955078125
1629376448668,-0.08538818359375,0.0008544921875,0.994873046875
1629376448668,-0.083984375,-0.00274658203125,0.99066162109375
1629376448720,-0.08367919921875,-0.001708984375,0.9915771484375
1629376448721,-0.08258056640625,0.00146484375,0.998046875
1629376448722,-0.0777587890625,0.0010986328125,1.0006103515625
1629376448796,-0.075927734375,0.004638671875,1.0032958984375
1629376448796,-0.07550048828125,0.0069580078125,1.00433349609375
1629376448796,-0.075439453125,0.00677490234375,1.0013427734375
1629376448827,-0.07763671875,0.00396728515625,1.00091552734375
1629376448827,-0.07904052734375,0.000732421875,1.00048828125
1629376448827,-0.080810546875,-0.001708984375,0.996826171875
1629376448921,-0.08447265625,-0.0015869140625,0.99468994140625
1629376448921,-0.0838623046875,0.003662109375,0.99658203125
1629376448921,-0.08551025390625,0.00189208984375,0.9874267578125
1629376448952,-0.0855712890625,0.0003662109375,0.994140625
1629376448952,-0.085693359375,0.0015869140625,0.9942626953125
1629376449030,-0.08453369140625,0.00286865234375,0.99078369140625
1629376449030,-0.0775146484375,-0.000732421875,0.99700927734375
1629376449030,-0.08319091796875,-0.0008544921875,0.9954833984375
1629376449077,-0.07501220703125,0.0030517578125,1.0029296875
1629376449077,-0.074951171875,0.00262451171875,0.9990234375
1629376449077,-0.07421875,-0.00042724609375,1.00433349609375
1629376449124,-0.076904296875,0.0013427734375,0.99761962890625
1629376449124,-0.073974609375,-0.0015869140625,0.9986572265625
1629376449124,-0.0731201171875,0.00360107421875,1.00244140625
1629376449249,-0.07562255859375,-0.001708984375,0.99609375
1629376449249,-0.07403564453125,0.0009765625,0.99737548828125
1629376449249,-0.07891845703125,-0.0045166015625,0.99456787109375
1629376449265,-0.08001708984375,0.0009765625,0.99658203125
1629376449265,-0.080078125,-0.00311279296875,1.0009765625
1629376449265,-0.07574462890625,-0.002197265625,0.9942626953125
1629376449358,-0.07794189453125,-0.0013427734375,0.99456787109375
1629376449358,-0.08154296875,0.000244140625,0.9951171875
1629376449358,-0.078125,-0.0023193359375,0.99237060546875
1629376449358,-0.0810546875,0.0013427734375,0.99517822265625
1629376449358,-0.079833984375,0.000732421875,0.99609375
1629376449358,-0.0810546875,0.00152587890625,0.99578857421875
1629376449452,-0.08001708984375,0.00140380859375,0.995361328125
1629376449452,-0.0819091796875,0.00299072265625,1.001708984375
1629376449452,-0.0804443359375,0.00286865234375,0.99969482421875
1629376449483,-0.0819091796875,0.00347900390625,0.99969482421875
1629376449483,-0.0799560546875,0.0042724609375,0.99761962890625
1629376449483,-0.07940673828125,0.00238037109375,1.00079345703125
1629376449577,-0.0814208984375,0.0040283203125,0.99798583984375
1629376449577,-0.08563232421875,-0.0062255859375,0.99810791015625
1629376449577,-0.08551025390625,-0.00311279296875,0.9927978515625
1629376449671,-0.080810546875,0.00048828125,0.9949951171875
1629376449671,-0.0799560546875,0.00079345703125,0.99755859375
1629376449671,-0.083251953125,-0.00238037109375,0.9937744140625
1629376449671,-0.0797119140625,0.00146484375,0.99444580078125
1629376449671,-0.07720947265625,0.00042724609375,0.99542236328125
1629376449671,-0.082275390625,0.00372314453125,0.9991455078125
1629376449734,-0.08404541015625,0.0003662109375,0.99615478515625
1629376449734,-0.0802001953125,-0.00042724609375,0.9951171875
1629376449735,-0.08563232421875,-0.0028076171875,0.99664306640625
1629376449767,-0.08160400390625,-0.00262451171875,0.99530029296875
1629376449767,-0.08258056640625,-0.00152587890625,0.99676513671875
1629376449782,-0.08502197265625,0.00030517578125,0.99591064453125
1629376450001,-0.08282470703125,0.00091552734375,0.9954833984375
1629376450001,-0.08013916015625,0.0010986328125,0.99407958984375
1629376450017,-0.081298828125,0.0003662109375,0.99444580078125
1629376450064,-0.08404541015625,0.00030517578125,0.99664306640625
1629376450064,-0.082275390625,-0.00390625,0.99957275390625
1629376450064,-0.083740234375,-0.00177001953125,0.99713134765625
1629376450079,-0.083984375,-0.000732421875,0.99884033203125
1629376450079,-0.08160400390625,0.00146484375,1.002685546875
1629376450079,-0.083251953125,0.0028076171875,0.9969482421875
1629376450095,-0.0853271484375,0.00347900390625,0.9913330078125
1629376450095,-0.08056640625,-0.00018310546875,0.992919921875
1629376450095,-0.08856201171875,0.0018310546875,0.995361328125
1629376450157,-0.08343505859375,0.00048828125,0.994384765625
1629376450157,-0.08551025390625,-0.00213623046875,0.99346923828125
1629376450157,-0.08477783203125,0.0015869140625,0.99395751953125
1629376450189,-0.08294677734375,-0.003662109375,0.9942626953125
1629376450189,-0.0860595703125,0.00225830078125,0.99560546875
1629376450189,-0.085205078125,-0.0023193359375,0.9949951171875
1629376450235,-0.08099365234375,0.0003662109375,0.995361328125
1629376450235,-0.079833984375,0.0008544921875,0.9969482421875
1629376450235,-0.08172607421875,0.00054931640625,0.99627685546875
1629376450407,-0.08282470703125,0.00396728515625,1.00091552734375
1629376450407,-0.08306884765625,-0.00079345703125,0.99896240234375
1629376450407,-0.07965087890625,-0.000732421875,0.99896240234375
1629376450470,-0.08148193359375,0.0050048828125,1.00140380859375
1629376450470,-0.08087158203125,0.0008544921875,0.99945068359375
1629376450470,-0.0797119140625,0.0013427734375,0.9967041015625
1629376450517,-0.08587646484375,0.00225830078125,0.99603271484375
1629376450517,-0.08056640625,0.00347900390625,0.9993896484375
1629376450517,-0.08251953125,-0.00146484375,0.992431640625
1629376450642,-0.0859375,0.001220703125,1.0006103515625
1629376450642,-0.08367919921875,0.00238037109375,0.99896240234375
1629376450642,-0.08441162109375,0.00372314453125,0.99481201171875
1629376450657,-0.0848388671875,0.00250244140625,0.99566650390625
1629376450657,-0.085693359375,0.00048828125,0.990966796875
1629376450657,-0.08905029296875,-0.00146484375,0.9906005859375
1629376450689,-0.0802001953125,0.00262451171875,0.99969482421875
1629376450689,-0.07916259765625,0.00372314453125,0.9981689453125
1629376450689,-0.0794677734375,0.0040283203125,0.99993896484375
1629376450735,-0.08074951171875,0.0079345703125,1.0023193359375
1629376450735,-0.0811767578125,0.00531005859375,1.0006103515625
1629376450735,-0.08160400390625,0.00506591796875,0.99957275390625
1629376450751,-0.08270263671875,0.00054931640625,0.9989013671875
1629376450767,-0.08380126953125,0.003662109375,0.9981689453125
1629376450767,-0.0777587890625,0.000732421875,0.99359130859375
1629376450767,-0.08087158203125,-6.103515625e-05,0.99273681640625
1629376450767,-0.0843505859375,-0.00177001953125,0.99517822265625
1629376450767,-0.08343505859375,0.00384521484375,1.001953125
1629376450876,-0.087158203125,0.002197265625,0.99188232421875
1629376450876,-0.08123779296875,0.00384521484375,0.99322509765625
1629376450876,-0.08538818359375,0.0018310546875,0.994384765625
1629376450907,-0.08392333984375,0.00067138671875,0.99688720703125
1629376450907,-0.08203125,0.00030517578125,0.99798583984375
1629376450907,-0.08636474609375,0.0013427734375,0.99505615234375
1629376450923,-0.0828857421875,0.00299072265625,0.99871826171875
1629376450923,-0.08294677734375,0.00189208984375,0.99432373046875
1629376450923,-0.083740234375,0.00286865234375,0.99658203125
1629376450938,-0.08355712890625,0.00494384765625,0.99713134765625
1629376450938,-0.0804443359375,0.0001220703125,0.9969482421875
1629376450938,-0.08331298828125,0.0020751953125,0.998291015625
1629376451095,-0.08355712890625,-0.00128173828125,0.9935302734375
1629376451110,-0.08197021484375,0.00323486328125,0.99298095703125
1629376451110,-0.081298828125,0.0037841796875,0.9935302734375
1629376451110,-0.08428955078125,0.00164794921875,0.99627685546875
1629376451110,-0.0826416015625,0.00225830078125,0.99591064453125
1629376451110,-0.08154296875,0.00244140625,0.998046875
1629376451173,-0.0826416015625,0.00067138671875,0.996337890625
1629376451173,-0.07977294921875,-0.0020751953125,0.99853515625
1629376451173,-0.0811767578125,0.0045166015625,0.9970703125
1629376451220,-0.081298828125,0.0001220703125,0.99652099609375
1629376451220,-0.081298828125,-0.0008544921875,0.9964599609375
1629376451220,-0.08184814453125,-0.000244140625,0.998291015625
1629376451282,-0.08013916015625,-0.00018310546875,1.001708984375
1629376451282,-0.079345703125,-0.001220703125,0.99951171875
1629376451282,-0.08074951171875,-0.0023193359375,0.9971923828125
1629376451376,-0.0771484375,0.00018310546875,1.00042724609375
1629376451376,-0.0797119140625,-0.003173828125,1.00115966796875
1629376451376,-0.077880859375,0.0001220703125,1.00054931640625
1629376451423,-0.07965087890625,-0.00225830078125,0.9981689453125
1629376451423,-0.087158203125,-0.00347900390625,0.99261474609375
1629376451423,-0.08367919921875,-0.0023193359375,0.99468994140625
1629376451438,-0.0870361328125,0.00439453125,0.997314453125
1629376451438,-0.08123779296875,0.00555419921875,0.9947509765625
1629376451438,-0.08294677734375,-6.103515625e-05,0.99017333984375
1629376451516,-0.0787353515625,0.00286865234375,0.99505615234375
1629376451516,-0.08050537109375,0.0054931640625,0.99603271484375
1629376451516,-0.0767822265625,0.004638671875,0.9984130859375
1629376451626,-0.07867431640625,0.00286865234375,1.001220703125
1629376451626,-0.0743408203125,0.0006103515625,1.00335693359375
1629376451626,-0.07568359375,0.0042724609375,0.99908447265625
1629376451720,-0.0753173828125,-0.0023193359375,1.000244140625
1629376451720,-0.07916259765625,-0.0040283203125,0.998779296875
1629376451720,-0.08013916015625,-0.00286865234375,0.99993896484375
1629376451798,-0.078125,-0.00213623046875,1.00213623046875
1629376451813,-0.0830078125,0.001220703125,0.99261474609375
1629376451813,-0.0823974609375,0.00189208984375,0.99945068359375
1629376451834,-0.08697509765625,0.005615234375,0.99200439453125
1629376451834,-0.08782958984375,0.0045166015625,0.99127197265625
1629376451835,-0.08624267578125,0.0042724609375,0.9925537109375
1629376451862,-0.08233642578125,0.00433349609375,0.9947509765625
1629376451862,-0.08465576171875,0.003173828125,0.995361328125
1629376451862,-0.083740234375,0.0015869140625,0.99761962890625
1629376451877,-0.07940673828125,0.0013427734375,0.99713134765625
1629376451877,-0.0810546875,0.0030517578125,0.99639892578125
1629376451877,-0.083984375,0.00262451171875,0.998291015625
1629376451908,-0.08001708984375,0.00396728515625,0.9976806640625
1629376451908,-0.07958984375,-0.0006103515625,0.998046875
1629376451908,-0.0828857421875,-0.00164794921875,0.9969482421875
1629376452002,-0.07977294921875,-0.00146484375,0.99969482421875
1629376452002,-0.0794677734375,-0.002197265625,0.99737548828125
1629376452002,-0.07952880859375,-0.00079345703125,0.99774169921875
1629376452033,-0.07855224609375,0.00091552734375,0.99951171875
1629376452033,-0.07769775390625,0.00244140625,0.9969482421875
1629376452033,-0.0780029296875,0.00128173828125,1.0001220703125
1629376452112,-0.0814208984375,-0.00054931640625,0.9976806640625
1629376452112,-0.08258056640625,0.0018310546875,0.99554443359375
1629376452205,-0.0819091796875,0.00103759765625,0.9970703125
1629376452205,-0.07916259765625,0.00030517578125,1.00006103515625
1629376452205,-0.07958984375,0.00238037109375,0.9959716796875
1629376452221,-0.078857421875,0.00146484375,0.99639892578125
1629376452221,-0.0789794921875,0.00372314453125,0.99749755859375
1629376452221,-0.0792236328125,0.003173828125,0.995849609375
1629376452252,-0.081787109375,0.00164794921875,0.99896240234375
1629376452252,-0.087646484375,-0.00030517578125,0.99578857421875
1629376452252,-0.08233642578125,0.0008544921875,0.996337890625
1629376452283,-0.0853271484375,-0.00115966796875,0.99176025390625
1629376452283,-0.08624267578125,-0.00054931640625,0.98931884765625
1629376452283,-0.08660888671875,-0.0013427734375,0.99200439453125
1629376452471,-0.08416748046875,0.0030517578125,0.99761962890625
1629376452471,-0.0799560546875,0.00897216796875,0.99853515625
1629376452471,-0.08563232421875,0.00665283203125,0.99957275390625
1629376452502,-0.0809326171875,0.0020751953125,0.9962158203125
1629376452502,-0.07818603515625,0.0052490234375,0.99713134765625
1629376452518,-0.08184814453125,-0.0003662109375,0.9984130859375
1629376452596,-0.08319091796875,-0.0020751953125,0.99725341796875
1629376452596,-0.08306884765625,0.00177001953125,0.99993896484375
1629376452596,-0.08319091796875,0.00152587890625,0.9927978515625
1629376452611,-0.08233642578125,0.00518798828125,0.99853515625
1629376452611,-0.0838623046875,0.00146484375,0.9967041015625
1629376452611,-0.08154296875,0.0040283203125,1.001953125
1629376452658,-0.0850830078125,0.0028076171875,0.99371337890625
1629376452658,-0.087646484375,-0.002685546875,0.992431640625
1629376452658,-0.0850830078125,-0.00048828125,0.99114990234375
1629376452674,-0.0875244140625,0.0006103515625,0.9962158203125
1629376452674,-0.08624267578125,0.0003662109375,0.99859619140625
1629376452674,-0.087158203125,0.00238037109375,0.998046875
1629376452721,-0.0843505859375,0.0037841796875,0.99493408203125
1629376452721,-0.08807373046875,0.0067138671875,0.9942626953125
1629376452721,-0.08453369140625,0.0062255859375,0.99786376953125
1629376452799,-0.08685302734375,0.0040283203125,0.99530029296875
1629376452799,-0.0902099609375,0.00445556640625,0.99591064453125
1629376452799,-0.08673095703125,0.00640869140625,0.99359130859375
1629376452893,-0.085693359375,0.00518798828125,0.99627685546875
1629376452893,-0.08746337890625,0.0018310546875,0.9940185546875
1629376452893,-0.0850830078125,0.00164794921875,0.9964599609375
1629376452955,-0.08624267578125,0.00396728515625,0.99346923828125
1629376452955,-0.0858154296875,-0.00286865234375,0.99798583984375
1629376452955,-0.0858154296875,0.00213623046875,1.00006103515625
1629376453017,-0.0828857421875,-0.00103759765625,0.99810791015625
1629376453033,-0.08380126953125,-0.00439453125,0.99432373046875
1629376453033,-0.0848388671875,-0.003662109375,0.99169921875
1629376453033,-0.08282470703125,-0.0029296875,0.993408203125
1629376453033,-0.08343505859375,-0.00421142578125,0.99945068359375
1629376453033,-0.083740234375,-0.00225830078125,0.99578857421875
1629376453096,-0.08837890625,0.00238037109375,0.99749755859375
1629376453096,-0.08575439453125,-0.00146484375,0.99749755859375
1629376453096,-0.0836181640625,0.00018310546875,0.99346923828125
1629376453158,-0.09075927734375,-0.0020751953125,0.990234375
1629376453158,-0.087646484375,-0.00341796875,0.99957275390625
1629376453158,-0.08544921875,0.00091552734375,0.98822021484375
1629376453268,-0.08642578125,0.0045166015625,0.99566650390625
1629376453268,-0.08538818359375,0.00506591796875,0.9970703125
1629376453268,-0.0870361328125,0.00445556640625,0.99542236328125
1629376453314,-0.08209228515625,0.005615234375,0.9974365234375
1629376453314,-0.08575439453125,0.0042724609375,0.9986572265625
1629376453314,-0.0821533203125,0.0025634765625,1.00006103515625
1629376453392,-0.08807373046875,0.00335693359375,0.99310302734375
1629376453392,-0.084716796875,0.001708984375,0.99530029296875
1629376453392,-0.08612060546875,0.00201416015625,0.9984130859375
1629376453408,-0.090576171875,0.00341796875,0.99072265625
1629376453408,-0.08709716796875,0.003662109375,0.99249267578125
1629376453408,-0.08746337890625,0.0052490234375,1.00164794921875
1629376453424,-0.08746337890625,-0.00103759765625,0.992919921875
1629376453424,-0.08746337890625,0.0015869140625,0.99713134765625
1629376453424,-0.09075927734375,6.103515625e-05,0.99072265625
1629376453502,-0.0877685546875,0.00201416015625,0.992431640625
1629376453502,-0.0845947265625,0.001953125,0.99676513671875
1629376453502,-0.08636474609375,0.00390625,0.99517822265625
1629376453580,-0.088134765625,0.007568359375,0.9951171875
1629376453580,-0.084716796875,0.00445556640625,0.99932861328125
1629376453674,-0.0843505859375,0.00091552734375,0.9952392578125
1629376453674,-0.08489990234375,6.103515625e-05,0.99761962890625
1629376453674,-0.08392333984375,-0.0010986328125,0.99432373046875
1629376453674,-0.08551025390625,0.00213623046875,0.99603271484375
1629376453674,-0.08294677734375,0.0008544921875,0.996337890625
1629376453674,-0.08441162109375,0.001220703125,0.99530029296875
1629376453720,-0.0848388671875,0.00250244140625,0.9947509765625
1629376453720,-0.08233642578125,0.00335693359375,0.99664306640625
1629376453720,-0.0841064453125,0.00030517578125,0.99591064453125
1629376453830,-0.08050537109375,-0.00067138671875,1.00079345703125
1629376453830,-0.08489990234375,-0.00262451171875,0.99737548828125
1629376453830,-0.0821533203125,-0.00164794921875,0.99591064453125
1629376453845,-0.08392333984375,0.0048828125,0.99993896484375
1629376453845,-0.0836181640625,-0.000244140625,1.001708984375
1629376453845,-0.08447265625,-0.0009765625,0.99896240234375
1629376453926,-0.0811767578125,0.0032958984375,0.99798583984375
1629376453926,-0.08489990234375,0.0035400390625,1.0001220703125
1629376453926,-0.08233642578125,0.0030517578125,0.99456787109375
1629376454035,-0.0877685546875,-0.0018310546875,0.99310302734375
1629376454035,-0.0865478515625,0.0025634765625,0.99822998046875
1629376454035,-0.0892333984375,0.003173828125,0.987548828125
1629376454082,-0.0811767578125,0.0091552734375,0.9971923828125
1629376454082,-0.0845947265625,0.0040283203125,0.99298095703125
1629376454082,-0.08184814453125,0.00567626953125,0.9937744140625
1629376454129,-0.07891845703125,0.0069580078125,0.9981689453125
1629376454129,-0.08197021484375,0.00274658203125,1.0001220703125
1629376454129,-0.08074951171875,0.0062255859375,1.0018310546875
1629376454145,-0.08544921875,-0.00115966796875,0.9962158203125
1629376454145,-0.08404541015625,0.00067138671875,0.999755859375
1629376454145,-0.0882568359375,0.0001220703125,0.99530029296875
1629376454254,-0.08636474609375,0.00372314453125,0.9970703125
1629376454254,-0.08477783203125,-6.103515625e-05,0.99365234375
1629376454254,-0.092041015625,-0.0023193359375,0.99261474609375
1629376454301,-0.08880615234375,0.00152587890625,0.990478515625
1629376454301,-0.0869140625,0.00335693359375,0.9951171875
1629376454301,-0.08502197265625,-0.0008544921875,0.985595703125
1629376454348,-0.09051513671875,0.00347900390625,0.9940185546875
1629376454363,-0.08349609375,0.0006103515625,0.99847412109375
1629376454363,-0.08355712890625,0.001708984375,1.003662109375
1629376454363,-0.0819091796875,0.0042724609375,1.00238037109375
1629376454363,-0.08172607421875,0.00079345703125,1.00079345703125
1629376454363,-0.0819091796875,0.00262451171875,1.00421142578125
1629376454426,-0.08624267578125,0.00238037109375,0.99627685546875
1629376454426,-0.08038330078125,0.0042724609375,1.00616455078125
1629376454426,-0.08258056640625,0.0040283203125,1.00030517578125
1629376454582,-0.08477783203125,0.00433349609375,0.9947509765625
1629376454582,-0.08465576171875,0.006103515625,0.9931640625
1629376454582,-0.0870361328125,0.0030517578125,0.99298095703125
1629376454598,-0.08734130859375,0.00640869140625,0.98931884765625
1629376454598,-0.089599609375,0.00262451171875,0.99151611328125
1629376454598,-0.08892822265625,0.00469970703125,0.99041748046875
1629376454614,-0.084228515625,-0.002197265625,0.99267578125
1629376454614,-0.08154296875,-0.0045166015625,0.99658203125
1629376454614,-0.0885009765625,0.00115966796875,0.9931640625
1629376454707,-0.0791015625,-0.001708984375,0.99871826171875
1629376454707,-0.07861328125,0.00189208984375,0.999267578125
1629376454707,-0.08184814453125,-0.0018310546875,0.99871826171875
1629376454770,-0.07696533203125,-0.00048828125,1.0023193359375
1629376454770,-0.0758056640625,-0.001220703125,1.00103759765625
1629376454770,-0.0810546875,0.0001220703125,1.0020751953125
1629376454786,-0.079345703125,0.0003662109375,1.00146484375
1629376454801,-0.07952880859375,-0.00164794921875,1.00018310546875
1629376454801,-0.08233642578125,-0.00152587890625,0.9921875
1629376454903,-0.086669921875,0.005859375,0.9974365234375
1629376454903,-0.087158203125,-0.00140380859375,0.99468994140625
1629376454903,-0.084228515625,0.0009765625,0.99896240234375
1629376455060,-0.08709716796875,0.0015869140625,0.99029541015625
1629376455060,-0.08587646484375,-0.00640869140625,0.9906005859375
1629376455060,-0.08575439453125,0.00653076171875,0.9947509765625
1629376455075,-0.078369140625,0.00750732421875,0.99481201171875
1629376455075,-0.07952880859375,0.00347900390625,0.99957275390625
1629376455075,-0.083740234375,0.00469970703125,0.99493408203125
1629376455106,-0.083740234375,0.0079345703125,0.99859619140625
1629376455106,-0.083740234375,0.00830078125,0.99468994140625
1629376455106,-0.08612060546875,0.0042724609375,0.99945068359375
1629376455138,-0.08502197265625,0.00555419921875,0.9918212890625
1629376455138,-0.0859375,0.004150390625,0.99407958984375
1629376455138,-0.08575439453125,0.00494384765625,0.994873046875
1629376455216,-0.08447265625,0.00579833984375,1.00079345703125
1629376455216,-0.0855712890625,0.006103515625,0.9931640625
1629376455216,-0.0867919921875,0.00677490234375,0.9979248046875
1629376455325,-0.08819580078125,0.00189208984375,0.9937744140625
1629376455325,-0.0889892578125,0.001953125,0.99285888671875
1629376455325,-0.08807373046875,0.004638671875,0.991455078125
1629376455372,-0.08734130859375,0.00408935546875,0.99639892578125
1629376455372,-0.0892333984375,0.0008544921875,0.99609375
1629376455388,-0.08203125,0.00445556640625,0.99798583984375
1629376455435,-0.088134765625,0.004150390625,0.99591064453125
1629376455435,-0.08392333984375,0.0028076171875,0.998046875
1629376455435,-0.0845947265625,0.0062255859375,0.99603271484375
1629376455622,-0.083984375,0.003173828125,0.99591064453125
1629376455622,-0.0816650390625,-0.00067138671875,0.99981689453125
1629376455622,-0.0848388671875,0.00042724609375,0.9989013671875
1629376455638,-0.08258056640625,-0.0001220703125,0.99737548828125
1629376455638,-0.08587646484375,0.0010986328125,0.99517822265625
1629376455638,-0.08697509765625,0.0028076171875,0.99774169921875
1629376455653,-0.08233642578125,0.00384521484375,0.99969482421875
1629376455653,-0.08502197265625,0.005615234375,0.99713134765625
1629376455653,-0.08404541015625,0.0059814453125,0.99755859375
1629376455684,-0.083251953125,0.0006103515625,0.99627685546875
1629376455684,-0.0810546875,0.0023193359375,0.9998779296875
1629376455684,-0.08355712890625,0.0028076171875,0.994873046875
1629376455731,-0.08642578125,0.003173828125,0.9964599609375
1629376455731,-0.086181640625,0.00042724609375,0.99005126953125
1629376455731,-0.0892333984375,0.0013427734375,0.99530029296875
1629376455747,-0.0826416015625,0.0023193359375,0.99737548828125
1629376455747,-0.08355712890625,0.002197265625,0.99560546875
1629376455747,-0.08526611328125,0.004638671875,0.99371337890625
1629376455888,-0.08612060546875,-0.0001220703125,1.00274658203125
1629376455888,-0.08563232421875,-0.003662109375,0.99859619140625
1629376455888,-0.08404541015625,-0.00042724609375,0.9984130859375
1629376455919,-0.08721923828125,-0.00238037109375,0.991455078125
1629376455919,-0.08685302734375,-0.00018310546875,0.9959716796875
1629376455919,-0.08477783203125,0.00238037109375,0.9984130859375
1629376455967,-0.087646484375,0.0035400390625,0.9951171875
1629376455967,-0.08935546875,0.0087890625,0.99835205078125
1629376455967,-0.089599609375,0.0008544921875,0.9918212890625
1629376455998,-0.0859375,0.00311279296875,0.99493408203125
1629376455998,-0.0889892578125,0.00750732421875,0.9971923828125
1629376456014,-0.0889892578125,0.00555419921875,0.9945068359375
1629376456014,-0.09271240234375,0.0093994140625,0.99432373046875
1629376456014,-0.08587646484375,0.004150390625,0.99456787109375
1629376456014,-0.0867919921875,0.0098876953125,0.99493408203125
1629376456155,-0.089111328125,0.00567626953125,0.99578857421875
1629376456155,-0.08538818359375,0.0057373046875,0.9952392578125
1629376456155,-0.0902099609375,0.00396728515625,0.9951171875
1629376456202,-0.08905029296875,0.00335693359375,1.00048828125
1629376456217,-0.0919189453125,0.0059814453125,0.998291015625
1629376456248,-0.0888671875,0.00390625,0.994384765625
1629376456248,-0.0867919921875,0.00213623046875,0.99676513671875
1629376456248,-0.08642578125,0.003662109375,0.99700927734375
1629376456280,-0.08551025390625,0.00439453125,1.0001220703125
1629376456280,-0.0858154296875,0.00299072265625,0.9984130859375
1629376456295,-0.08404541015625,0.00830078125,1.0003662109375
1629376456327,-0.08770751953125,0.00244140625,0.9976806640625
1629376456327,-0.0882568359375,0.002685546875,0.9927978515625
1629376456327,-0.08294677734375,0.00433349609375,0.9991455078125
1629376456342,-0.08673095703125,0.001708984375,0.99566650390625
1629376456342,-0.0858154296875,0.00347900390625,0.997314453125
1629376456342,-0.08624267578125,0.00213623046875,0.99566650390625
1629376456405,-0.08984375,0.0023193359375,0.99639892578125
1629376456420,-0.0833740234375,0.00115966796875,0.9959716796875
1629376456420,-0.08502197265625,0.0001220703125,0.99578857421875
1629376456451,-0.08526611328125,0.00372314453125,0.999755859375
1629376456451,-0.08563232421875,0.00250244140625,0.99591064453125
1629376456451,-0.0855712890625,0.00408935546875,0.99560546875
1629376456498,-0.0867919921875,0.00299072265625,0.9970703125
1629376456498,-0.082763671875,0.001220703125,1.0008544921875
1629376456514,-0.083984375,0.001708984375,0.9984130859375
1629376456592,-0.0836181640625,0.0032958984375,0.99700927734375
1629376456592,-0.08575439453125,0.00311279296875,0.99957275390625
1629376456592,-0.08441162109375,0.00262451171875,0.99774169921875
1629376456639,-0.087646484375,0.0057373046875,0.99676513671875
1629376456639,-0.08746337890625,0.0035400390625,0.99566650390625
1629376456639,-0.0859375,0.00537109375,0.99261474609375
1629376456750,-0.08721923828125,0.0008544921875,0.99169921875
1629376456750,-0.090087890625,0.0040283203125,0.9954833984375
1629376456750,-0.0906982421875,0.0015869140625,0.99981689453125
1629376456797,-0.08502197265625,-0.00079345703125,0.99566650390625
1629376456797,-0.09124755859375,0.00146484375,0.99658203125
1629376456797,-0.09234619140625,-0.00164794921875,0.99871826171875
1629376456845,-0.0887451171875,-0.000732421875,0.99139404296875
1629376456845,-0.08642578125,0.00457763671875,0.9903564453125
1629376456845,-0.0894775390625,-0.00555419921875,0.99432373046875
1629376456860,-0.08233642578125,0.00457763671875,0.99566650390625
1629376456860,-0.08575439453125,0.0068359375,0.99859619140625
1629376456860,-0.08526611328125,0.00494384765625,1.0001220703125
1629376456922,-0.08416748046875,0.00555419921875,1.0001220703125
1629376456922,-0.0833740234375,0.0035400390625,0.99609375
1629376456922,-0.08331298828125,0.0048828125,0.99951171875
1629376457000,-0.0819091796875,0.0028076171875,0.993408203125
1629376457000,-0.08355712890625,0.0023193359375,0.99261474609375
1629376457000,-0.08526611328125,0.0010986328125,0.9976806640625
1629376457047,-0.0858154296875,0.001953125,0.99658203125
1629376457047,-0.0849609375,0.00494384765625,0.9967041015625
1629376457047,-0.087158203125,0.00250244140625,0.99688720703125
1629376457127,-0.0849609375,0.00299072265625,0.99774169921875
1629376457127,-0.0906982421875,0.00213623046875,0.99560546875
1629376457127,-0.0872802734375,-0.0009765625,0.99505615234375
1629376457174,-0.0872802734375,0.0020751953125,0.997314453125
1629376457174,-0.087158203125,0.0035400390625,0.997802734375
1629376457174,-0.08795166015625,0.00201416015625,0.99359130859375
1629376457235,-0.0821533203125,0.0015869140625,0.9979248046875
1629376457235,-0.0860595703125,0.0018310546875,0.99737548828125
1629376457235,-0.08642578125,0.00244140625,1.00054931640625
1629376457315,-0.08917236328125,-0.00018310546875,0.9931640625
1629376457315,-0.08648681640625,0.00408935546875,0.9967041015625
1629376457315,-0.0865478515625,0.002197265625,0.9979248046875
1629376457328,-0.09014892578125,0.0028076171875,0.994384765625
1629376457328,-0.08526611328125,0.00347900390625,0.9951171875
1629376457328,-0.08642578125,0.00469970703125,0.99359130859375
1629376457442,-0.084716796875,0.0047607421875,0.99554443359375
1629376457442,-0.08673095703125,0.00555419921875,0.992431640625
1629376457442,-0.09027099609375,0.00286865234375,0.99127197265625
1629376457485,-0.08355712890625,0.00457763671875,0.99615478515625
1629376457485,-0.0849609375,0.00445556640625,0.99603271484375
1629376457485,-0.08428955078125,0.00408935546875,0.9984130859375
1629376457532,-0.0836181640625,0.00592041015625,1.00360107421875
1629376457532,-0.08502197265625,0.00604248046875,1.00421142578125
1629376457565,-0.08465576171875,0.0052490234375,1.00421142578125
1629376457578,-0.08642578125,0.0028076171875,1.00360107421875
1629376457578,-0.08477783203125,0.0029296875,1.00286865234375
1629376457594,-0.0869140625,0.00311279296875,0.9942626953125
1629376457672,-0.09173583984375,0.00909423828125,0.99444580078125
1629376457672,-0.0875244140625,0.00732421875,0.990234375
1629376457672,-0.08837890625,0.00665283203125,0.99249267578125
1629376457719,-0.088134765625,0.0086669921875,0.9967041015625
1629376457719,-0.08636474609375,0.0068359375,0.99517822265625
1629376457820,-0.091064453125,-0.0028076171875,0.99517822265625
1629376457820,-0.08709716796875,0.00079345703125,0.9918212890625
1629376457820,-0.0941162109375,0.0013427734375,0.99462890625
1629376457836,-0.087158203125,0.00335693359375,0.99774169921875
1629376457836,-0.085693359375,-0.00128173828125,0.99176025390625
1629376457836,-0.08734130859375,-0.0015869140625,0.99102783203125
1629376457867,-0.08172607421875,0.00653076171875,1.00311279296875
1629376457883,-0.0797119140625,0.00421142578125,1.0009765625
1629376457883,-0.07891845703125,0.00213623046875,1.00018310546875
1629376458023,-0.0780029296875,0.00213623046875,1.00067138671875
1629376458039,-0.08465576171875,-0.00042724609375,0.99920654296875
1629376458039,-0.078857421875,0.00201416015625,1.0018310546875
1629376458148,-0.086181640625,0.00091552734375,0.9935302734375
1629376458148,-0.08929443359375,-6.103515625e-05,0.99566650390625
1629376458148,-0.0865478515625,0.00213623046875,0.98919677734375
1629376458179,-0.08740234375,0.00335693359375,0.99774169921875
1629376458179,-0.08721923828125,0.00262451171875,0.99517822265625
1629376458179,-0.08502197265625,-0.00079345703125,0.98760986328125
1629376458304,-0.08685302734375,0.002685546875,0.9930419921875
1629376458304,-0.087646484375,0.00323486328125,0.9930419921875
1629376458304,-0.08624267578125,-0.0006103515625,0.99481201171875
1629376458432,-0.08477783203125,0.00537109375,0.99505615234375
1629376458432,-0.08221435546875,0.0047607421875,1.004638671875
1629376458432,-0.08599853515625,0.00506591796875,0.99920654296875
1629376458463,-0.08587646484375,0.0045166015625,1.0018310546875
1629376458463,-0.0867919921875,0.006591796875,0.998046875
1629376458463,-0.08447265625,0.00634765625,0.99835205078125
1629376458494,-0.0870361328125,0.00592041015625,1.002685546875
1629376458494,-0.0865478515625,0.00537109375,0.997314453125
1629376458494,-0.088134765625,0.00079345703125,0.996337890625
1629376458525,-0.0863037109375,-0.00042724609375,0.993896484375
1629376458525,-0.08843994140625,-0.002197265625,0.9942626953125
1629376458525,-0.0867919921875,-0.00115966796875,0.9930419921875
1629376458666,-0.0830078125,-0.0010986328125,0.99432373046875
1629376458666,-0.08892822265625,0.0025634765625,0.99462890625
1629376458666,-0.09014892578125,-0.001708984375,0.99169921875
1629376458728,-0.0885009765625,0.0013427734375,0.9923095703125
1629376458728,-0.0865478515625,0.0006103515625,0.99530029296875
1629376458728,-0.08831787109375,-0.00250244140625,0.9954833984375
1629376458744,-0.0858154296875,-0.0008544921875,0.99639892578125
1629376458744,-0.08697509765625,-0.00018310546875,0.99658203125
1629376458744,-0.0850830078125,0.0006103515625,0.99658203125
1629376458791,-0.082763671875,0.002197265625,0.99749755859375
1629376458791,-0.0838623046875,0.00396728515625,1.00018310546875
1629376458791,-0.08270263671875,0.00311279296875,1.00177001953125
1629376458820,-0.0819091796875,-0.00244140625,0.9991455078125
1629376458820,-0.083740234375,-0.00030517578125,1.00274658203125
1629376458821,-0.08673095703125,-0.00213623046875,0.99932861328125
1629376458857,-0.09307861328125,0.003662109375,0.99334716796875
1629376458857,-0.087158203125,0.0032958984375,0.99609375
1629376458857,-0.08819580078125,-0.0008544921875,1.0
1629376458873,-0.09185791015625,0.0037841796875,0.985107421875
1629376458873,-0.09112548828125,0.0081787109375,0.986328125
1629376458873,-0.08734130859375,0.00189208984375,0.98980712890625
1629376458967,-0.0845947265625,-0.002197265625,0.99517822265625
1629376458982,-0.08551025390625,-0.00506591796875,0.99822998046875
1629376458982,-0.08502197265625,-0.004638671875,0.99908447265625
1629376459029,-0.08251953125,0.00286865234375,0.99658203125
1629376459029,-0.08111572265625,0.00103759765625,0.9970703125
1629376459029,-0.0867919921875,0.000732421875,0.99908447265625
1629376459045,-0.090087890625,0.0032958984375,0.99664306640625
1629376459045,-0.08172607421875,0.00213623046875,0.9969482421875
1629376459045,-0.0811767578125,0.00506591796875,0.99700927734375
1629376459061,-0.08587646484375,0.003662109375,0.9957275390625
1629376459061,-0.08526611328125,0.00457763671875,0.99639892578125
1629376459061,-0.0860595703125,0.00238037109375,0.99920654296875
1629376459186,-0.0836181640625,0.00146484375,0.9952392578125
1629376459186,-0.0914306640625,0.0040283203125,0.99169921875
1629376459186,-0.089599609375,0.00390625,0.996337890625
1629376459201,-0.08807373046875,0.00323486328125,0.99212646484375
1629376459201,-0.0882568359375,0.004150390625,0.99444580078125
1629376459201,-0.09100341796875,0.00103759765625,0.99505615234375
1629376459217,-0.08929443359375,0.002685546875,0.99298095703125
1629376459217,-0.0836181640625,0.0020751953125,0.99334716796875
1629376459232,-0.08575439453125,0.007568359375,0.9930419921875
1629376459248,-0.08917236328125,0.00311279296875,0.99896240234375
1629376459248,-0.0845947265625,0.00408935546875,0.9964599609375
1629376459248,-0.08404541015625,0.0042724609375,0.99468994140625
1629376459311,-0.08575439453125,0.00384521484375,0.996337890625
1629376459311,-0.0848388671875,0.0054931640625,0.998291015625
1629376459311,-0.08343505859375,0.004638671875,0.99371337890625
1629376459482,-0.0872802734375,0.002197265625,0.9989013671875
1629376459482,-0.0833740234375,0.00311279296875,0.99652099609375
1629376459482,-0.0826416015625,0.00323486328125,0.99761962890625
1629376459576,-0.08489990234375,0.0028076171875,0.99774169921875
1629376459576,-0.084228515625,0.00048828125,0.99652099609375
1629376459576,-0.082275390625,-0.000732421875,0.99945068359375
1629376459592,-0.08380126953125,0.0020751953125,0.99688720703125
1629376459592,-0.0828857421875,0.00140380859375,1.0003662109375
1629376459592,-0.0826416015625,0.00103759765625,0.99609375
1629376459639,-0.08258056640625,0.00396728515625,1.0008544921875
1629376459639,-0.0787353515625,0.00177001953125,0.9957275390625
1629376459639,-0.0831298828125,-0.00030517578125,0.99835205078125
1629376459670,-0.08966064453125,0.0020751953125,0.991943359375
1629376459670,-0.0885009765625,-0.00018310546875,0.99224853515625
1629376459670,-0.08831787109375,0.0113525390625,0.98992919921875
1629376459670,-0.08795166015625,-0.00103759765625,1.00201416015625
1629376459670,-0.08441162109375,0.0018310546875,0.99908447265625
1629376459685,-0.08544921875,0.01690673828125,0.9898681640625
1629376459780,-0.08477783203125,0.00640869140625,0.9967041015625
1629376459780,-0.0831298828125,0.01220703125,0.99658203125
1629376459780,-0.08062744140625,0.002685546875,0.99908447265625
1629376459795,-0.08343505859375,-0.00238037109375,0.997314453125
1629376459795,-0.0831298828125,0.0008544921875,0.9947509765625
1629376459795,-0.08331298828125,0.00115966796875,0.99603271484375
1629376459845,-0.08489990234375,0.00177001953125,1.002197265625
1629376459845,-0.08551025390625,0.002685546875,0.9957275390625
1629376459845,-0.08514404296875,0.0010986328125,0.99755859375
1629376459876,-0.08416748046875,0.00164794921875,0.99462890625
1629376459876,-0.0863037109375,-0.0006103515625,0.99761962890625
1629376459876,-0.08917236328125,-0.0015869140625,0.997802734375
1629376459954,-0.08465576171875,0.00201416015625,0.99322509765625
1629376459954,-0.08636474609375,0.0001220703125,0.99365234375
1629376459954,-0.08489990234375,-0.00128173828125,0.99786376953125
1629376460032,-0.086669921875,0.001220703125,0.99658203125
1629376460032,-0.08477783203125,-0.00067138671875,0.99798583984375
1629376460032,-0.08709716796875,0.00140380859375,0.996826171875
1629376460064,-0.08599853515625,0.00360107421875,0.9937744140625
1629376460064,-0.08612060546875,0.00152587890625,0.99676513671875
1629376460064,-0.0865478515625,0.00103759765625,0.99609375
1629376460126,-0.09088134765625,0.00128173828125,0.99310302734375
1629376460126,-0.08807373046875,-0.0006103515625,0.9921875
1629376460126,-0.08642578125,0.00347900390625,0.99749755859375
1629376460298,-0.087158203125,-6.103515625e-05,0.99591064453125
1629376460298,-0.086181640625,0.0037841796875,0.99603271484375
1629376460315,-0.08612060546875,0.00323486328125,0.99835205078125
1629376460370,-0.083251953125,0.00372314453125,0.996337890625
1629376460370,-0.08599853515625,0.001220703125,0.99822998046875
1629376460370,-0.0819091796875,0.00323486328125,0.99578857421875
1629376460464,-0.08160400390625,0.004150390625,0.99530029296875
1629376460464,-0.08099365234375,-0.00048828125,0.99993896484375
1629376460464,-0.08221435546875,0.003662109375,0.99871826171875
1629376460511,-0.08477783203125,0.0018310546875,0.99700927734375
1629376460511,-0.08331298828125,0.00390625,1.001220703125
1629376460511,-0.08648681640625,0.0028076171875,0.99871826171875
1629376460589,-0.08001708984375,0.00213623046875,0.99395751953125
1629376460589,-0.08465576171875,0.0025634765625,0.99798583984375
1629376460589,-0.0853271484375,0.00103759765625,0.99322509765625
1629376460604,-0.084228515625,0.00347900390625,1.00140380859375
1629376460604,-0.08599853515625,-0.0001220703125,0.9979248046875
1629376460604,-0.084716796875,0.00244140625,1.0006103515625
1629376460667,-0.08209228515625,0.00823974609375,0.9990234375
1629376460667,-0.084716796875,0.001953125,0.99639892578125
1629376460667,-0.0867919921875,0.00384521484375,0.99658203125
1629376460682,-0.08203125,0.0048828125,0.99639892578125
1629376460682,-0.08502197265625,0.00537109375,0.999755859375
1629376460682,-0.08416748046875,0.0050048828125,0.996826171875
1629376460729,-0.08599853515625,0.001220703125,0.9935302734375
1629376460729,-0.08465576171875,0.006103515625,0.99560546875
1629376460729,-0.0885009765625,0.00616455078125,0.994873046875
1629376460761,-0.08782958984375,0.001708984375,0.9918212890625
1629376460761,-0.08563232421875,-0.00115966796875,0.9912109375
1629376460761,-0.09075927734375,-0.000732421875,0.99041748046875
1629376460776,-0.08941650390625,0.0013427734375,0.998046875
1629376460776,-0.09124755859375,0.001953125,0.99713134765625
1629376460776,-0.09259033203125,0.00189208984375,0.9947509765625
1629376460857,-0.0863037109375,0.0040283203125,0.99786376953125
1629376460857,-0.08319091796875,0.0042724609375,0.995849609375
1629376460857,-0.08685302734375,0.0015869140625,0.98870849609375
1629376460935,-0.08575439453125,0.00469970703125,1.00091552734375
1629376460935,-0.0843505859375,0.0009765625,1.00335693359375
1629376460935,-0.086669921875,0.00640869140625,0.99945068359375
1629376460966,-0.0858154296875,0.00341796875,0.99609375
1629376460966,-0.083984375,0.0028076171875,0.9984130859375
1629376460966,-0.09149169921875,0.00408935546875,0.99554443359375
1629376461013,-0.08905029296875,0.00152587890625,0.99395751953125
1629376461013,-0.0875244140625,0.0045166015625,0.99493408203125
1629376461013,-0.08349609375,0.005126953125,0.9945068359375
1629376461076,-0.08837890625,0.00042724609375,0.99383544921875
1629376461076,-0.0906982421875,0.001708984375,0.9967041015625
1629376461076,-0.08935546875,0.00225830078125,0.99639892578125
1629376461185,-0.09014892578125,0.00140380859375,0.99267578125
1629376461185,-0.09063720703125,0.0042724609375,0.995361328125
1629376461185,-0.087646484375,0.00299072265625,0.99298095703125
1629376461217,-0.08538818359375,0.001953125,0.99664306640625
1629376461217,-0.0858154296875,0.00335693359375,0.9964599609375
1629376461217,-0.0897216796875,0.00347900390625,0.9976806640625
1629376461248,-0.08306884765625,-0.000732421875,0.994873046875
1629376461248,-0.08843994140625,0.0006103515625,0.99798583984375
1629376461248,-0.08447265625,0.00164794921875,0.9990234375
1629376461310,-0.0875244140625,-0.002197265625,0.9906005859375
1629376461310,-0.09014892578125,0.005615234375,0.9951171875
1629376461310,-0.09051513671875,0.0047607421875,1.00030517578125
1629376461326,-0.091796875,0.000732421875,0.98980712890625
1629376461341,-0.08819580078125,0.0023193359375,0.99114990234375
1629376461341,-0.08599853515625,0.00860595703125,1.0006103515625
1629376461482,-0.08636474609375,0.0020751953125,0.99224853515625
1629376461482,-0.08477783203125,0.00457763671875,0.99554443359375
1629376461482,-0.08782958984375,0.00421142578125,0.99951171875
1629376461482,-0.08685302734375,0.00482177734375,1.00439453125
1629376461482,-0.091064453125,0.0025634765625,0.996826171875
1629376461482,-0.08740234375,0.00390625,0.991943359375
1629376461529,-0.09197998046875,-0.00042724609375,0.9931640625
1629376461529,-0.0909423828125,-0.000244140625,0.993896484375
1629376461529,-0.08892822265625,-0.00048828125,0.99365234375
1629376461591,-0.09259033203125,0.0035400390625,0.99346923828125
1629376461591,-0.09515380859375,0.00408935546875,0.99859619140625
1629376461591,-0.09344482421875,0.00238037109375,0.996826171875
1629376461747,-0.09259033203125,0.000732421875,0.9945068359375
1629376461747,-0.091552734375,-0.0001220703125,0.99420166015625
1629376461747,-0.08868408203125,0.002685546875,0.9990234375
1629376461779,-0.089111328125,0.005126953125,1.00128173828125
1629376461779,-0.0894775390625,0.0076904296875,0.999267578125
1629376461779,-0.0888671875,0.00665283203125,0.9964599609375
1629376461939,-0.0906982421875,0.0032958984375,0.99395751953125
1629376461939,-0.08978271484375,0.0018310546875,0.99090576171875
1629376461939,-0.09173583984375,0.00286865234375,0.99462890625
1629376461970,-0.08892822265625,0.0013427734375,0.99114990234375
1629376461970,-0.09088134765625,-0.0003662109375,0.99090576171875
1629376461970,-0.0927734375,0.00335693359375,0.9935302734375
1629376461985,-0.089111328125,0.0029296875,0.996337890625
1629376461985,-0.0909423828125,0.0003662109375,0.9942626953125
1629376461985,-0.090087890625,0.00299072265625,0.99237060546875
1629376462001,-0.08544921875,0.00177001953125,1.0001220703125
1629376462001,-0.087158203125,0.0023193359375,0.9935302734375
1629376462001,-0.08538818359375,0.00457763671875,0.99609375
1629376462032,-0.085693359375,0.000244140625,0.99822998046875
1629376462032,-0.082275390625,0.002197265625,0.99981689453125
1629376462032,-0.08172607421875,0.0042724609375,0.9993896484375
1629376462048,-0.09210205078125,0.00384521484375,0.998291015625
1629376462048,-0.09051513671875,0.00311279296875,0.9981689453125
1629376462048,-0.0859375,0.0062255859375,1.00115966796875
1629376462173,-0.09375,-0.00067138671875,0.99151611328125
1629376462173,-0.0902099609375,0.00286865234375,0.99188232421875
1629376462173,-0.09423828125,0.004150390625,0.9886474609375
1629376462188,-0.08538818359375,0.0086669921875,0.9954833984375
1629376462188,-0.08929443359375,0.0079345703125,0.99420166015625
1629376462188,-0.0863037109375,0.00372314453125,0.995849609375
1629376462267,-0.093994140625,0.0028076171875,0.99285888671875
1629376462267,-0.08642578125,0.00506591796875,0.99542236328125
1629376462267,-0.0867919921875,0.0037841796875,0.99127197265625
1629376462298,-0.08990478515625,0.00146484375,0.9971923828125
1629376462298,-0.09112548828125,0.00616455078125,0.99871826171875
1629376462360,-0.08831787109375,0.00396728515625,1.0003662109375
1629376462360,-0.091796875,0.002685546875,1.0009765625
1629376462360,-0.08599853515625,0.00262451171875,0.99951171875
1629376462423,-0.0902099609375,0.0050048828125,0.9976806640625
1629376462423,-0.08526611328125,0.00482177734375,0.99578857421875
1629376462423,-0.0926513671875,0.004638671875,0.99456787109375
1629376462517,-0.085693359375,0.00689697265625,0.99688720703125
1629376462517,-0.08636474609375,0.00250244140625,0.99609375
1629376462517,-0.08941650390625,0.00701904296875,0.99664306640625
1629376462548,-0.08758544921875,0.00390625,0.99359130859375
1629376462548,-0.084716796875,0.00531005859375,0.99505615234375
1629376462548,-0.087890625,0.00592041015625,0.9981689453125
1629376462563,-0.0899658203125,-0.0008544921875,0.9940185546875
1629376462563,-0.089111328125,0.003173828125,0.99371337890625
1629376462563,-0.0855712890625,0.001953125,0.99700927734375
1629376462610,-0.08868408203125,-0.00299072265625,0.99700927734375
1629376462610,-0.0909423828125,0.001708984375,0.99334716796875
1629376462941,-0.083740234375,0.00079345703125,0.99957275390625
1629376462941,-0.0845947265625,-0.00421142578125,0.99432373046875
1629376462941,-0.08544921875,-0.00299072265625,0.9964599609375
1629376463128,-0.08392333984375,0.0013427734375,0.99847412109375
1629376463128,-0.08404541015625,-0.00048828125,0.9989013671875
1629376463144,-0.08642578125,-0.00103759765625,0.9969482421875
1629376463144,-0.08648681640625,0.0029296875,1.00067138671875
1629376463144,-0.09130859375,0.00390625,0.99835205078125
1629376463160,-0.08984375,-0.0010986328125,0.99444580078125
1629376463175,-0.09222412109375,0.00128173828125,0.98822021484375
1629376463175,-0.0882568359375,0.0028076171875,0.988525390625
1629376463253,-0.08685302734375,0.00640869140625,0.99322509765625
1629376463253,-0.081787109375,0.00408935546875,0.9986572265625
1629376463253,-0.08245849609375,0.0052490234375,0.998046875
1629376463269,-0.082763671875,0.001953125,0.999267578125
1629376463269,-0.08160400390625,0.0025634765625,0.9984130859375
1629376463300,-0.08477783203125,0.00341796875,0.997314453125
1629376463300,-0.08648681640625,-0.00048828125,0.9954833984375
1629376463300,-0.085693359375,-0.00189208984375,0.992919921875
1629376463347,-0.09149169921875,0.00128173828125,0.9945068359375
1629376463347,-0.08746337890625,-0.00201416015625,0.99346923828125
1629376463347,-0.08575439453125,0.0015869140625,0.9947509765625
1629376463441,-0.08782958984375,0.00201416015625,0.9971923828125
1629376463441,-0.08795166015625,0.005615234375,0.9993896484375
1629376463441,-0.08660888671875,0.004150390625,0.999755859375
1629376463472,-0.08563232421875,0.00262451171875,0.9984130859375
1629376463488,-0.0877685546875,0.005126953125,0.99505615234375
1629376463488,-0.08544921875,0.0052490234375,0.9957275390625
1629376463519,-0.0870361328125,0.00390625,0.9932861328125
1629376463519,-0.0849609375,0.0010986328125,0.99310302734375
1629376463519,-0.08978271484375,0.005615234375,0.9979248046875
1629376463644,-0.091552734375,0.00238037109375,0.99237060546875
1629376463644,-0.0899658203125,0.00311279296875,0.99072265625
1629376463644,-0.088623046875,-0.0018310546875,0.99151611328125
1629376463691,-0.08892822265625,-0.0023193359375,0.9951171875
1629376463691,-0.09033203125,6.103515625e-05,0.99603271484375
1629376463691,-0.08575439453125,0.00555419921875,0.9969482421875
1629376463706,-0.0838623046875,0.00439453125,1.003662109375
1629376463706,-0.08392333984375,0.00518798828125,0.9991455078125
1629376463706,-0.08477783203125,0.00274658203125,0.99591064453125
1629376463722,-0.0865478515625,-0.00079345703125,0.9970703125
1629376463722,-0.08807373046875,-0.0018310546875,0.99346923828125
1629376463722,-0.08453369140625,0.00018310546875,0.9979248046875
1629376463753,-0.08770751953125,-0.0009765625,0.9864501953125
1629376463753,-0.090087890625,0.00543212890625,0.9949951171875
1629376463753,-0.08770751953125,0.00384521484375,0.99658203125
1629376463800,-0.07952880859375,-0.003662109375,0.99285888671875
1629376463800,-0.087158203125,-0.00390625,0.98931884765625
1629376463800,-0.08807373046875,0.0023193359375,0.9910888671875
1629376463847,-0.0780029296875,0.010009765625,1.0169677734375
1629376463847,-0.07379150390625,0.00384521484375,1.01983642578125
1629376463847,-0.07586669921875,-0.0048828125,1.0093994140625
1629376463959,-0.0814208984375,0.0128173828125,1.00537109375
1629376463959,-0.0823974609375,0.0128173828125,0.9912109375
1629376463959,-0.08258056640625,0.0142822265625,0.99676513671875
1629376464006,-0.0882568359375,0.00091552734375,0.99212646484375
1629376464006,-0.08770751953125,-0.01416015625,0.9915771484375
1629376464006,-0.090087890625,-0.00787353515625,0.9923095703125
1629376464053,-0.08697509765625,-0.011474609375,0.991455078125
1629376464053,-0.0848388671875,-0.00885009765625,0.9912109375
1629376464053,-0.0894775390625,-0.01556396484375,0.9901123046875
1629376464100,-0.08001708984375,0.00677490234375,1.0008544921875
1629376464100,-0.07879638671875,0.00128173828125,0.99761962890625
1629376464100,-0.08221435546875,-0.0037841796875,0.9915771484375
1629376464178,-0.08953857421875,0.01361083984375,0.99298095703125
1629376464178,-0.0755615234375,0.01080322265625,0.99530029296875
1629376464178,-0.0802001953125,0.01666259765625,1.00244140625
1629376464271,-0.08544921875,0.0052490234375,0.98773193359375
1629376464271,-0.08184814453125,-0.00506591796875,0.99053955078125
1629376464271,-0.08331298828125,-0.0194091796875,0.999755859375
1629376464303,-0.0865478515625,-0.02557373046875,1.003173828125
1629376464303,-0.08929443359375,-0.0394287109375,0.9932861328125
1629376464303,-0.08746337890625,-0.0350341796875,0.9981689453125
1629376464334,-0.0770263671875,-0.03082275390625,0.99249267578125
1629376464334,-0.08306884765625,-0.03302001953125,0.98992919921875
1629376464334,-0.08245849609375,-0.03350830078125,0.99188232421875
1629376464396,-0.0897216796875,-0.0203857421875,1.02337646484375
1629376464396,-0.081298828125,-0.0296630859375,1.00677490234375
1629376464396,-0.0882568359375,-0.02545166015625,1.0184326171875
1629376464428,-0.085205078125,-0.0386962890625,0.98876953125
1629376464428,-0.08636474609375,-0.0433349609375,0.9803466796875
1629376464428,-0.08404541015625,-0.0286865234375,1.0142822265625
1629376464474,-0.07952880859375,-0.0384521484375,0.9888916015625
1629376464474,-0.078369140625,-0.02459716796875,1.00372314453125
1629376464474,-0.08331298828125,-0.04644775390625,0.97869873046875
1629376464506,-0.08154296875,-0.00665283203125,1.0145263671875
1629376464506,-0.08758544921875,0.01202392578125,1.01397705078125
1629376464506,-0.08001708984375,0.00701904296875,1.018310546875
1629376464553,-0.09124755859375,0.01324462890625,1.00189208984375
1629376464568,-0.10699462890625,-0.00738525390625,0.98211669921875
1629376464568,-0.0941162109375,0.00726318359375,0.9913330078125
1629376464631,-0.1085205078125,-0.0450439453125,0.9659423828125
1629376464631,-0.1077880859375,-0.05810546875,0.96575927734375
1629376464631,-0.10992431640625,-0.027587890625,0.967529296875
1629376464662,-0.0875244140625,-0.0428466796875,1.00140380859375
1629376464662,-0.09765625,-0.0628662109375,0.97662353515625
1629376464662,-0.08990478515625,-0.05572509765625,0.98980712890625
1629376464678,-0.0738525390625,-0.01116943359375,1.00445556640625
1629376464678,-0.08734130859375,-0.02325439453125,0.99774169921875
1629376464678,-0.08062744140625,-0.016845703125,0.99688720703125
1629376464709,-0.07354736328125,-0.010009765625,1.00225830078125
1629376464709,-0.067626953125,-0.01080322265625,1.00860595703125
1629376464709,-0.06036376953125,-0.01416015625,1.009765625
1629376464774,-0.06103515625,-0.01715087890625,1.0064697265625
1629376464790,-0.05938720703125,-0.0179443359375,1.00189208984375
1629376464790,-0.06201171875,-0.016845703125,1.00128173828125
1629376464790,-0.06158447265625,-0.00799560546875,1.00762939453125
1629376464790,-0.06524658203125,-0.00390625,1.0013427734375
1629376464790,-0.06158447265625,-0.01025390625,1.0032958984375
1629376464883,-0.06805419921875,-0.00537109375,0.99029541015625
1629376464883,-0.06512451171875,-0.00164794921875,0.9951171875
1629376464883,-0.06549072265625,-0.00408935546875,0.99249267578125
1629376464931,-0.069091796875,-0.01165771484375,0.993896484375
1629376464931,-0.072021484375,-0.0147705078125,0.99359130859375
1629376464931,-0.070556640625,-0.01068115234375,0.997314453125
1629376464993,-0.068359375,-0.01763916015625,0.99658203125
1629376464993,-0.07281494140625,-0.016845703125,0.999755859375
1629376465086,-0.0684814453125,-0.033935546875,1.00628662109375
1629376465086,-0.069580078125,-0.02667236328125,1.0028076171875
1629376465086,-0.067138671875,-0.03143310546875,1.00115966796875
1629376465086,-0.0745849609375,-0.032958984375,1.00445556640625
1629376465086,-0.07208251953125,-0.03509521484375,1.00689697265625
1629376465102,-0.07806396484375,-0.03460693359375,0.9981689453125
1629376465149,-0.0894775390625,-0.0247802734375,0.98577880859375
1629376465149,-0.083740234375,-0.03179931640625,0.99285888671875
1629376465149,-0.09259033203125,-0.02252197265625,0.98321533203125
1629376465196,-0.09320068359375,-0.0169677734375,0.98724365234375
1629376465196,-0.085205078125,-0.0135498046875,0.99444580078125
1629376465196,-0.0928955078125,-0.0216064453125,0.983642578125
1629376465352,-0.08148193359375,-0.01263427734375,0.99493408203125
1629376465352,-0.07684326171875,-0.01068115234375,1.00006103515625
1629376465352,-0.07275390625,-0.005615234375,0.9949951171875
1629376465368,-0.067626953125,0.00714111328125,0.9891357421875
1629376465368,-0.0682373046875,-0.00311279296875,0.99859619140625
1629376465368,-0.07025146484375,0.0040283203125,1.00164794921875
1629376465415,-0.058837890625,0.00079345703125,0.9927978515625
1629376465415,-0.062744140625,0.00433349609375,0.991943359375
1629376465415,-0.06610107421875,0.01080322265625,0.985595703125
1629376465524,-0.059814453125,-0.006103515625,0.99835205078125
1629376465524,-0.0574951171875,-0.01202392578125,1.007568359375
1629376465524,-0.05731201171875,-0.0009765625,0.99383544921875
1629376465602,-0.05938720703125,-0.01080322265625,1.00677490234375
1629376465602,-0.0557861328125,-0.00726318359375,1.00640869140625
1629376465602,-0.0615234375,-0.01104736328125,1.011962890625
1629376465664,-0.060546875,-0.00408935546875,1.004150390625
1629376465664,-0.0606689453125,-0.0091552734375,1.0086669921875
1629376465664,-0.055908203125,-0.00299072265625,1.00811767578125
1629376465777,-0.06793212890625,0.00225830078125,1.00115966796875
1629376465777,-0.06280517578125,-0.00616455078125,1.0035400390625
1629376465777,-0.0638427734375,-0.00042724609375,1.00469970703125
1629376465839,-0.06793212890625,0.0081787109375,0.99798583984375
1629376465839,-0.068359375,0.00482177734375,1.00048828125
1629376465839,-0.0709228515625,0.009521484375,0.9927978515625
1629376465870,-0.07373046875,0.0064697265625,0.98602294921875
1629376465870,-0.07244873046875,0.009033203125,0.98681640625
1629376465870,-0.07281494140625,0.0047607421875,0.98443603515625
1629376465886,-0.066650390625,0.00311279296875,0.99383544921875
1629376465886,-0.06829833984375,0.0042724609375,0.98968505859375
1629376465886,-0.06451416015625,0.00433349609375,0.99554443359375
1629376465933,-0.0614013671875,0.0018310546875,1.0003662109375
1629376465933,-0.05987548828125,0.00067138671875,1.00970458984375
1629376465933,-0.061279296875,0.00732421875,1.00372314453125
1629376466089,-0.06048583984375,0.0032958984375,1.008544921875
1629376466105,-0.05975341796875,0.003173828125,1.01007080078125
1629376466105,-0.06298828125,0.00567626953125,1.0072021484375
1629376466152,-0.06719970703125,0.00347900390625,0.9993896484375
1629376466152,-0.070556640625,0.003662109375,0.99658203125
1629376466152,-0.064697265625,0.000732421875,1.0009765625
1629376466183,-0.07666015625,0.004150390625,0.9920654296875
1629376466183,-0.073486328125,0.00689697265625,0.98974609375
1629376466183,-0.07232666015625,0.0093994140625,0.992919921875
1629376466214,-0.0736083984375,0.010009765625,0.9879150390625
1629376466214,-0.06951904296875,0.010009765625,0.99359130859375
1629376466214,-0.07025146484375,0.01007080078125,0.9903564453125
1629376466230,-0.06915283203125,0.009033203125,0.99700927734375
1629376466230,-0.06884765625,0.00933837890625,0.99688720703125
1629376466230,-0.06951904296875,0.00982666015625,0.996337890625
1629376466245,-0.06964111328125,-0.00128173828125,0.99493408203125
1629376466245,-0.07061767578125,0.0042724609375,0.99664306640625
1629376466245,-0.0704345703125,0.0081787109375,0.99786376953125
1629376466448,-0.06695556640625,-0.0042724609375,1.00018310546875
1629376466448,-0.0655517578125,-0.0030517578125,1.001953125
1629376466448,-0.06817626953125,-0.0029296875,0.9979248046875
1629376466480,-0.0650634765625,6.103515625e-05,1.0057373046875
1629376466480,-0.06390380859375,-0.00177001953125,1.001708984375
1629376466480,-0.06195068359375,0.0020751953125,1.004150390625
1629376466495,-0.066650390625,-0.01104736328125,0.999267578125
1629376466495,-0.07196044921875,-0.03399658203125,0.99896240234375
1629376466495,-0.06439208984375,0.0001220703125,1.0003662109375
1629376466558,-0.070556640625,-0.04290771484375,0.99383544921875
1629376466558,-0.068115234375,-0.0152587890625,0.9959716796875
1629376466558,-0.06805419921875,-0.03656005859375,0.99237060546875
1629376466589,-0.062255859375,0.02447509765625,1.00396728515625
1629376466589,-0.06292724609375,0.01141357421875,0.99530029296875
1629376466589,-0.0628662109375,0.03594970703125,1.0008544921875
1629376466714,-0.06146240234375,0.04315185546875,0.9970703125
1629376466714,-0.060791015625,0.04107666015625,0.99908447265625
1629376466714,-0.062255859375,0.04840087890625,0.996826171875
1629376466761,-0.06414794921875,0.05999755859375,0.99896240234375
1629376466761,-0.06536865234375,0.061767578125,1.00152587890625
1629376466761,-0.063720703125,0.05328369140625,0.99603271484375
1629376466797,-0.0677490234375,0.06231689453125,0.9984130859375
1629376466799,-0.06646728515625,0.0501708984375,0.98236083984375
1629376466799,-0.0692138671875,0.0587158203125,0.9931640625
1629376466811,-0.06689453125,0.04052734375,0.99517822265625
1629376466811,-0.06512451171875,0.03057861328125,0.9930419921875
1629376466811,-0.069580078125,0.046630859375,0.987060546875
1629376466904,-0.06451416015625,0.017578125,1.0057373046875
1629376466904,-0.061767578125,-0.00567626953125,1.00494384765625
1629376466904,-0.06488037109375,-0.0023193359375,1.00689697265625
1629376466936,-0.05682373046875,-0.00048828125,1.00665283203125
1629376466936,-0.05474853515625,0.00286865234375,1.01025390625
1629376466936,-0.0556640625,0.02008056640625,1.01678466796875
1629376466951,-0.05926513671875,0.034912109375,1.0059814453125
1629376466951,-0.05889892578125,0.02777099609375,1.012451171875
1629376466951,-0.062744140625,0.03375244140625,1.0009765625
1629376467061,-0.06866455078125,0.02911376953125,0.9945068359375
1629376467061,-0.0765380859375,0.0294189453125,0.98980712890625
1629376467076,-0.0765380859375,0.03192138671875,0.98638916015625
1629376467092,-0.0714111328125,0.00933837890625,0.9862060546875
1629376467092,-0.07525634765625,0.01556396484375,0.979736328125
1629376467092,-0.0716552734375,0.02642822265625,0.98773193359375
1629376467170,-0.0665283203125,-0.0013427734375,1.00018310546875
1629376467170,-0.06756591796875,0.008544921875,0.98870849609375
1629376467170,-0.07025146484375,0.003173828125,0.99261474609375
1629376467186,-0.060791015625,0.007080078125,1.00732421875
1629376467186,-0.06158447265625,-0.00457763671875,0.9942626953125
1629376467186,-0.0631103515625,0.00213623046875,0.99444580078125
1629376467201,-0.06060791015625,-0.00726318359375,0.99322509765625
1629376467201,-0.0604248046875,-0.006103515625,1.00543212890625
1629376467201,-0.05877685546875,-0.007080078125,0.99530029296875
1629376467451,-0.05450439453125,-0.00567626953125,1.000244140625
1629376467451,-0.05615234375,-0.00531005859375,1.003662109375
1629376467451,-0.05096435546875,-0.0018310546875,0.99871826171875
1629376467467,-0.04486083984375,0.0020751953125,0.99322509765625
1629376467467,-0.03900146484375,-0.00390625,1.0111083984375
1629376467467,-0.04693603515625,-0.00152587890625,0.99774169921875
1629376467498,-0.03857421875,-0.0078125,1.0198974609375
1629376467498,-0.037109375,0.0185546875,1.01873779296875
1629376467498,-0.03167724609375,0.00390625,1.01885986328125
1629376467529,-0.04095458984375,0.04071044921875,1.00909423828125
1629376467529,-0.04290771484375,0.04693603515625,1.007080078125
1629376467529,-0.0379638671875,0.03045654296875,1.00390625
1629376467576,-0.048828125,0.040283203125,1.00592041015625
1629376467576,-0.04827880859375,0.028564453125,1.0030517578125
1629376467576,-0.04541015625,0.046875,1.005615234375
1629376467592,-0.0523681640625,0.0216064453125,0.99798583984375
1629376467592,-0.0517578125,0.01690673828125,0.999755859375
1629376467592,-0.04998779296875,0.01873779296875,0.96746826171875
1629376467655,-0.046142578125,0.01788330078125,1.02423095703125
1629376467655,-0.05572509765625,0.0191650390625,0.97039794921875
1629376467655,-0.04437255859375,0.00286865234375,1.02813720703125
1629376467685,-0.0482177734375,-0.0128173828125,0.9927978515625
1629376467685,-0.04473876953125,-0.00531005859375,1.00433349609375
1629376467701,-0.051025390625,-0.00897216796875,0.9813232421875
1629376467764,-0.05157470703125,0.0118408203125,0.9979248046875
1629376467764,-0.04937744140625,-0.00323486328125,0.99237060546875
1629376467764,-0.0562744140625,0.0018310546875,0.9949951171875
1629376467924,-0.051025390625,0.0191650390625,1.007080078125
1629376467924,-0.05328369140625,0.026123046875,1.00079345703125
1629376467924,-0.0498046875,0.0223388671875,1.0032958984375
1629376467939,-0.054931640625,0.0032958984375,1.0091552734375
1629376467939,-0.0506591796875,0.01593017578125,1.00640869140625
1629376467939,-0.051025390625,0.0054931640625,1.00738525390625
1629376467971,-0.06378173828125,-0.00299072265625,0.994873046875
1629376467971,-0.0609130859375,-0.0003662109375,1.0040283203125
1629376467971,-0.06842041015625,-0.0115966796875,0.99871826171875
1629376468018,-0.06689453125,-0.00146484375,0.9906005859375
1629376468018,-0.06585693359375,0.0103759765625,1.00225830078125
1629376468018,-0.06597900390625,-0.01336669921875,0.990966796875
1629376468096,-0.06524658203125,0.0294189453125,1.00543212890625
1629376468111,-0.068359375,0.0369873046875,1.00323486328125
1629376468111,-0.06695556640625,0.0401611328125,0.9923095703125
1629376468158,-0.069091796875,0.03985595703125,0.98486328125
1629376468158,-0.06988525390625,0.0347900390625,0.98834228515625
1629376468158,-0.0655517578125,0.03564453125,0.98797607421875
1629376468221,-0.0562744140625,0.02197265625,0.99169921875
1629376468221,-0.05804443359375,0.03369140625,0.9881591796875
1629376468221,-0.06414794921875,0.0382080078125,0.9874267578125
1629376468221,-0.061767578125,0.02606201171875,0.9906005859375
1629376468221,-0.05059814453125,0.0113525390625,0.9918212890625
1629376468289,-0.0504150390625,0.00372314453125,0.9908447265625
1629376468290,-0.04901123046875,0.00921630859375,1.0057373046875
1629376468291,-0.04779052734375,0.00506591796875,1.00537109375
1629376468352,-0.04193115234375,0.00250244140625,1.006103515625
1629376468352,-0.048583984375,0.00531005859375,1.00823974609375
1629376468540,-0.03070068359375,0.00506591796875,1.00531005859375
1629376468540,-0.03961181640625,0.00164794921875,1.00604248046875
1629376468540,-0.03216552734375,0.01025390625,1.01263427734375
1629376468555,-0.0303955078125,0.02081298828125,1.01116943359375
1629376468555,-0.03155517578125,0.0133056640625,1.00897216796875
1629376468555,-0.03021240234375,0.00616455078125,1.01593017578125
1629376468587,-0.03863525390625,0.01953125,1.00115966796875
1629376468587,-0.0355224609375,0.020263671875,1.01373291015625
1629376468587,-0.0419921875,0.0152587890625,0.99676513671875
1629376468618,-0.04339599609375,0.01220703125,0.99542236328125
1629376468618,-0.04852294921875,0.0194091796875,0.99920654296875
1629376468618,-0.04803466796875,0.0166015625,0.99676513671875
1629376468759,-0.05010986328125,0.02410888671875,0.99688720703125
1629376468759,-0.04962158203125,0.0267333984375,0.9951171875
1629376468759,-0.048095703125,0.02587890625,1.00030517578125
1629376468774,-0.0545654296875,0.0233154296875,0.99676513671875
1629376468790,-0.0587158203125,0.0201416015625,1.00146484375
1629376468790,-0.05712890625,0.02166748046875,1.0018310546875
1629376468790,-0.05523681640625,0.01904296875,1.000732421875
1629376468790,-0.05303955078125,0.01824951171875,1.00421142578125
1629376468790,-0.05596923828125,0.019287109375,1.00372314453125
1629376468821,-0.05621337890625,0.0233154296875,1.00030517578125
1629376468821,-0.0625,0.01885986328125,1.0013427734375
1629376468821,-0.058837890625,0.02484130859375,1.0057373046875
1629376468902,-0.06280517578125,0.02081298828125,0.99700927734375
1629376468902,-0.06732177734375,0.01702880859375,0.985595703125
1629376468902,-0.0634765625,0.0135498046875,0.98931884765625
1629376468933,-0.06817626953125,0.0162353515625,0.99188232421875
1629376468933,-0.07012939453125,0.0130615234375,0.9974365234375
1629376468933,-0.07122802734375,0.011962890625,0.990234375
1629376468996,-0.070068359375,0.0147705078125,0.99591064453125
1629376468996,-0.0679931640625,0.01165771484375,0.9921875
1629376469011,-0.06549072265625,0.015625,0.99090576171875
1629376469058,-0.063232421875,0.0196533203125,0.99676513671875
1629376469058,-0.0601806640625,0.02508544921875,1.001953125
1629376469058,-0.063720703125,0.009521484375,0.9989013671875
1629376469152,-0.054931640625,0.0093994140625,0.98162841796875
1629376469152,-0.05303955078125,0.00225830078125,0.984130859375
1629376469152,-0.05767822265625,0.016845703125,0.99444580078125
1629376469199,-0.05413818359375,-0.00537109375,1.00408935546875
1629376469199,-0.056884765625,-0.0003662109375,0.997802734375
1629376469199,-0.0484619140625,-0.0020751953125,0.99786376953125
1629376469246,-0.04534912109375,0.0059814453125,0.99810791015625
1629376469246,-0.04388427734375,0.0150146484375,1.00091552734375
1629376469246,-0.0416259765625,0.01751708984375,1.00640869140625
1629376469292,-0.037841796875,0.0225830078125,1.01287841796875
1629376469292,-0.0362548828125,0.0128173828125,0.99951171875
1629376469292,-0.03662109375,0.011474609375,1.00408935546875
1629376469497,-0.04449462890625,0.0283203125,1.02105712890625
1629376469512,-0.045166015625,0.02032470703125,1.0076904296875
1629376469512,-0.04583740234375,0.02496337890625,1.01458740234375
1629376469606,-0.04974365234375,0.017822265625,1.0048828125
1629376469606,-0.0517578125,0.01934814453125,1.00897216796875
1629376469622,-0.05340576171875,0.0263671875,1.00762939453125
1629376469637,-0.06463623046875,0.0328369140625,0.98681640625
1629376469637,-0.055419921875,0.03472900390625,1.01251220703125
1629376469637,-0.06390380859375,0.0357666015625,1.00390625
1629376469684,-0.07257080078125,0.02642822265625,0.98382568359375
1629376469684,-0.07135009765625,0.024169921875,0.98931884765625
1629376469684,-0.0672607421875,0.0281982421875,0.983154296875
1629376469763,-0.06988525390625,0.015380859375,0.99713134765625
1629376469763,-0.06402587890625,0.01739501953125,1.00018310546875
1629376469763,-0.0703125,0.017822265625,0.9896240234375
1629376469809,-0.06640625,0.0030517578125,0.99761962890625
1629376469809,-0.0699462890625,-0.0072021484375,1.000732421875
1629376469809,-0.06475830078125,0.01416015625,1.00054931640625
1629376469809,-0.06378173828125,0.0198974609375,0.99981689453125
1629376469809,-0.05950927734375,0.01739501953125,1.00323486328125
1629376469809,-0.06768798828125,0.0169677734375,0.99749755859375
1629376469841,-0.071044921875,-0.01300048828125,0.99688720703125
1629376469841,-0.06915283203125,-0.00787353515625,0.99713134765625
1629376469841,-0.06298828125,-0.0054931640625,0.99530029296875
1629376469881,-0.06329345703125,-0.00213623046875,0.99212646484375
1629376469882,-0.0623779296875,0.00390625,0.99420166015625
1629376469882,-0.06341552734375,0.00360107421875,0.99542236328125
1629376469921,-0.05328369140625,0.0396728515625,0.99371337890625
1629376469921,-0.06024169921875,0.0155029296875,0.98779296875
1629376469921,-0.0555419921875,0.03271484375,0.9945068359375
1629376469968,-0.05615234375,0.03564453125,1.01092529296875
1629376469968,-0.06024169921875,0.03167724609375,1.00384521484375
1629376469968,-0.06329345703125,0.02081298828125,1.0059814453125
1629376470093,-0.06488037109375,0.006591796875,0.992919921875
1629376470124,-0.0557861328125,0.0015869140625,1.00030517578125
1629376470124,-0.058837890625,0.003173828125,0.98785400390625
1629376470124,-0.05914306640625,0.00372314453125,0.99493408203125
1629376470186,-0.05352783203125,0.0042724609375,1.0009765625
1629376470186,-0.05242919921875,0.00360107421875,1.00653076171875
1629376470202,-0.05035400390625,0.0048828125,1.004638671875
1629376470218,-0.05474853515625,0.00396728515625,1.00225830078125
1629376470218,-0.05841064453125,0.00360107421875,1.0045166015625
1629376470233,-0.0626220703125,0.0064697265625,0.9970703125
1629376470358,-0.06219482421875,0.016357421875,0.99273681640625
1629376470358,-0.061767578125,0.00958251953125,0.99542236328125
1629376470374,-0.0633544921875,0.0184326171875,0.99072265625
1629376470390,-0.066650390625,0.02362060546875,0.99615478515625
1629376470390,-0.063720703125,0.02178955078125,0.9947509765625
1629376470390,-0.0653076171875,0.02587890625,1.000732421875
1629376470436,-0.0655517578125,0.0198974609375,0.9969482421875
1629376470436,-0.06146240234375,0.0225830078125,0.9976806640625
1629376470436,-0.062255859375,0.0216064453125,0.99884033203125
1629376470468,-0.0560302734375,0.02032470703125,1.0062255859375
1629376470468,-0.06201171875,0.025146484375,1.011962890625
1629376470499,-0.0623779296875,0.01959228515625,0.99530029296875
1629376470499,-0.0614013671875,0.02001953125,0.99755859375
1629376470499,-0.0611572265625,0.01898193359375,1.00634765625
1629376470515,-0.06854248046875,0.00616455078125,0.99334716796875
1629376470515,-0.06732177734375,0.01025390625,0.994873046875
1629376470515,-0.064453125,0.0135498046875,0.99224853515625
1629376470624,-0.06475830078125,0.00390625,0.99334716796875
1629376470624,-0.06549072265625,0.00787353515625,0.9898681640625
1629376470624,-0.06878662109375,0.01043701171875,0.99090576171875
1629376470655,-0.0635986328125,0.01312255859375,0.99603271484375
1629376470655,-0.0589599609375,0.0101318359375,0.99749755859375
1629376470655,-0.06146240234375,0.0087890625,0.9952392578125
1629376470749,-0.05963134765625,0.009033203125,0.99658203125
1629376470749,-0.05780029296875,0.0093994140625,1.00616455078125
1629376470749,-0.05670166015625,0.0103759765625,1.00238037109375
1629376470764,-0.0543212890625,0.0111083984375,1.00299072265625
1629376470764,-0.0587158203125,0.01336669921875,1.00494384765625
1629376470764,-0.0550537109375,0.01202392578125,1.0035400390625
1629376470880,-0.06011962890625,0.0130615234375,1.00787353515625
1629376470881,-0.06048583984375,0.0126953125,0.99859619140625
1629376470881,-0.06610107421875,0.0145263671875,1.0
1629376470924,-0.05853271484375,0.0157470703125,0.999755859375
1629376470924,-0.06170654296875,0.01287841796875,0.99395751953125
1629376470924,-0.0621337890625,0.01544189453125,0.9951171875
1629376470970,-0.0570068359375,0.01605224609375,1.0030517578125
1629376470970,-0.05999755859375,0.01922607421875,1.00048828125
1629376470970,-0.06085205078125,0.0177001953125,1.00103759765625
1629376471049,-0.0604248046875,0.0198974609375,0.99786376953125
1629376471049,-0.06231689453125,0.021484375,0.995849609375
1629376471049,-0.05816650390625,0.018798828125,1.00018310546875
1629376471064,-0.06060791015625,0.0174560546875,0.99700927734375
1629376471064,-0.05804443359375,0.018310546875,0.99798583984375
1629376471064,-0.0552978515625,0.01861572265625,0.99578857421875
1629376471127,-0.05963134765625,0.02435302734375,0.9984130859375
1629376471127,-0.06353759765625,0.02197265625,0.99993896484375
1629376471127,-0.06671142578125,0.02264404296875,0.999755859375
1629376471189,-0.06280517578125,0.016845703125,0.99774169921875
1629376471189,-0.06268310546875,0.01751708984375,1.00238037109375
1629376471189,-0.06549072265625,0.01904296875,0.99609375
1629376471236,-0.06317138671875,0.0155029296875,1.00250244140625
1629376471236,-0.06060791015625,0.0174560546875,1.000244140625
1629376471236,-0.05914306640625,0.02130126953125,1.00177001953125
1629376471486,-0.06390380859375,0.02215576171875,1.0003662109375
1629376471486,-0.06109619140625,0.021240234375,0.998046875
1629376471486,-0.06573486328125,0.02032470703125,0.9971923828125
1629376471502,-0.06988525390625,0.0172119140625,0.99639892578125
1629376471502,-0.067626953125,0.01824951171875,0.99322509765625
1629376471502,-0.0660400390625,0.01983642578125,0.99365234375
1629376471595,-0.065185546875,0.0167236328125,0.999267578125
1629376471595,-0.06256103515625,0.0194091796875,0.9989013671875
1629376471595,-0.0693359375,0.01617431640625,0.9937744140625
1629376471642,-0.06536865234375,0.0167236328125,0.9989013671875
1629376471642,-0.06170654296875,0.017578125,0.9984130859375
1629376471642,-0.06427001953125,0.0150146484375,0.9986572265625
1629376471658,-0.06243896484375,0.00830078125,1.0015869140625
1629376471658,-0.06353759765625,0.0093994140625,1.00054931640625
1629376471658,-0.0611572265625,0.01422119140625,0.998046875
1629376471736,-0.066650390625,0.01068115234375,1.0025634765625
1629376471736,-0.06451416015625,0.0078125,1.0052490234375
1629376471736,-0.06439208984375,0.009033203125,1.00567626953125
1629376471767,-0.06427001953125,0.00726318359375,0.99310302734375
1629376471767,-0.06719970703125,0.0048828125,0.99822998046875
1629376471767,-0.06500244140625,0.01251220703125,0.99346923828125
1629376471830,-0.063232421875,0.0159912109375,0.997802734375
1629376471830,-0.06414794921875,0.02008056640625,1.0035400390625
1629376471830,-0.06170654296875,0.0189208984375,1.00250244140625
1629376471927,-0.062744140625,0.02081298828125,1.0
1629376471927,-0.06146240234375,0.0233154296875,1.00177001953125
1629376471942,-0.0615234375,0.02008056640625,0.996826171875
1629376471989,-0.06585693359375,0.0067138671875,0.99542236328125
1629376471989,-0.067138671875,0.010498046875,0.99456787109375
1629376471989,-0.0665283203125,0.017822265625,0.99462890625
1629376471989,-0.06683349609375,0.007080078125,1.000244140625
1629376471989,-0.06390380859375,0.00958251953125,0.998779296875
1629376471989,-0.0697021484375,0.0108642578125,1.00140380859375
1629376472036,-0.0667724609375,0.01898193359375,0.9967041015625
1629376472036,-0.06671142578125,0.01861572265625,1.00146484375
1629376472036,-0.06622314453125,0.01837158203125,0.998046875
1629376472068,-0.06329345703125,0.01715087890625,1.00140380859375
1629376472068,-0.06805419921875,0.02337646484375,0.99493408203125
1629376472068,-0.06597900390625,0.02197265625,1.00177001953125
1629376472239,-0.067138671875,0.01849365234375,0.99530029296875
1629376472239,-0.0667724609375,0.016845703125,0.99407958984375
1629376472239,-0.07025146484375,0.0177001953125,1.00054931640625
1629376472255,-0.06475830078125,0.0196533203125,0.99560546875
1629376472255,-0.06561279296875,0.014404296875,0.99798583984375
1629376472286,-0.072021484375,0.00933837890625,0.99591064453125
1629376472286,-0.06781005859375,0.0096435546875,0.99755859375
1629376472286,-0.07098388671875,0.0107421875,0.9981689453125
1629376472286,-0.0714111328125,0.0145263671875,1.0001220703125
1629376472286,-0.06787109375,0.0140380859375,0.997314453125
1629376472286,-0.067138671875,0.0133056640625,0.997314453125
1629376472380,-0.0654296875,0.01763916015625,0.9986572265625
1629376472380,-0.06597900390625,0.013671875,0.9993896484375
1629376472442,-0.0687255859375,0.01385498046875,0.9981689453125
1629376472442,-0.06903076171875,0.01702880859375,1.0028076171875
1629376472442,-0.0665283203125,0.01568603515625,1.0023193359375
1629376472474,-0.07080078125,0.01202392578125,0.9937744140625
1629376472474,-0.0703125,0.0142822265625,0.99273681640625
1629376472489,-0.07464599609375,0.0198974609375,0.9925537109375
1629376472536,-0.06707763671875,0.0216064453125,0.996337890625
1629376472536,-0.0694580078125,0.02099609375,0.99627685546875
1629376472536,-0.06683349609375,0.02459716796875,0.99713134765625
1629376472583,-0.06231689453125,0.02203369140625,0.99615478515625
1629376472583,-0.0618896484375,0.02410888671875,1.00140380859375
1629376472583,-0.05902099609375,0.01995849609375,0.99969482421875
1629376472739,-0.06195068359375,0.02166748046875,0.999755859375
1629376472739,-0.0628662109375,0.0244140625,0.9986572265625
1629376472739,-0.0670166015625,0.0220947265625,1.0010986328125
1629376472755,-0.066650390625,0.01654052734375,0.99835205078125
1629376472755,-0.06317138671875,0.021240234375,1.0008544921875
1629376472755,-0.063232421875,0.0224609375,0.99444580078125
1629376472770,-0.06842041015625,0.0146484375,0.99627685546875
1629376472770,-0.068359375,0.015625,0.995849609375
1629376472770,-0.067626953125,0.01544189453125,0.99609375
1629376472848,-0.05889892578125,0.0205078125,1.00714111328125
1629376472848,-0.05902099609375,0.01739501953125,1.00537109375
1629376472848,-0.05999755859375,0.017822265625,0.99981689453125
1629376472864,-0.06622314453125,0.01910400390625,0.99658203125
1629376472864,-0.05999755859375,0.01690673828125,0.99658203125
1629376472864,-0.06292724609375,0.01995849609375,1.00372314453125
1629376473007,-0.06085205078125,0.0194091796875,1.00732421875
1629376473022,-0.063232421875,0.01348876953125,0.9945068359375
1629376473022,-0.06280517578125,0.01580810546875,0.998779296875
1629376473038,-0.06829833984375,0.01171875,0.9967041015625
1629376473038,-0.06768798828125,0.0123291015625,0.99700927734375
1629376473038,-0.066162109375,0.0146484375,0.9971923828125
1629376473100,-0.068115234375,0.0140380859375,0.9930419921875
1629376473100,-0.066162109375,0.01739501953125,0.99688720703125
1629376473100,-0.0712890625,0.012451171875,0.9949951171875
1629376473149,-0.0654296875,0.01507568359375,0.9989013671875
1629376473149,-0.06536865234375,0.0135498046875,1.002197265625
1629376473149,-0.06585693359375,0.0140380859375,0.9989013671875
1629376473165,-0.06182861328125,0.01324462890625,0.99700927734375
1629376473180,-0.0654296875,0.0087890625,1.0020751953125
1629376473180,-0.06365966796875,0.0101318359375,1.0029296875
1629376473198,-0.0662841796875,0.00897216796875,0.99676513671875
1629376473198,-0.06488037109375,0.0074462890625,0.99627685546875
1629376473260,-0.0626220703125,0.01397705078125,1.00018310546875
1629376473260,-0.063720703125,0.0125732421875,1.00323486328125
1629376473260,-0.06182861328125,0.01617431640625,1.00146484375
1629376473338,-0.06005859375,0.0184326171875,1.00030517578125
1629376473338,-0.05926513671875,0.01416015625,1.0003662109375
1629376473338,-0.06298828125,0.0166015625,0.9962158203125
1629376473370,-0.06463623046875,0.01483154296875,0.99481201171875
1629376473370,-0.068603515625,0.01385498046875,0.99114990234375
1629376473370,-0.06744384765625,0.0172119140625,0.99603271484375
1629376473447,-0.06390380859375,0.012451171875,0.99090576171875
1629376473447,-0.06781005859375,0.0140380859375,0.99407958984375
1629376473541,-0.06231689453125,0.010498046875,0.99371337890625
1629376473541,-0.068359375,0.01129150390625,0.9990234375
1629376473541,-0.067626953125,0.0137939453125,1.00189208984375
1629376473635,-0.06500244140625,0.00799560546875,0.99859619140625
1629376473635,-0.0631103515625,0.009765625,1.0028076171875
1629376473635,-0.0654296875,0.0096435546875,1.00018310546875
1629376473666,-0.06768798828125,0.01043701171875,1.00537109375
1629376473666,-0.0635986328125,0.01251220703125,1.0010986328125
1629376473666,-0.0660400390625,0.0146484375,1.0032958984375
1629376473698,-0.06536865234375,0.01611328125,0.99676513671875
1629376473698,-0.07061767578125,0.01544189453125,0.99609375
1629376473713,-0.06939697265625,0.0142822265625,0.99127197265625
1629376473760,-0.066650390625,0.0054931640625,0.993896484375
1629376473760,-0.07318115234375,0.00994873046875,0.9892578125
1629376473822,-0.06915283203125,0.0078125,1.00531005859375
1629376473822,-0.07080078125,0.0013427734375,0.99871826171875
1629376473822,-0.06829833984375,0.0050048828125,1.00616455078125
1629376473838,-0.06744384765625,0.02069091796875,0.99700927734375
1629376473838,-0.06866455078125,0.01336669921875,1.00006103515625
1629376473838,-0.06646728515625,0.02117919921875,0.99798583984375
1629376473916,-0.07073974609375,0.01910400390625,0.9996337890625
1629376473916,-0.06890869140625,0.02130126953125,0.9949951171875
1629376473916,-0.072998046875,0.0140380859375,1.000732421875
1629376473963,-0.0692138671875,0.01104736328125,0.99615478515625
1629376473963,-0.06756591796875,0.01177978515625,0.9991455078125
1629376473963,-0.06988525390625,0.01025390625,0.9930419921875
1629376474010,-0.07354736328125,0.01263427734375,0.9940185546875
1629376474025,-0.07098388671875,0.01251220703125,0.9912109375
1629376474025,-0.07025146484375,0.00933837890625,0.99493408203125
1629376474072,-0.06689453125,0.01629638671875,0.99542236328125
1629376474072,-0.0697021484375,0.01373291015625,1.0020751953125
1629376474072,-0.0712890625,0.0155029296875,0.990966796875
1629376474135,-0.06201171875,0.00933837890625,1.003173828125
1629376474135,-0.06396484375,0.0147705078125,1.00341796875
1629376474135,-0.06072998046875,0.0137939453125,1.00347900390625
1629376474213,-0.06182861328125,0.0181884765625,1.00146484375
1629376474213,-0.0657958984375,0.01483154296875,1.00262451171875
1629376474213,-0.06231689453125,0.01568603515625,1.0013427734375
1629376474229,-0.06719970703125,0.0108642578125,0.9998779296875
1629376474229,-0.06103515625,0.01153564453125,0.99761962890625
1629376474229,-0.06494140625,0.01080322265625,1.0009765625
1629376474338,-0.0728759765625,0.01239013671875,0.99676513671875
1629376474338,-0.06964111328125,0.01422119140625,0.99786376953125
1629376474338,-0.07135009765625,0.01214599609375,0.9981689453125
1629376474354,-0.06915283203125,0.014892578125,0.99688720703125
1629376474354,-0.06756591796875,0.01416015625,0.99578857421875
1629376474354,-0.06561279296875,0.009765625,0.99761962890625
1629376474432,-0.06915283203125,0.013916015625,1.00384521484375
1629376474432,-0.06903076171875,0.01025390625,1.00103759765625
1629376474432,-0.0653076171875,0.0108642578125,0.9979248046875
1629376474525,-0.065673828125,0.012451171875,1.0020751953125
1629376474525,-0.0745849609375,0.01300048828125,0.99798583984375
1629376474525,-0.07232666015625,0.0126953125,0.99859619140625
1629376474572,-0.071533203125,0.01507568359375,0.99322509765625
1629376474572,-0.07489013671875,0.0152587890625,0.9903564453125
1629376474572,-0.0731201171875,0.015869140625,0.9942626953125
1629376474666,-0.07427978515625,0.00933837890625,0.995849609375
1629376474666,-0.07080078125,0.01104736328125,0.99542236328125
1629376474666,-0.07470703125,0.01300048828125,0.99298095703125
1629376474666,-0.0693359375,0.01129150390625,0.9998779296875
1629376474666,-0.06854248046875,0.009033203125,0.9967041015625
1629376474682,-0.07281494140625,0.00927734375,1.00433349609375
1629376474760,-0.0706787109375,0.0137939453125,1.00048828125
1629376474760,-0.06939697265625,0.01129150390625,0.99908447265625
1629376474760,-0.070556640625,0.011474609375,1.00677490234375
1629376474791,-0.072265625,0.01361083984375,0.99530029296875
1629376474791,-0.07269287109375,0.011962890625,0.99462890625
1629376474791,-0.0714111328125,0.01519775390625,0.9935302734375
1629376474822,-0.07513427734375,0.0146484375,0.99554443359375
1629376474822,-0.07379150390625,0.01678466796875,0.98828125
1629376474822,-0.07659912109375,0.0145263671875,0.99627685546875
1629376474900,-0.0750732421875,0.018798828125,0.99847412109375
1629376474916,-0.0755615234375,0.02001953125,0.99554443359375
