timestamp,ax,ay,az
1631023546484,-0.494832,0.865346,0.100284
1631023546494,-0.492819,0.865529,0.100772
1631023546504,-0.490379,0.865468,0.100955
1631023546513,-0.491294,0.867664,0.098698
1631023546523,-0.48958599999999997,0.870714,0.096502
1631023546532,-0.487878,0.8717509999999999,0.096441
1631023546542,-0.48714599999999997,0.872422,0.098637
1631023546552,-0.485865,0.87413,0.09943
1631023546561,-0.483059,0.87718,0.10052799999999999
1631023546571,-0.480741,0.879132,0.101809
1631023546580,-0.478667,0.88023,0.102541
1631023546590,-0.476227,0.879925,0.103517
1631023546600,-0.475373,0.880047,0.10315099999999999
1631023546609,-0.475617,0.8796809999999999,0.1037
1631023546619,-0.474153,0.88023,0.10144299999999999
1631023546628,-0.475861,0.87962,0.098942
1631023546638,-0.47519,0.878095,0.09790499999999999
1631023546648,-0.477386,0.877912,0.094794
1631023546657,-0.475312,0.8754109999999999,0.094184
1631023546667,-0.477447,0.873398,0.093269
1631023546676,-0.477752,0.873947,0.092781
1631023546686,-0.477508,0.872605,0.092415
1631023546696,-0.47885,0.870653,0.091622
1631023546705,-0.47939899999999996,0.869006,0.091378
1631023546715,-0.48031399999999996,0.868396,0.091988
1631023546724,-0.48129,0.867908,0.091805
1631023546734,-0.48318099999999997,0.867359,0.090219
1631023546744,-0.484828,0.867237,0.091317
1631023546753,-0.486475,0.865163,0.09211
1631023546763,-0.487512,0.863455,0.09174399999999999
1631023546772,-0.48897599999999997,0.863638,0.09028
1631023546782,-0.490562,0.8629669999999999,0.08912099999999999
1631023450733,-0.659227,0.72834,-0.157868
1631023450743,-0.6591049999999999,0.728218,-0.15677
1631023450752,-0.659654,0.728523,-0.155306
1631023450762,-0.659654,0.729194,-0.155306
1631023450771,-0.659837,0.72956,-0.155367
1631023450781,-0.660874,0.730231,-0.155794
1631023450791,-0.661728,0.731085,-0.157624
1631023450800,-0.661972,0.732,-0.158295
1631023450810,-0.6624599999999999,0.732305,-0.159637
1631023450819,-0.662094,0.731329,-0.158722
1631023450829,-0.6615449999999999,0.730353,-0.157746
1631023450839,-0.660874,0.729865,-0.157868
1631023450848,-0.660569,0.729621,-0.15738
1631023450858,-0.660081,0.728889,-0.157319
1631023450867,-0.6600199999999999,0.729255,-0.156038
1631023450877,-0.6600199999999999,0.728584,-0.154879
1631023450887,-0.658434,0.727608,-0.156221
1631023450896,-0.6587999999999999,0.730048,-0.159088
1631023450906,-0.6591049999999999,0.730658,-0.160186
1631023450915,-0.659166,0.728645,-0.159698
1631023450925,-0.659166,0.7281569999999999,-0.1586
1631023450935,-0.660386,0.728523,-0.157136
1631023450944,-0.660813,0.7290719999999999,-0.158112
1631023450954,-0.659532,0.729865,-0.157807
1631023450963,-0.6600199999999999,0.729804,-0.15799
1631023450973,-0.658983,0.7293769999999999,-0.158051
1631023450983,-0.658983,0.730231,-0.158722
1631023450992,-0.659044,0.730109,-0.158905
1631023451002,-0.659471,0.730109,-0.159088
1631023451011,-0.659349,0.730414,-0.157441
1631023451021,-0.6597149999999999,0.729499,-0.157807
1631023451031,-0.659898,0.73017,-0.157563
1631023451040,-0.659349,0.729316,-0.157197
1631023451050,-0.659654,0.729133,-0.157014
1631023451059,-0.659959,0.729255,-0.157868
1631023451069,-0.659532,0.728889,-0.157258
1631023451079,-0.659959,0.7290719999999999,-0.157441
1631023451088,-0.659959,0.729316,-0.157685
1631023451098,-0.659654,0.7290719999999999,-0.157319
1631023451107,-0.660386,0.729316,-0.156404
1631023451117,-0.660203,0.728096,-0.155916
1631023451127,-0.660813,0.728706,-0.155855
1631023451136,-0.661362,0.729133,-0.156221
1631023451146,-0.660996,0.729804,-0.156831
1631023451155,-0.661606,0.72956,-0.15738
1631023451165,-0.662277,0.729194,-0.15738
1631023451175,-0.661423,0.7284619999999999,-0.157502
1631023451184,-0.660996,0.7275469999999999,-0.15738
1631023451194,-0.661057,0.727669,-0.157014
1631023451203,-0.6606299999999999,0.727364,-0.156892
1631023451213,-0.6609349999999999,0.7278519999999999,-0.156282
1631023451223,-0.659654,0.7290719999999999,-0.156709
1631023451232,-0.659471,0.729194,-0.155794
1631023451242,-0.659776,0.728828,-0.155001
1631023451251,-0.660142,0.729438,-0.155367
1631023451261,-0.659471,0.729621,-0.155672
1631023451271,-0.660203,0.729621,-0.154696
1631023451280,-0.6594099999999999,0.731939,-0.15494
1631023451290,-0.659654,0.731268,-0.15433
1631023451299,-0.659837,0.732061,-0.152622
1631023451309,-0.659288,0.733708,-0.152866
1631023451319,-0.659471,0.733586,-0.152012
1631023451328,-0.659532,0.7345619999999999,-0.152866
1631023451338,-0.659044,0.733769,-0.15237799999999999
1631023451347,-0.659837,0.73322,-0.152744
1631023451357,-0.659349,0.732976,-0.152561
1631023451367,-0.659532,0.732305,-0.1525
1631023451376,-0.6603249999999999,0.732244,-0.15268299999999999
1631023451386,-0.659349,0.73322,-0.153049
1631023451395,-0.659166,0.733586,-0.1525
1631023451405,-0.658922,0.731573,-0.152439
1631023451415,-0.659776,0.7321219999999999,-0.152744
1631023451424,-0.659837,0.730658,-0.152744
1631023451434,-0.659471,0.730841,-0.152744
1631023451443,-0.6603249999999999,0.730048,-0.153049
1631023451453,-0.659349,0.73017,-0.15359799999999998
1631023451463,-0.6606299999999999,0.732305,-0.155916
1631023451472,-0.659776,0.731756,-0.157075
1631023451482,-0.659166,0.72895,-0.156099
1631023451491,-0.6581899999999999,0.729255,-0.158722
1631023451501,-0.657702,0.729743,-0.158905
1631023451511,-0.656543,0.729865,-0.15914899999999998
1631023451520,-0.656116,0.728035,-0.15555
1631023451530,-0.657031,0.726205,-0.15359799999999998
1631023451539,-0.658068,0.727791,-0.152622
1631023451549,-0.658129,0.730231,-0.152622
1631023451559,-0.658434,0.7309019999999999,-0.153476
1631023451568,-0.6587999999999999,0.731756,-0.154452
1631023451578,-0.659288,0.731878,-0.155977
1631023451587,-0.6597149999999999,0.7309019999999999,-0.155245
1631023451597,-0.659654,0.730475,-0.154757
1631023451607,-0.658678,0.731085,-0.15372
1631023451616,-0.6587999999999999,0.730048,-0.152866
1631023451626,-0.659288,0.7302919999999999,-0.152317
1631023451635,-0.659044,0.7309019999999999,-0.151341
1631023451645,-0.658739,0.731329,-0.151829
1631023451655,-0.659654,0.731268,-0.1525
1631023451664,-0.659776,0.731329,-0.15329299999999998
1631023451674,-0.660264,0.732183,-0.154635
1631023451683,-0.661057,0.732671,-0.15451299999999998
1631023451693,-0.660386,0.732061,-0.15494
1631023451703,-0.6609349999999999,0.7321219999999999,-0.15372
1631023451712,-0.659959,0.732,-0.153964
1631023451722,-0.659349,0.731756,-0.153354
1631023451731,-0.659654,0.7315119999999999,-0.15329299999999998
1631023451741,-0.659776,0.731451,-0.153476
1631023451751,-0.659654,0.731024,-0.151341
1631023451760,-0.659044,0.729316,-0.151524
1631023451770,-0.657763,0.730536,-0.15311
1631023451779,-0.6587999999999999,0.732976,-0.154757
1631023451789,-0.658617,0.733464,-0.155611
1631023451799,-0.659532,0.73322,-0.154879
1631023451808,-0.6597149999999999,0.732976,-0.152317
1631023451818,-0.658251,0.732793,-0.151402
1631023451827,-0.6569699999999999,0.733159,-0.149694
1631023451837,-0.656604,0.734379,-0.150243
1631023451847,-0.656787,0.7351719999999999,-0.15128
1631023451856,-0.6578849999999999,0.73688,-0.151158
1631023451866,-0.660142,0.738893,-0.15268299999999999
1631023451875,-0.659776,0.740174,-0.151524
1631023451885,-0.660996,0.7434069999999999,-0.148108
1631023451895,-0.660752,0.747067,-0.144936
1631023451904,-0.662033,0.75274,-0.142008
1631023451914,-0.663192,0.758962,-0.14127599999999998
1631023451923,-0.663192,0.761219,-0.139324
1631023451933,-0.663314,0.762317,-0.141093
1631023451943,-0.665022,0.7601209999999999,-0.143228
1631023451952,-0.664961,0.7561559999999999,-0.146644
1631023451962,-0.6648999999999999,0.749202,-0.14945
1631023451971,-0.662704,0.742614,-0.15268299999999999
1631023451981,-0.663558,0.732854,-0.15677
1631023451991,-0.665571,0.727669,-0.16043
1631023452000,-0.6648999999999999,0.724619,-0.161711
1631023452010,-0.665144,0.720837,-0.16500499999999999
1631023452019,-0.665937,0.7172379999999999,-0.168543
1631023452029,-0.6673399999999999,0.7137,-0.168726
1631023452039,-0.667584,0.7105279999999999,-0.171593
1631023452048,-0.6679499999999999,0.708576,-0.17446
1631023452058,-0.666974,0.705526,-0.174094
1631023452067,-0.667462,0.703086,-0.17671699999999999
1631023452077,-0.669048,0.701256,-0.179035
1631023452087,-0.667279,0.701927,-0.182756
1631023452096,-0.668499,0.699731,-0.185806
1631023452106,-0.669597,0.696803,-0.188978
1631023452115,-0.668316,0.692045,-0.18971
1631023452125,-0.673196,0.689056,-0.18788
1631023452135,-0.667462,0.687226,-0.188185
1631023452144,-0.673562,0.682041,-0.187026
1631023452154,-0.669231,0.68198,-0.188856
1631023452163,-0.672037,0.687592,-0.18903899999999998
1631023452173,-0.672586,0.68686,-0.188551
1631023452183,-0.671366,0.68686,-0.188368
1631023452192,-0.672281,0.689117,-0.186172
1631023452202,-0.668621,0.6932039999999999,-0.187392
1631023452211,-0.674355,0.694302,-0.18849
1631023452221,-0.67527,0.694851,-0.191296
1631023452231,-0.68076,0.698389,-0.19428499999999999
1631023452240,-0.68259,0.701378,-0.192943
1631023452250,-0.683627,0.702842,-0.190015
1631023452259,-0.68503,0.704184,-0.186233
1631023452269,-0.68381,0.708332,-0.183854
1631023452279,-0.6849689999999999,0.71248,-0.17946199999999998
1631023452288,-0.68442,0.7184579999999999,-0.174094
1631023452298,-0.6832,0.722301,-0.171227
1631023452307,-0.683505,0.726022,-0.170434
1631023452317,-0.6846639999999999,0.728279,-0.170312
1631023452327,-0.683566,0.728218,-0.173484
1631023452336,-0.683505,0.726998,-0.17507
1631023452346,-0.680821,0.724985,-0.176656
1631023452355,-0.679601,0.720959,-0.179706
1631023452365,-0.679723,0.719861,-0.182695
1631023452375,-0.68076,0.715164,-0.18470799999999998
1631023452384,-0.679357,0.707051,-0.185501
1631023452394,-0.677954,0.706136,-0.187453
1631023452403,-0.676368,0.704916,-0.191052
1631023452413,-0.677344,0.69967,-0.193553
1631023452423,-0.676795,0.695644,-0.197579
1631023452432,-0.677771,0.694912,-0.201544
1631023452442,-0.676734,0.692838,-0.204411
1631023452451,-0.678869,0.686433,-0.206546
1631023452461,-0.679296,0.6846639999999999,-0.208315
1631023452471,-0.677527,0.687226,-0.207705
1631023452480,-0.677344,0.6874089999999999,-0.209108
1631023452490,-0.678686,0.683871,-0.210206
1631023452499,-0.67954,0.6832,-0.211121
1631023452509,-0.6791739999999999,0.6831389999999999,-0.212707
1631023452519,-0.6791739999999999,0.683566,-0.21215799999999999
1631023452528,-0.680516,0.680028,-0.213134
1631023452538,-0.68198,0.677344,-0.213866
1631023452547,-0.681675,0.67832,-0.216001
1631023452557,-0.683322,0.678564,-0.216306
1631023452567,-0.684603,0.678808,-0.21655
1631023452576,-0.686921,0.676917,-0.215574
1631023452586,-0.686982,0.676246,-0.213439
1631023452595,-0.6852739999999999,0.676795,-0.214659
1631023452605,-0.686067,0.677588,-0.215452
1631023452615,-0.6819189999999999,0.6806989999999999,-0.211243
1631023452624,-0.6806989999999999,0.678686,-0.207278
1631023452634,-0.680455,0.676917,-0.202459
1631023452643,-0.6794789999999999,0.678808,-0.196664
1631023452653,-0.681736,0.6832,-0.193858
1631023452663,-0.680638,0.692533,-0.192089
1631023452672,-0.679906,0.699426,-0.189771
1631023452682,-0.6822239999999999,0.706929,-0.18971
1631023452691,-0.683932,0.714554,-0.191906
1631023452701,-0.6858839999999999,0.718214,-0.192577
1631023452711,-0.687348,0.71858,-0.194529
1631023452720,-0.686128,0.7169329999999999,-0.193492
1631023452730,-0.684298,0.711992,-0.19154
1631023452739,-0.6822239999999999,0.7080879999999999,-0.192211
1631023452749,-0.6810039999999999,0.707051,-0.192272
1631023452759,-0.6822239999999999,0.70394,-0.191296
1631023452768,-0.6800889999999999,0.700585,-0.19093
1631023452778,-0.679845,0.697657,-0.19086899999999998
1631023452787,-0.679601,0.694973,-0.190015
1631023452797,-0.678747,0.695522,-0.19086899999999998
1631023452807,-0.68015,0.69479,-0.190808
1631023452816,-0.682346,0.695644,-0.192638
1631023452826,-0.684237,0.695705,-0.194163
1631023452835,-0.685945,0.695095,-0.194346
1631023452845,-0.68747,0.693631,-0.193614
1631023452855,-0.688995,0.69235,-0.19397999999999999
1631023452864,-0.68991,0.688812,-0.194346
1631023452874,-0.691923,0.6877139999999999,-0.194529
1631023452883,-0.693143,0.68503,-0.192516
1631023452893,-0.693753,0.684542,-0.194346
1631023452903,-0.69662,0.682956,-0.194529
1631023452912,-0.698511,0.681431,-0.195566
1631023452922,-0.700341,0.681248,-0.19825
1631023452931,-0.704245,0.682468,-0.203313
1631023452941,-0.706929,0.682773,-0.208315
1631023452951,-0.710284,0.682773,-0.213195
1631023452960,-0.710772,0.682041,-0.21770899999999999
1631023452970,-0.711992,0.680211,-0.220393
1631023452979,-0.711382,0.680211,-0.222528
1631023452989,-0.7117479999999999,0.676673,-0.222589
1631023452999,-0.7111379999999999,0.674416,-0.223504
1631023453008,-0.709796,0.673806,-0.223748
1631023453018,-0.708576,0.673989,-0.22539499999999998
1631023453027,-0.705404,0.671549,-0.22204
1631023453037,-0.704611,0.673318,-0.223321
1631023453047,-0.705221,0.672952,-0.222162
1631023453056,-0.704916,0.668926,-0.222772
1631023453066,-0.702415,0.6691699999999999,-0.221613
1631023453075,-0.701134,0.667523,-0.221003
1631023453085,-0.702232,0.662643,-0.220332
1631023453095,-0.7038179999999999,0.661057,-0.222528
1631023453104,-0.702476,0.661118,-0.225883
1631023453114,-0.702659,0.657763,-0.228079
1631023453123,-0.702537,0.65514,-0.230458
1631023453133,-0.703391,0.6527,-0.23302
1631023453143,-0.704367,0.653005,-0.235155
1631023453152,-0.703269,0.65087,-0.234728
1631023453162,-0.70394,0.645624,-0.232593
1631023453171,-0.704306,0.6448309999999999,-0.231678
1631023453181,-0.70577,0.644404,-0.23094599999999998
1631023453191,-0.705892,0.646112,-0.23003099999999999
1631023453200,-0.7071729999999999,0.648857,-0.229543
1631023453210,-0.707356,0.650992,-0.228262
1631023453219,-0.706929,0.651419,-0.22600499999999998
1631023453229,-0.7074779999999999,0.651968,-0.223992
1631023453239,-0.707051,0.655628,-0.221491
1631023453248,-0.7068679999999999,0.657702,-0.217953
1631023453258,-0.707905,0.660752,-0.214476
1631023453267,-0.70638,0.6630699999999999,-0.211304
1631023453277,-0.706685,0.666303,-0.207705
1631023453287,-0.704489,0.670024,-0.205448
1631023453296,-0.70455,0.672891,-0.20105599999999998
1631023453306,-0.7035129999999999,0.675697,-0.196786
1631023453315,-0.70211,0.6800889999999999,-0.193858
1631023453325,-0.702598,0.681553,-0.189588
1631023453335,-0.700646,0.682285,-0.186233
1631023453344,-0.698694,0.68442,-0.184464
1631023453354,-0.697108,0.686921,-0.181902
1631023453363,-0.697291,0.687592,-0.180194
1631023453373,-0.697291,0.689788,-0.179523
1631023453383,-0.698694,0.6925939999999999,-0.179706
1631023453392,-0.698023,0.692533,-0.178059
1631023453402,-0.696315,0.6925939999999999,-0.177998
1631023453411,-0.696864,0.695705,-0.179584
1631023453421,-0.696803,0.6954,-0.179828
1631023453431,-0.695949,0.694241,-0.17976699999999998
1631023453440,-0.696376,0.693082,-0.178669
1631023453450,-0.69662,0.6898489999999999,-0.17793699999999998
1631023453459,-0.696437,0.6886289999999999,-0.179279
1631023453469,-0.695034,0.6886289999999999,-0.179218
1631023453479,-0.6941189999999999,0.6883239999999999,-0.179218
1631023453488,-0.6928989999999999,0.688202,-0.17976699999999998
1631023453498,-0.6925939999999999,0.6864939999999999,-0.178486
1631023453507,-0.694729,0.6871039999999999,-0.178669
1631023453517,-0.6944239999999999,0.68747,-0.178059
1631023453527,-0.695888,0.687958,-0.177144
1631023453536,-0.695766,0.68808,-0.175131
1631023453546,-0.6954,0.688812,-0.17446
1631023453555,-0.696559,0.687897,-0.174887
1631023453565,-0.697901,0.687958,-0.174948
1631023453575,-0.697657,0.686616,-0.175131
1631023453584,-0.696864,0.687165,-0.175314
1631023453594,-0.698084,0.6874089999999999,-0.174399
1631023453603,-0.699365,0.6886289999999999,-0.174399
1631023453613,-0.698816,0.6886289999999999,-0.174338
1631023453623,-0.698084,0.68869,-0.175558
1631023453632,-0.699182,0.687836,-0.175436
1631023453642,-0.699731,0.687958,-0.175009
1631023453651,-0.700402,0.687287,-0.176656
1631023453661,-0.700524,0.686433,-0.177266
1631023453671,-0.700585,0.686433,-0.178669
1631023453680,-0.701988,0.686006,-0.17915699999999998
1631023453690,-0.701622,0.685945,-0.179279
1631023453699,-0.70211,0.685518,-0.180072
1631023453709,-0.701378,0.685396,-0.180987
1631023453719,-0.70089,0.684298,-0.181475
1631023453728,-0.699853,0.6825289999999999,-0.180499
1631023453738,-0.698389,0.682102,-0.179889
1631023453747,-0.696803,0.680638,-0.17934
1631023453757,-0.697291,0.6794789999999999,-0.180072
1631023453767,-0.696132,0.67954,-0.182329
1631023453776,-0.696498,0.6819189999999999,-0.183549
1631023453786,-0.696498,0.682773,-0.18348799999999998
1631023453795,-0.697596,0.68259,-0.18361
1631023453805,-0.699121,0.683322,-0.182146
1631023453815,-0.697657,0.6846639999999999,-0.181109
1631023453824,-0.69723,0.685091,-0.180255
1631023453834,-0.69784,0.685152,-0.179828
1631023453843,-0.699243,0.686982,-0.180438
1631023453853,-0.698816,0.689117,-0.181841
1631023453863,-0.700829,0.690215,-0.182024
1631023453872,-0.703574,0.692167,-0.184586
1631023453882,-0.701439,0.693082,-0.18483
1631023453891,-0.699975,0.69174,-0.183854
1631023453901,-0.697901,0.69113,-0.181475
1631023453911,-0.696681,0.69052,-0.182695
1631023453920,-0.69662,0.6892389999999999,-0.180804
1631023453930,-0.697474,0.690093,-0.177815
1631023453939,-0.69845,0.689361,-0.177571
1631023453949,-0.698084,0.690215,-0.176961
1631023453959,-0.697108,0.6910689999999999,-0.179035
1631023453968,-0.696132,0.690825,-0.181536
1631023453978,-0.695766,0.690825,-0.182634
1631023453987,-0.694241,0.6895439999999999,-0.18348799999999998
1631023453997,-0.6925939999999999,0.6877139999999999,-0.183244
1631023454007,-0.691618,0.684908,-0.18440299999999998
1631023454016,-0.691496,0.683627,-0.185135
1631023454026,-0.690947,0.683627,-0.18562299999999998
1631023454035,-0.691191,0.6849689999999999,-0.186416
1631023454045,-0.69052,0.686616,-0.185806
1631023454055,-0.689971,0.686372,-0.185684
1631023454064,-0.689666,0.6867989999999999,-0.185135
1631023454074,-0.6901539999999999,0.6889339999999999,-0.186965
1631023454083,-0.689727,0.6893,-0.186111
1631023454093,-0.689483,0.690398,-0.184891
1631023454103,-0.69052,0.691313,-0.18544
1631023454112,-0.6893,0.690703,-0.183854
1631023454122,-0.690276,0.6913739999999999,-0.18501299999999998
1631023454131,-0.688751,0.692045,-0.183
1631023454141,-0.689971,0.692228,-0.183305
1631023454151,-0.691008,0.6932039999999999,-0.18226799999999999
1631023454160,-0.689971,0.692655,-0.182634
1631023454170,-0.68869,0.694851,-0.185562
1631023454179,-0.6893,0.697657,-0.188795
1631023454189,-0.690581,0.693387,-0.189832
1631023454199,-0.689178,0.6893,-0.187392
1631023454208,-0.691496,0.687653,-0.18781899999999999
1631023454218,-0.693082,0.69052,-0.188612
1631023454227,-0.691435,0.69296,-0.188673
1631023454237,-0.693753,0.696071,-0.188856
1631023454247,-0.690947,0.696803,-0.18995399999999998
1631023454256,-0.692472,0.695583,-0.188917
1631023454266,-0.692411,0.694058,-0.18964899999999998
1631023454275,-0.691435,0.692716,-0.18971
1631023454285,-0.690398,0.6889339999999999,-0.189405
1631023454295,-0.689605,0.688263,-0.189283
1631023454304,-0.689605,0.68747,-0.188307
1631023454314,-0.68808,0.686128,-0.187575
1631023454323,-0.687531,0.686616,-0.186538
1631023454333,-0.686677,0.686982,-0.18470799999999998
1631023454343,-0.6874089999999999,0.6874089999999999,-0.182756
1631023454352,-0.687287,0.688751,-0.181292
1631023454362,-0.6877139999999999,0.69052,-0.180621
1631023454371,-0.6889339999999999,0.690703,-0.17995
1631023454381,-0.690337,0.6916789999999999,-0.179218
1631023454391,-0.69174,0.691008,-0.17873
1631023454400,-0.693143,0.691252,-0.178974
1631023454410,-0.695644,0.6916789999999999,-0.178181
1631023454419,-0.697291,0.691435,-0.179035
1631023454429,-0.698572,0.691862,-0.18117
1631023454439,-0.70028,0.690093,-0.181475
1631023454448,-0.702354,0.689666,-0.182939
1631023454458,-0.703269,0.6895439999999999,-0.18422
1631023454467,-0.702354,0.687836,-0.185135
1631023454477,-0.7015,0.6855789999999999,-0.18562299999999998
1631023454487,-0.70089,0.683932,-0.185135
1631023454496,-0.698999,0.6840539999999999,-0.185867
1631023454506,-0.701866,0.684237,-0.186721
1631023454515,-0.702476,0.686006,-0.186416
1631023454525,-0.702049,0.6886289999999999,-0.185867
1631023454535,-0.700585,0.693326,-0.184342
1631023454544,-0.698877,0.694912,-0.182756
1631023454554,-0.697413,0.692106,-0.181719
1631023454563,-0.69723,0.690032,-0.181048
1631023454573,-0.695461,0.689178,-0.180499
1631023454583,-0.692228,0.687348,-0.180316
1631023454592,-0.690947,0.6874089999999999,-0.180621
1631023454602,-0.691008,0.687775,-0.183549
1631023454611,-0.6895439999999999,0.6904589999999999,-0.184952
1631023454621,-0.686921,0.68808,-0.18239
1631023454631,-0.684847,0.684481,-0.181231
1631023454640,-0.683566,0.684847,-0.181292
1631023454650,-0.683078,0.685823,-0.180682
1631023454659,-0.684298,0.686433,-0.17854699999999998
1631023454669,-0.68564,0.6849689999999999,-0.176778
1631023454679,-0.6861889999999999,0.684481,-0.176229
1631023454688,-0.686433,0.685396,-0.176046
1631023454698,-0.6886289999999999,0.687043,-0.17873
1631023454707,-0.689971,0.68808,-0.179218
1631023454717,-0.6919839999999999,0.687043,-0.180255
1631023454727,-0.693692,0.685457,-0.17976699999999998
1631023454736,-0.694729,0.682956,-0.180926
1631023454746,-0.696559,0.681553,-0.182146
1631023454755,-0.698755,0.6806989999999999,-0.182329
1631023454765,-0.699914,0.681492,-0.183671
1631023454775,-0.701622,0.680882,-0.184525
1631023454784,-0.702659,0.6816139999999999,-0.184281
1631023454794,-0.7038179999999999,0.681248,-0.185074
1631023454803,-0.7044279999999999,0.681553,-0.186904
1631023454813,-0.705831,0.6797839999999999,-0.187514
1631023454823,-0.7076,0.679723,-0.186965
1631023454832,-0.7086979999999999,0.6797839999999999,-0.187026
1631023454842,-0.709552,0.679296,-0.186843
1631023454851,-0.710467,0.679906,-0.186111
1631023454861,-0.710894,0.680333,-0.185928
1631023454871,-0.7102229999999999,0.681736,-0.186904
1631023454880,-0.709857,0.679357,-0.185684
1631023454890,-0.7080879999999999,0.679723,-0.188002
1631023454899,-0.70821,0.6832,-0.188185
1631023454909,-0.707539,0.682102,-0.189527
1631023454919,-0.706807,0.679113,-0.188307
1631023454928,-0.707356,0.676429,-0.186294
1631023454938,-0.706624,0.67527,-0.186721
1631023454947,-0.705831,0.676063,-0.1891
1631023454957,-0.704977,0.676429,-0.19056399999999998
1631023454967,-0.705282,0.678015,-0.192028
1631023454976,-0.704306,0.676917,-0.192699
1631023454986,-0.7035129999999999,0.67649,-0.192516
1631023454995,-0.702232,0.67405,-0.19276
1631023455005,-0.703086,0.671732,-0.19428499999999999
1631023455015,-0.702903,0.670268,-0.195383
1631023455024,-0.70333,0.670512,-0.196176
1631023455034,-0.70272,0.669719,-0.197518
1631023455043,-0.702415,0.668377,-0.199348
1631023455053,-0.70211,0.6688649999999999,-0.198616
1631023455063,-0.701378,0.668804,-0.197762
1631023455072,-0.702476,0.6673399999999999,-0.198006
1631023455082,-0.70272,0.668194,-0.197884
1631023455091,-0.702964,0.6685599999999999,-0.199409
1631023455101,-0.7050379999999999,0.670268,-0.19947
1631023455111,-0.7050379999999999,0.671061,-0.199104
1631023455120,-0.70516,0.672281,-0.198982
1631023455130,-0.70516,0.673074,-0.198494
1631023455139,-0.70516,0.674355,-0.197884
1631023455149,-0.704001,0.676124,-0.198128
1631023455159,-0.7035129999999999,0.676856,-0.19794499999999998
1631023455168,-0.7035129999999999,0.677466,-0.19702999999999998
1631023455178,-0.703757,0.678442,-0.19641999999999998
1631023455187,-0.701927,0.679662,-0.195749
1631023455197,-0.701195,0.681431,-0.196054
1631023455207,-0.700829,0.682163,-0.195993
1631023455216,-0.699548,0.682163,-0.19580999999999998
1631023455226,-0.698389,0.681736,-0.194468
1631023455235,-0.696437,0.682651,-0.195871
1631023455245,-0.696132,0.68259,-0.195688
1631023455255,-0.694241,0.6837489999999999,-0.195139
1631023455264,-0.692655,0.685396,-0.194956
1631023455274,-0.691862,0.687043,-0.194773
1631023455283,-0.690947,0.689666,-0.193553
1631023455293,-0.689666,0.691191,-0.192699
1631023455303,-0.6892389999999999,0.69174,-0.192211
1631023455312,-0.689422,0.690581,-0.192699
1631023455322,-0.690947,0.690215,-0.193248
1631023455331,-0.688385,0.690093,-0.194468
1631023455341,-0.689056,0.6893,-0.195383
1631023455351,-0.6889339999999999,0.691008,-0.19519999999999998
1631023455360,-0.6889339999999999,0.691008,-0.195932
1631023455370,-0.6861889999999999,0.689666,-0.19641999999999998
1631023455379,-0.6840539999999999,0.6907639999999999,-0.197396
1631023455389,-0.683383,0.691923,-0.19983599999999999
1631023455399,-0.68259,0.691801,-0.199226
1631023455408,-0.682651,0.687653,-0.194834
1631023455418,-0.68503,0.68503,-0.19147899999999998
1631023455427,-0.685518,0.683932,-0.187758
1631023455437,-0.686433,0.683688,-0.186965
1631023455447,-0.688995,0.687897,-0.18727
1631023455456,-0.691496,0.69113,-0.18903899999999998
1631023455466,-0.6944239999999999,0.6941189999999999,-0.189588
1631023455475,-0.697535,0.695705,-0.18934399999999998
1631023455485,-0.699365,0.694668,-0.187087
1631023455495,-0.698694,0.69235,-0.184159
1631023455504,-0.70028,0.6913739999999999,-0.182512
1631023455514,-0.698694,0.690703,-0.180987
1631023455523,-0.698511,0.690093,-0.179218
1631023455533,-0.697962,0.68808,-0.177998
1631023455543,-0.696132,0.685823,-0.177205
1631023455552,-0.695522,0.685213,-0.175924
1631023455562,-0.695522,0.685091,-0.175558
1631023455571,-0.694851,0.685457,-0.176839
1631023455581,-0.694912,0.686128,-0.177876
1631023455591,-0.694363,0.686616,-0.178364
1631023455600,-0.6944239999999999,0.686921,-0.17824199999999998
1631023455610,-0.693143,0.688202,-0.177876
1631023455619,-0.693936,0.688995,-0.176351
1631023455629,-0.694973,0.690825,-0.177144
1631023455639,-0.695522,0.692167,-0.17580199999999999
1631023455648,-0.695095,0.692106,-0.17732699999999998
1631023455658,-0.694546,0.693753,-0.178974
1631023455667,-0.695705,0.694912,-0.180804
1631023455677,-0.696193,0.692838,-0.18178
1631023455687,-0.694973,0.690886,-0.181719
1631023455696,-0.69418,0.691191,-0.180987
1631023455706,-0.6919839999999999,0.6907639999999999,-0.181536
1631023455715,-0.690642,0.690886,-0.181719
1631023455725,-0.69113,0.692106,-0.180804
1631023455735,-0.6901539999999999,0.6919839999999999,-0.179279
1631023455744,-0.6895439999999999,0.692716,-0.178364
1631023455754,-0.688995,0.692838,-0.17763199999999998
1631023455763,-0.6892389999999999,0.694058,-0.177815
1631023455773,-0.6886289999999999,0.6954,-0.178059
1631023455783,-0.689483,0.695156,-0.17751
1631023455792,-0.6892389999999999,0.694668,-0.178425
1631023455802,-0.689666,0.6944239999999999,-0.178486
1631023455811,-0.6895439999999999,0.695278,-0.17885199999999998
1631023455821,-0.690215,0.695644,-0.179889
1631023455831,-0.688202,0.69662,-0.17946199999999998
1631023455840,-0.688507,0.696742,-0.179828
1631023455850,-0.6883239999999999,0.696742,-0.179828
1631023455859,-0.68869,0.696864,-0.179523
1631023455869,-0.689483,0.697352,-0.180072
1631023455879,-0.6877139999999999,0.697474,-0.179706
1631023455888,-0.687348,0.697474,-0.17995
1631023455898,-0.6880189999999999,0.698023,-0.180011
1631023455907,-0.6874089999999999,0.698755,-0.180804
1631023455917,-0.6867989999999999,0.698572,-0.181048
1631023455927,-0.685762,0.697596,-0.181536
1631023455936,-0.685701,0.697413,-0.180926
1631023455946,-0.6852739999999999,0.697352,-0.180743
1631023455955,-0.68381,0.696315,-0.18056
1631023455965,-0.684908,0.69662,-0.180682
1631023455975,-0.683932,0.696559,-0.180987
1631023455984,-0.683932,0.696376,-0.181231
1631023455994,-0.683322,0.695644,-0.180194
1631023456003,-0.683993,0.696681,-0.181048
1631023456013,-0.6846639999999999,0.696864,-0.180926
1631023456023,-0.6843589999999999,0.69723,-0.180194
1631023456032,-0.685335,0.697901,-0.181109
1631023456042,-0.6861889999999999,0.697535,-0.181353
1631023456051,-0.687043,0.698023,-0.18287799999999999
1631023456061,-0.687836,0.697535,-0.181231
1631023456071,-0.686982,0.696986,-0.180926
1631023456080,-0.687348,0.697108,-0.181414
1631023456090,-0.688446,0.696986,-0.181231
1631023456099,-0.688385,0.69662,-0.180011
1631023456109,-0.68808,0.696803,-0.180133
1631023456119,-0.688751,0.696498,-0.18056
1631023456128,-0.688446,0.696376,-0.17995
1631023456138,-0.688446,0.695705,-0.17812
1631023456147,-0.688385,0.696803,-0.177144
1631023456157,-0.68991,0.697047,-0.177083
1631023456167,-0.691252,0.696376,-0.176351
1631023456176,-0.691313,0.695705,-0.17568
1631023456186,-0.692716,0.695949,-0.177449
1631023456195,-0.69357,0.696315,-0.178364
1631023456205,-0.694302,0.697657,-0.179218
1631023456215,-0.693448,0.698145,-0.180438
1631023456224,-0.693875,0.697169,-0.181109
1631023456234,-0.693082,0.696986,-0.18239
1631023456243,-0.691008,0.69784,-0.183122
1631023456253,-0.688995,0.696559,-0.183549
1631023456263,-0.6886289999999999,0.692472,-0.181536
1631023456272,-0.6892389999999999,0.68869,-0.17885199999999998
1631023456282,-0.690093,0.688385,-0.178608
1631023456291,-0.6895439999999999,0.689666,-0.179706
1631023456301,-0.689727,0.692228,-0.180926
1631023456311,-0.690337,0.6935089999999999,-0.182085
1631023456320,-0.6901539999999999,0.692716,-0.18178
1631023456330,-0.690703,0.69296,-0.181841
1631023456339,-0.689971,0.692472,-0.180621
1631023456349,-0.691008,0.692533,-0.179401
1631023456359,-0.690947,0.692045,-0.178913
1631023456368,-0.69113,0.691496,-0.179096
1631023456378,-0.6913739999999999,0.6925939999999999,-0.178486
1631023456387,-0.691862,0.693326,-0.177876
1631023456397,-0.692167,0.6928989999999999,-0.178181
1631023456407,-0.693021,0.693753,-0.179645
1631023456416,-0.694058,0.692167,-0.179828
1631023456426,-0.694973,0.691923,-0.180804
1631023456435,-0.695156,0.6916789999999999,-0.181048
1631023456445,-0.694546,0.6919839999999999,-0.180926
1631023456455,-0.695034,0.6910689999999999,-0.180926
1631023456464,-0.693631,0.68991,-0.181841
1631023456474,-0.692533,0.690337,-0.180804
1631023456483,-0.692655,0.689483,-0.179889
1631023456493,-0.693265,0.6892389999999999,-0.17873
1631023456503,-0.692472,0.688141,-0.180255
1631023456512,-0.690642,0.68808,-0.181841
1631023456522,-0.6913739999999999,0.690215,-0.185379
1631023456531,-0.691496,0.68991,-0.18605
1631023456541,-0.692838,0.688568,-0.186782
1631023456551,-0.692106,0.687043,-0.184464
1631023456560,-0.690581,0.687287,-0.182939
1631023456570,-0.690215,0.688141,-0.183732
1631023456579,-0.690581,0.690398,-0.18239
1631023456589,-0.6907639999999999,0.691618,-0.181719
1631023456599,-0.6910689999999999,0.6919839999999999,-0.182634
1631023456608,-0.6913739999999999,0.69235,-0.182329
1631023456618,-0.691313,0.693082,-0.181719
1631023456627,-0.6910689999999999,0.6944239999999999,-0.183061
1631023456637,-0.691801,0.695156,-0.183
1631023456647,-0.691618,0.694668,-0.18178
1631023456656,-0.690825,0.694363,-0.181231
1631023456666,-0.690398,0.694058,-0.180987
1631023456675,-0.689178,0.693753,-0.17915699999999998
1631023456685,-0.689361,0.693448,-0.177693
1631023456695,-0.6889339999999999,0.694546,-0.178913
1631023456704,-0.68991,0.694912,-0.17934
1631023456714,-0.69052,0.695278,-0.179218
1631023456723,-0.6913739999999999,0.695095,-0.179096
1631023456733,-0.692472,0.694058,-0.179035
1631023456743,-0.6916789999999999,0.6938139999999999,-0.179401
1631023456752,-0.6922889999999999,0.693692,-0.179645
1631023456762,-0.691496,0.692655,-0.179584
1631023456771,-0.6919839999999999,0.6925939999999999,-0.17854699999999998
1631023456781,-0.69174,0.6919839999999999,-0.179035
1631023456791,-0.692472,0.6913739999999999,-0.178913
1631023456800,-0.6925939999999999,0.691191,-0.179889
1631023456810,-0.6925939999999999,0.692228,-0.180133
1631023456819,-0.69357,0.69113,-0.181109
1631023456829,-0.693387,0.690886,-0.181902
1631023456839,-0.6928989999999999,0.690886,-0.180987
1631023456848,-0.6919839999999999,0.69052,-0.180865
1631023456858,-0.69296,0.69052,-0.179828
1631023456867,-0.69174,0.691191,-0.180194
1631023456877,-0.6910689999999999,0.691008,-0.180438
1631023456887,-0.691252,0.690581,-0.181048
1631023456896,-0.6913739999999999,0.690215,-0.180255
1631023456906,-0.69174,0.6916789999999999,-0.180072
1631023456915,-0.691618,0.69113,-0.17873
1631023456925,-0.690215,0.691313,-0.17934
1631023456935,-0.691252,0.691618,-0.178303
1631023456944,-0.690642,0.692716,-0.178364
1631023456954,-0.691191,0.693875,-0.17885199999999998
1631023456963,-0.690642,0.694912,-0.177754
1631023456973,-0.690398,0.693387,-0.177449
1631023456983,-0.6904589999999999,0.6935089999999999,-0.1769
1631023456992,-0.69052,0.693448,-0.177205
1631023457002,-0.6904589999999999,0.693936,-0.175985
1631023457011,-0.690398,0.694851,-0.17629
1631023457021,-0.690947,0.696925,-0.177205
1631023457031,-0.6898489999999999,0.697657,-0.1769
1631023457040,-0.690581,0.697352,-0.17610699999999999
1631023457050,-0.689666,0.696925,-0.176168
1631023457059,-0.690032,0.695644,-0.174765
1631023457069,-0.6892389999999999,0.695095,-0.175497
1631023457079,-0.6907639999999999,0.696742,-0.175619
1631023457088,-0.690337,0.696437,-0.175375
1631023457098,-0.6895439999999999,0.6954,-0.175924
1631023457107,-0.690581,0.696254,-0.17702199999999998
1631023457117,-0.6895439999999999,0.697474,-0.180621
1631023457127,-0.688995,0.696376,-0.180377
1631023457136,-0.688995,0.694241,-0.180682
1631023457146,-0.6889339999999999,0.69357,-0.179706
1631023457155,-0.687958,0.695156,-0.179279
1631023457165,-0.689361,0.69479,-0.178181
1631023457175,-0.690703,0.69479,-0.175436
1631023457184,-0.690032,0.695034,-0.176473
1631023457194,-0.68991,0.695766,-0.177083
1631023457203,-0.690215,0.696193,-0.178303
1631023457213,-0.689117,0.696986,-0.180133
1631023457223,-0.690093,0.695034,-0.180499
1631023457232,-0.6889339999999999,0.691801,-0.180438
1631023457242,-0.687897,0.6907639999999999,-0.179828
1631023457251,-0.687592,0.690581,-0.179889
1631023457261,-0.68686,0.691435,-0.179218
1631023457271,-0.687531,0.692472,-0.17763199999999998
1631023457280,-0.687653,0.69235,-0.177266
1631023457290,-0.687226,0.6928989999999999,-0.178364
1631023457299,-0.688263,0.692533,-0.17873
1631023457309,-0.688446,0.693997,-0.179706
1631023457319,-0.688995,0.694058,-0.180987
1631023457328,-0.688263,0.694851,-0.179889
1631023457338,-0.689117,0.695461,-0.17976699999999998
1631023457347,-0.6892389999999999,0.696132,-0.179035
1631023457357,-0.689117,0.696681,-0.178791
1631023457367,-0.6883239999999999,0.696254,-0.176534
1631023457376,-0.688202,0.696498,-0.17702199999999998
1631023457386,-0.6892389999999999,0.697047,-0.174765
1631023457395,-0.6880189999999999,0.696498,-0.17641199999999999
1631023457405,-0.688812,0.697474,-0.17751
1631023457415,-0.6901539999999999,0.699121,-0.17946199999999998
1631023457424,-0.689666,0.696559,-0.179218
1631023457434,-0.68991,0.694302,-0.177571
1631023457443,-0.691191,0.693448,-0.176839
1631023457453,-0.690642,0.694912,-0.17763199999999998
1631023457463,-0.689727,0.697352,-0.177754
1631023457472,-0.68991,0.699304,-0.179523
1631023457482,-0.6910689999999999,0.699243,-0.180194
1631023457491,-0.691008,0.697718,-0.180072
1631023457501,-0.690886,0.696376,-0.178791
1631023457511,-0.690886,0.696559,-0.178425
1631023457520,-0.690337,0.696254,-0.179218
1631023457530,-0.689666,0.69601,-0.178974
1631023457539,-0.689056,0.696193,-0.17915699999999998
1631023457549,-0.6892389999999999,0.695461,-0.17824199999999998
1631023457559,-0.6889339999999999,0.695705,-0.17793699999999998
1631023457568,-0.688202,0.695278,-0.178181
1631023457578,-0.687897,0.695339,-0.178303
1631023457587,-0.689727,0.695461,-0.179218
1631023457597,-0.68991,0.695705,-0.18056
1631023457607,-0.690093,0.694912,-0.180743
1631023457616,-0.690581,0.693753,-0.180621
1631023457626,-0.690032,0.693021,-0.179889
1631023457635,-0.6901539999999999,0.6932039999999999,-0.180011
1631023457645,-0.68991,0.693387,-0.180011
1631023457655,-0.6892389999999999,0.6928989999999999,-0.17885199999999998
1631023457664,-0.690032,0.692838,-0.180438
1631023457674,-0.689483,0.6922889999999999,-0.180804
1631023457683,-0.689178,0.691923,-0.181292
1631023457693,-0.688995,0.692655,-0.181658
1631023457703,-0.6892389999999999,0.691923,-0.182146
1631023457712,-0.689666,0.693082,-0.181536
1631023457722,-0.688751,0.69296,-0.180804
1631023457731,-0.689178,0.693082,-0.180865
1631023457741,-0.6889339999999999,0.69357,-0.180316
1631023457751,-0.688507,0.6944239999999999,-0.180316
1631023457760,-0.6883239999999999,0.694912,-0.178608
1631023457770,-0.687958,0.695766,-0.17915699999999998
1631023457779,-0.687592,0.696132,-0.178486
1631023457789,-0.686616,0.697596,-0.178303
1631023457799,-0.68747,0.697474,-0.177571
1631023457808,-0.688446,0.698206,-0.17732699999999998
1631023457818,-0.687165,0.697718,-0.177266
1631023457827,-0.6880189999999999,0.698023,-0.178608
1631023457837,-0.688507,0.698511,-0.178913
1631023457847,-0.688141,0.69784,-0.178974
1631023457856,-0.688202,0.697535,-0.178974
1631023457866,-0.688263,0.695644,-0.178303
1631023457875,-0.687836,0.695583,-0.178608
1631023457885,-0.687653,0.6954,-0.178669
1631023457895,-0.687836,0.696315,-0.17885199999999998
1631023457904,-0.687836,0.697901,-0.179584
1631023457914,-0.686372,0.697535,-0.178974
1631023457923,-0.68747,0.69662,-0.179096
1631023457933,-0.68747,0.695644,-0.17854699999999998
1631023457943,-0.6871039999999999,0.695461,-0.17915699999999998
1631023457952,-0.688873,0.69479,-0.17885199999999998
1631023457962,-0.688751,0.696071,-0.17934
1631023457971,-0.687897,0.6954,-0.179218
1631023457981,-0.688751,0.695888,-0.179645
1631023457991,-0.688873,0.696254,-0.181048
1631023458000,-0.687348,0.696254,-0.18239
1631023458010,-0.687165,0.695156,-0.183
1631023458019,-0.686738,0.695766,-0.183366
1631023458029,-0.68625,0.695339,-0.18257299999999999
1631023458039,-0.6864939999999999,0.695095,-0.181231
1631023458048,-0.686616,0.693936,-0.177083
1631023458058,-0.687165,0.695217,-0.173789
1631023458067,-0.686982,0.697352,-0.173362
1631023458077,-0.686616,0.699609,-0.174216
1631023458087,-0.687287,0.701378,-0.173911
1631023458096,-0.686677,0.702232,-0.17330099999999998
1631023458106,-0.687897,0.700646,-0.171959
1631023458115,-0.688751,0.701744,-0.17238599999999998
1631023458125,-0.6877139999999999,0.701256,-0.171654
1631023458135,-0.688263,0.699609,-0.170617
1631023458144,-0.688385,0.699304,-0.170373
1631023458154,-0.6889339999999999,0.698816,-0.16994599999999999
1631023458163,-0.688812,0.697657,-0.170678
1631023458173,-0.688812,0.696925,-0.172142
1631023458183,-0.689483,0.695949,-0.174643
1631023458192,-0.6898489999999999,0.694729,-0.175558
1631023458202,-0.689788,0.693448,-0.176656
1631023458211,-0.6907639999999999,0.692533,-0.17824199999999998
1631023458221,-0.6895439999999999,0.691008,-0.180194
1631023458231,-0.690093,0.690337,-0.181048
1631023458240,-0.690215,0.688873,-0.181048
1631023458250,-0.689117,0.688995,-0.18117
1631023458259,-0.689178,0.688202,-0.180987
1631023458269,-0.690337,0.687897,-0.17934
1631023458279,-0.689971,0.687348,-0.180499
1631023458288,-0.689971,0.6898489999999999,-0.18239
1631023458298,-0.690947,0.6916789999999999,-0.183732
1631023458307,-0.690215,0.6925939999999999,-0.18409799999999998
1631023458317,-0.691191,0.691008,-0.18178
1631023458327,-0.692228,0.6925939999999999,-0.179828
1631023458336,-0.693326,0.692655,-0.179096
1631023458346,-0.692167,0.693875,-0.178791
1631023458355,-0.6916789999999999,0.697047,-0.17873
1631023458365,-0.6925939999999999,0.698389,-0.178974
1631023458375,-0.692716,0.699853,-0.177449
1631023458384,-0.69357,0.700341,-0.177388
1631023458394,-0.692777,0.698694,-0.175924
1631023458403,-0.693997,0.69906,-0.175985
1631023458413,-0.694668,0.697291,-0.1769
1631023458423,-0.69479,0.697596,-0.17873
1631023458432,-0.694668,0.696132,-0.179828
1631023458442,-0.693875,0.694546,-0.181109
1631023458451,-0.6935089999999999,0.69418,-0.181231
1631023458461,-0.69296,0.693692,-0.181475
1631023458471,-0.692716,0.6922889999999999,-0.181658
1631023458480,-0.692167,0.6913739999999999,-0.18257299999999999
1631023458490,-0.69174,0.690642,-0.183
1631023458499,-0.691252,0.690581,-0.182329
1631023458509,-0.690642,0.688812,-0.182634
1631023458519,-0.689727,0.6883239999999999,-0.183915
1631023458528,-0.6901539999999999,0.688812,-0.184281
1631023458538,-0.690398,0.687348,-0.18470799999999998
1631023458547,-0.6907639999999999,0.687287,-0.185135
1631023458557,-0.6910689999999999,0.6871039999999999,-0.185562
1631023458567,-0.6901539999999999,0.6877139999999999,-0.185562
1631023458576,-0.6907639999999999,0.6867989999999999,-0.186355
1631023458586,-0.690642,0.686982,-0.18544
1631023458595,-0.6913739999999999,0.685762,-0.185684
1631023458605,-0.690886,0.6858839999999999,-0.18727
1631023458615,-0.69052,0.68686,-0.187941
1631023458624,-0.690825,0.687775,-0.188063
1631023458634,-0.6907639999999999,0.687836,-0.18788
1631023458643,-0.69113,0.688751,-0.187758
1631023458653,-0.690032,0.688263,-0.18727
1631023458663,-0.689056,0.68991,-0.186904
1631023458672,-0.68991,0.6898489999999999,-0.185684
1631023458682,-0.689605,0.692533,-0.18361
1631023458691,-0.688812,0.6919839999999999,-0.182634
1631023458701,-0.688568,0.692777,-0.18239
1631023458711,-0.688507,0.695034,-0.181536
1631023458720,-0.6895439999999999,0.695766,-0.18226799999999999
1631023458730,-0.689178,0.698023,-0.181292
1631023458739,-0.689727,0.697718,-0.181231
1631023458749,-0.689483,0.69784,-0.181048
1631023458759,-0.690337,0.698816,-0.181292
1631023458768,-0.6907639999999999,0.698145,-0.180987
1631023458778,-0.690337,0.69723,-0.180865
1631023458787,-0.689666,0.696864,-0.181658
1631023458797,-0.689605,0.695705,-0.181048
1631023458807,-0.689666,0.6941189999999999,-0.181475
1631023458816,-0.689666,0.695339,-0.181902
1631023458826,-0.689056,0.695522,-0.181658
1631023458835,-0.6877139999999999,0.694912,-0.181414
1631023458845,-0.688507,0.6938139999999999,-0.181597
1631023458855,-0.68747,0.69357,-0.180743
1631023458864,-0.688263,0.6935089999999999,-0.181292
1631023458874,-0.68869,0.693326,-0.181353
1631023458883,-0.688812,0.69357,-0.18239
1631023458893,-0.687897,0.6935089999999999,-0.181902
1631023458903,-0.68869,0.695461,-0.18196299999999999
1631023458912,-0.688202,0.695766,-0.18239
1631023458922,-0.687592,0.695278,-0.183976
1631023458931,-0.687226,0.694973,-0.185135
1631023458941,-0.6858839999999999,0.696254,-0.185196
1631023458951,-0.684786,0.695766,-0.183915
1631023458960,-0.6846639999999999,0.693265,-0.18226799999999999
1631023458970,-0.6846639999999999,0.690825,-0.179218
1631023458979,-0.685762,0.690886,-0.17885199999999998
1631023458989,-0.685152,0.692655,-0.17873
1631023458999,-0.687348,0.694973,-0.17995
1631023459008,-0.686677,0.696925,-0.180133
1631023459018,-0.687592,0.696986,-0.17934
1631023459027,-0.687592,0.695278,-0.17995
1631023459037,-0.688385,0.697047,-0.179096
1631023459047,-0.687592,0.697352,-0.177876
1631023459056,-0.6880189999999999,0.698816,-0.176778
1631023459066,-0.6886289999999999,0.698877,-0.17580199999999999
1631023459075,-0.688263,0.69845,-0.173484
1631023459085,-0.688568,0.69906,-0.173728
1631023459095,-0.6889339999999999,0.699853,-0.172874
1631023459104,-0.689605,0.701195,-0.172935
1631023459114,-0.6907639999999999,0.700951,-0.174155
1631023459123,-0.69113,0.701317,-0.174948
1631023459133,-0.691008,0.700707,-0.175741
1631023459143,-0.690581,0.700219,-0.17641199999999999
1631023459152,-0.690581,0.699609,-0.174887
1631023459162,-0.690276,0.697657,-0.175131
1631023459171,-0.688812,0.696864,-0.174582
1631023459181,-0.689483,0.696925,-0.174948
1631023459191,-0.689666,0.696986,-0.175192
1631023459200,-0.688507,0.696132,-0.175192
1631023459210,-0.68808,0.696071,-0.176046
1631023459219,-0.6883239999999999,0.696681,-0.178059
1631023459229,-0.688812,0.6954,-0.17854699999999998
1631023459239,-0.68808,0.69479,-0.178181
1631023459248,-0.687836,0.693326,-0.177571
1631023459258,-0.688263,0.693448,-0.1769
1631023459267,-0.6867989999999999,0.695339,-0.17732699999999998
1631023459277,-0.6877139999999999,0.695217,-0.17702199999999998
1631023459287,-0.687592,0.697291,-0.176229
1631023459296,-0.68747,0.69662,-0.177266
1631023459306,-0.686738,0.69601,-0.17641199999999999
1631023459315,-0.6871039999999999,0.696742,-0.176229
1631023459325,-0.686433,0.697535,-0.175558
1631023459335,-0.686372,0.697047,-0.17568
1631023459344,-0.686555,0.697474,-0.17629
1631023459354,-0.687043,0.696742,-0.176351
1631023459363,-0.686921,0.696315,-0.17629
1631023459373,-0.68686,0.696742,-0.176656
1631023459383,-0.68686,0.69662,-0.176961
1631023459392,-0.686433,0.696864,-0.176656
1631023459402,-0.6864939999999999,0.697108,-0.176351
1631023459411,-0.6871039999999999,0.69662,-0.17641199999999999
1631023459421,-0.6877139999999999,0.696681,-0.1769
1631023459431,-0.687592,0.697169,-0.175741
1631023459440,-0.687531,0.696864,-0.175497
1631023459450,-0.687836,0.696803,-0.175985
1631023459459,-0.688385,0.698267,-0.17610699999999999
1631023459469,-0.688873,0.69906,-0.17629
1631023459479,-0.688995,0.699121,-0.175558
1631023459488,-0.687836,0.698938,-0.175314
1631023459498,-0.688812,0.69845,-0.175741
1631023459507,-0.688202,0.697169,-0.175619
1631023459517,-0.68808,0.696742,-0.17580199999999999
1631023459527,-0.68869,0.69784,-0.17641199999999999
1631023459536,-0.688568,0.698023,-0.177144
1631023459546,-0.68808,0.697474,-0.177998
1631023459555,-0.68808,0.697169,-0.177083
1631023459565,-0.688141,0.696681,-0.176656
1631023459575,-0.687958,0.696681,-0.177144
1631023459584,-0.687836,0.696864,-0.177876
1631023459594,-0.687897,0.696742,-0.17751
1631023459603,-0.687958,0.696498,-0.176839
1631023459613,-0.686311,0.69784,-0.17732699999999998
1631023459623,-0.68686,0.697413,-0.1769
1631023459632,-0.686738,0.697352,-0.177083
1631023459642,-0.68625,0.698755,-0.177205
1631023459651,-0.686006,0.69845,-0.17702199999999998
1631023459661,-0.6858839999999999,0.698877,-0.176229
1631023459671,-0.685945,0.699182,-0.175985
1631023459680,-0.68564,0.700402,-0.17610699999999999
1631023459690,-0.685213,0.69967,-0.175253
1631023459699,-0.685396,0.699792,-0.175131
1631023459709,-0.6849689999999999,0.700158,-0.174643
1631023459719,-0.685823,0.698999,-0.174094
1631023459728,-0.68564,0.69967,-0.174765
1631023459738,-0.685396,0.700036,-0.17446
1631023459747,-0.68442,0.700219,-0.173911
1631023459757,-0.6855789999999999,0.699914,-0.174338
1631023459767,-0.6861889999999999,0.699548,-0.173179
1631023459776,-0.686067,0.698755,-0.173545
1631023459786,-0.686372,0.699792,-0.173362
1631023459795,-0.688141,0.699731,-0.173728
1631023459805,-0.6877139999999999,0.700097,-0.17360599999999998
1631023459815,-0.6886289999999999,0.700585,-0.175436
1631023459824,-0.689605,0.701256,-0.175924
1631023459834,-0.68869,0.701378,-0.176229
1631023459843,-0.688202,0.699731,-0.17824199999999998
1631023459853,-0.687043,0.698938,-0.17885199999999998
1631023459863,-0.686067,0.698816,-0.179279
1631023459872,-0.684908,0.69784,-0.177083
1631023459882,-0.684542,0.694241,-0.17385
1631023459891,-0.686006,0.694485,-0.171837
1631023459901,-0.6864939999999999,0.696071,-0.17263
1631023459911,-0.686677,0.698389,-0.173667
1631023459920,-0.687653,0.699792,-0.17507
1631023459930,-0.687531,0.700768,-0.17610699999999999
1631023459939,-0.68747,0.698938,-0.175192
1631023459949,-0.687043,0.698206,-0.175375
1631023459959,-0.687165,0.697657,-0.174094
1631023459968,-0.687836,0.698023,-0.173789
1631023459978,-0.687775,0.697657,-0.172569
1631023459987,-0.687775,0.698938,-0.172508
1631023459997,-0.687592,0.699426,-0.17177599999999998
1631023460007,-0.688446,0.699975,-0.17263
1631023460016,-0.688995,0.699914,-0.172142
1631023460026,-0.688263,0.699548,-0.17263
1631023460035,-0.6892389999999999,0.700158,-0.173972
1631023460045,-0.688141,0.699243,-0.174643
1631023460055,-0.688873,0.698694,-0.17580199999999999
1631023460064,-0.6886289999999999,0.696986,-0.17580199999999999
1631023460074,-0.68869,0.696925,-0.175436
1631023460083,-0.687165,0.696925,-0.175253
1631023460093,-0.687531,0.696986,-0.175619
1631023460103,-0.6877139999999999,0.698267,-0.174826
1631023460112,-0.686616,0.698267,-0.173545
1631023460122,-0.685945,0.697657,-0.174948
1631023460131,-0.686311,0.698633,-0.176534
1631023460141,-0.685213,0.699182,-0.177449
1631023460151,-0.685396,0.698145,-0.177388
1631023460160,-0.6861889999999999,0.697535,-0.176046
1631023460170,-0.686311,0.697779,-0.175314
1631023460179,-0.684542,0.697291,-0.174094
1631023460189,-0.685701,0.698084,-0.175497
1631023460199,-0.685152,0.700341,-0.174948
1631023460208,-0.6855789999999999,0.701561,-0.174521
1631023460218,-0.68503,0.701378,-0.174826
1631023460227,-0.686738,0.70028,-0.175253
1631023460237,-0.686128,0.70089,-0.175436
1631023460247,-0.6864939999999999,0.70089,-0.175497
1631023460256,-0.686372,0.700829,-0.176656
1631023460266,-0.686433,0.699792,-0.176046
1631023460275,-0.6858839999999999,0.698572,-0.175741
1631023460285,-0.685945,0.698328,-0.175436
1631023460295,-0.685945,0.69906,-0.175314
1631023460304,-0.685945,0.699121,-0.174033
1631023460314,-0.685762,0.700585,-0.175131
1631023460323,-0.685762,0.700402,-0.17568
1631023460333,-0.6858839999999999,0.700341,-0.174399
1631023460343,-0.6864939999999999,0.701012,-0.17507
1631023460352,-0.687287,0.700524,-0.175131
1631023460362,-0.687226,0.700219,-0.175314
1631023460371,-0.68686,0.700524,-0.174216
1631023460381,-0.68747,0.699792,-0.174582
1631023460391,-0.687226,0.699792,-0.175192
1631023460400,-0.6867989999999999,0.700036,-0.173972
1631023460410,-0.686982,0.699365,-0.175558
1631023460419,-0.687165,0.698938,-0.174948
1631023460429,-0.687348,0.698511,-0.175375
1631023460439,-0.686311,0.698572,-0.17641199999999999
1631023460448,-0.686067,0.698267,-0.175863
1631023460458,-0.686067,0.698145,-0.17641199999999999
1631023460467,-0.6861889999999999,0.698206,-0.17671699999999999
1631023460477,-0.685518,0.697657,-0.177266
1631023460487,-0.6855789999999999,0.697779,-0.177388
1631023460496,-0.684542,0.697962,-0.17629
1631023460506,-0.68503,0.698328,-0.176168
1631023460515,-0.6846639999999999,0.698206,-0.175375
1631023460525,-0.684115,0.699548,-0.175131
1631023460535,-0.68442,0.700036,-0.174948
1631023460544,-0.684176,0.701317,-0.175314
1631023460554,-0.68442,0.701195,-0.174704
1631023460563,-0.68442,0.702598,-0.175192
1631023460573,-0.683871,0.701805,-0.173911
1631023460583,-0.683932,0.700829,-0.173057
1631023460592,-0.68381,0.699853,-0.172752
1631023460602,-0.683993,0.699975,-0.17299599999999998
1631023460611,-0.684786,0.700036,-0.174216
1631023460621,-0.684542,0.70211,-0.174155
1631023460631,-0.685335,0.702903,-0.174033
1631023460640,-0.6858839999999999,0.702598,-0.174094
1631023460650,-0.685762,0.701927,-0.174094
1631023460659,-0.684847,0.701073,-0.172874
1631023460669,-0.685457,0.700158,-0.173911
1631023460679,-0.686555,0.700463,-0.174399
1631023460688,-0.6849689999999999,0.70028,-0.17330099999999998
1631023460698,-0.686067,0.699304,-0.173484
1631023460707,-0.686433,0.700768,-0.174765
1631023460717,-0.6861889999999999,0.701744,-0.178303
1631023460727,-0.68564,0.701378,-0.17812
1631023460736,-0.684176,0.69906,-0.17671699999999999
1631023460746,-0.6846639999999999,0.699548,-0.176656
1631023460755,-0.6843589999999999,0.699121,-0.176168
1631023460765,-0.685823,0.699975,-0.17446
1631023460775,-0.686128,0.699975,-0.17238599999999998
1631023460784,-0.685335,0.700036,-0.173118
1631023460794,-0.6858839999999999,0.700097,-0.174033
1631023460803,-0.685945,0.701622,-0.17610699999999999
1631023460813,-0.6864939999999999,0.701256,-0.175985
1631023460823,-0.68564,0.699365,-0.176961
1631023460832,-0.684542,0.696681,-0.176168
1631023460842,-0.6831389999999999,0.696864,-0.175985
1631023460851,-0.683017,0.696071,-0.17641199999999999
1631023460861,-0.682956,0.697352,-0.175741
1631023460871,-0.682956,0.69723,-0.173911
1631023460880,-0.68381,0.698328,-0.17330099999999998
1631023460890,-0.683383,0.699121,-0.17385
1631023460899,-0.684603,0.700951,-0.174033
1631023460909,-0.683322,0.701439,-0.174338
1631023460919,-0.6846639999999999,0.70211,-0.174582
1631023460928,-0.684481,0.702049,-0.17507
1631023460938,-0.684115,0.701988,-0.174826
1631023460947,-0.684176,0.701439,-0.174521
1631023460957,-0.683932,0.70211,-0.173118
1631023460967,-0.684725,0.701988,-0.17141
1631023460976,-0.683932,0.701744,-0.17055599999999999
1631023460986,-0.683322,0.701378,-0.17055599999999999
1631023460995,-0.6837489999999999,0.702781,-0.172935
1631023461005,-0.685701,0.705099,-0.174338
1631023461015,-0.685335,0.704672,-0.175192
1631023461024,-0.685518,0.702598,-0.173911
1631023461034,-0.684542,0.699487,-0.171959
1631023461043,-0.686067,0.700097,-0.172508
1631023461053,-0.685762,0.700707,-0.173667
1631023461063,-0.68564,0.702659,-0.17446
1631023461072,-0.686006,0.7041229999999999,-0.175375
1631023461082,-0.68564,0.7041229999999999,-0.174704
1631023461091,-0.685152,0.70272,-0.17507
1631023461101,-0.6846639999999999,0.702415,-0.174155
1631023461111,-0.684786,0.70211,-0.174216
1631023461120,-0.68442,0.701073,-0.175192
1631023461130,-0.684237,0.700951,-0.174826
1631023461139,-0.68442,0.701927,-0.174277
1631023461149,-0.683993,0.701317,-0.174704
1631023461159,-0.6840539999999999,0.70028,-0.175131
1631023461168,-0.683932,0.699914,-0.175009
1631023461178,-0.6837489999999999,0.700646,-0.174704
1631023461187,-0.6840539999999999,0.700158,-0.176351
1631023461197,-0.684725,0.699243,-0.17702199999999998
1631023461207,-0.684481,0.698816,-0.177083
1631023461216,-0.68564,0.698389,-0.17629
1631023461226,-0.6846639999999999,0.697962,-0.176046
1631023461235,-0.684603,0.698084,-0.175741
1631023461245,-0.68503,0.697474,-0.175741
1631023461255,-0.685518,0.698816,-0.175619
1631023461264,-0.686128,0.697901,-0.17629
1631023461274,-0.686433,0.698877,-0.176534
1631023461283,-0.68686,0.697108,-0.177205
1631023461293,-0.686433,0.6954,-0.17671699999999999
1631023461303,-0.686555,0.696376,-0.17671699999999999
1631023461312,-0.687836,0.696742,-0.176473
1631023461322,-0.686738,0.697901,-0.176168
1631023461331,-0.68747,0.697779,-0.175253
1631023461341,-0.68747,0.697962,-0.174521
1631023461351,-0.687348,0.698877,-0.174826
1631023461360,-0.6877139999999999,0.698389,-0.175131
1631023461370,-0.6877139999999999,0.699365,-0.174582
1631023461379,-0.687165,0.699548,-0.174643
1631023461389,-0.687165,0.699243,-0.174826
1631023461399,-0.6874089999999999,0.699914,-0.174826
1631023461408,-0.6877139999999999,0.700158,-0.174033
1631023461418,-0.686677,0.700158,-0.173972
1631023461427,-0.686128,0.700402,-0.17385
1631023461437,-0.685945,0.700585,-0.173362
1631023461447,-0.685518,0.700524,-0.172874
1631023461456,-0.68503,0.700951,-0.173118
1631023461466,-0.6846639999999999,0.7015,-0.172203
1631023461475,-0.6846639999999999,0.702415,-0.170922
1631023461485,-0.68442,0.702476,-0.17202
1631023461495,-0.684908,0.702415,-0.170922
1631023461504,-0.685091,0.702293,-0.170678
1631023461514,-0.685762,0.701805,-0.16994599999999999
1631023461523,-0.6840539999999999,0.70272,-0.170495
1631023461533,-0.683993,0.701866,-0.16994599999999999
1631023461543,-0.685945,0.702964,-0.170983
1631023461552,-0.686067,0.70333,-0.172874
1631023461562,-0.6849689999999999,0.703086,-0.174399
1631023461571,-0.684908,0.702415,-0.174399
1631023461581,-0.6837489999999999,0.701988,-0.174887
1631023461591,-0.683871,0.701378,-0.174338
1631023461600,-0.683871,0.69906,-0.171532
1631023461610,-0.684542,0.698938,-0.169458
1631023461619,-0.68442,0.699487,-0.170129
1631023461629,-0.6849689999999999,0.701256,-0.170373
1631023461639,-0.685945,0.701317,-0.171227
1631023461648,-0.6864939999999999,0.701622,-0.172264
1631023461658,-0.685457,0.700646,-0.170922
1631023461667,-0.684786,0.701012,-0.17116599999999998
1631023461677,-0.684603,0.700646,-0.171288
1631023461687,-0.6843589999999999,0.701256,-0.169702
1631023461696,-0.684237,0.700463,-0.168604
1631023461706,-0.684237,0.701012,-0.168238
1631023461715,-0.6849689999999999,0.700951,-0.16744499999999998
1631023461725,-0.685152,0.701988,-0.16683499999999998
1631023461735,-0.686006,0.702842,-0.167201
1631023461744,-0.686921,0.703452,-0.168482
1631023461754,-0.686555,0.703879,-0.168604
1631023461763,-0.6855789999999999,0.70394,-0.17025099999999999
1631023461773,-0.6858839999999999,0.702964,-0.170129
1631023461783,-0.6858839999999999,0.701805,-0.168787
1631023461792,-0.686128,0.701256,-0.169031
1631023461802,-0.685945,0.701134,-0.169336
1631023461811,-0.685152,0.701012,-0.168421
1631023461821,-0.685823,0.701012,-0.168238
1631023461831,-0.6846639999999999,0.701195,-0.167872
1631023461840,-0.6832,0.701012,-0.16958
1631023461850,-0.685152,0.703025,-0.170678
1631023461859,-0.6852739999999999,0.70455,-0.172264
1631023461869,-0.6837489999999999,0.70272,-0.17116599999999998
1631023461879,-0.68442,0.701134,-0.169763
1631023461888,-0.68442,0.700707,-0.168726
1631023461898,-0.6840539999999999,0.701744,-0.168665
1631023461907,-0.684115,0.703757,-0.169763
1631023461917,-0.68381,0.704977,-0.169824
1631023461927,-0.6837489999999999,0.704184,-0.17055599999999999
1631023461936,-0.684237,0.703452,-0.16994599999999999
1631023461946,-0.683566,0.7038179999999999,-0.170739
1631023461955,-0.683627,0.702598,-0.170068
1631023461965,-0.683871,0.702293,-0.169397
1631023461975,-0.6834439999999999,0.702964,-0.169275
1631023461984,-0.683932,0.703086,-0.169275
1631023461994,-0.683017,0.702781,-0.169092
1631023462003,-0.68442,0.702293,-0.169397
1631023462013,-0.683993,0.702049,-0.16994599999999999
1631023462023,-0.683871,0.701988,-0.170678
1631023462032,-0.6846639999999999,0.701439,-0.17055599999999999
1631023462042,-0.6840539999999999,0.701988,-0.170068
1631023462051,-0.684115,0.702171,-0.170007
1631023462061,-0.685091,0.701561,-0.16994599999999999
1631023462071,-0.684298,0.701134,-0.168665
1631023462080,-0.685152,0.700768,-0.169336
1631023462090,-0.685152,0.701683,-0.169763
1631023462099,-0.685762,0.7015,-0.170434
1631023462109,-0.6864939999999999,0.701134,-0.17019
1631023462119,-0.686616,0.700524,-0.170678
1631023462128,-0.686616,0.700707,-0.17116599999999998
1631023462138,-0.686433,0.69967,-0.170129
1631023462147,-0.6864939999999999,0.699365,-0.170373
1631023462157,-0.686311,0.700341,-0.170739
1631023462167,-0.6855789999999999,0.699975,-0.17025099999999999
1631023462176,-0.686128,0.70028,-0.17055599999999999
1631023462186,-0.686128,0.700524,-0.169336
1631023462195,-0.685518,0.700829,-0.169885
1631023462205,-0.684542,0.700768,-0.169702
1631023462215,-0.684847,0.701256,-0.170739
1631023462224,-0.685152,0.701439,-0.170678
1631023462234,-0.685213,0.701988,-0.169702
1631023462243,-0.6855789999999999,0.702659,-0.17019
1631023462253,-0.684786,0.703574,-0.169153
1631023462263,-0.6846639999999999,0.7041229999999999,-0.168238
1631023462272,-0.684603,0.703757,-0.168055
1631023462282,-0.684603,0.703696,-0.167201
1631023462291,-0.683871,0.703086,-0.167262
1631023462301,-0.683261,0.70394,-0.166408
1631023462311,-0.682712,0.704611,-0.166469
1631023462320,-0.6828339999999999,0.705282,-0.165737
1631023462330,-0.6831389999999999,0.7062579999999999,-0.16561499999999998
1631023462339,-0.683261,0.705221,-0.164944
1631023462349,-0.683566,0.70394,-0.164456
1631023462359,-0.683688,0.704062,-0.164151
1631023462368,-0.684176,0.70455,-0.16469999999999999
1631023462378,-0.683566,0.703757,-0.16530999999999998
1631023462387,-0.685091,0.7053429999999999,-0.165066
1631023462397,-0.685945,0.707356,-0.166652
1631023462407,-0.684237,0.705526,-0.16775
1631023462416,-0.684542,0.704184,-0.168909
1631023462426,-0.683932,0.705221,-0.169458
1631023462435,-0.682407,0.704672,-0.170617
1631023462445,-0.682102,0.703147,-0.16958
1631023462455,-0.68137,0.70028,-0.16561499999999998
1631023462464,-0.6819189999999999,0.69967,-0.164822
1631023462474,-0.682773,0.702049,-0.164822
1631023462483,-0.683017,0.703574,-0.166469
1631023462493,-0.683627,0.704367,-0.168848
1631023462503,-0.6840539999999999,0.703757,-0.16958
1631023462512,-0.684237,0.703269,-0.168238
1631023462522,-0.6837489999999999,0.702781,-0.167018
1631023462531,-0.683627,0.703147,-0.16652999999999998
1631023462541,-0.682712,0.704489,-0.165493
1631023462551,-0.6837489999999999,0.70455,-0.164944
1631023462560,-0.6831389999999999,0.704245,-0.164822
1631023462570,-0.683993,0.704489,-0.164578
1631023462579,-0.68381,0.7050379999999999,-0.163968
1631023462589,-0.6852739999999999,0.704367,-0.16622499999999998
1631023462599,-0.685396,0.70394,-0.166896
1631023462608,-0.685335,0.703757,-0.167506
1631023462618,-0.686555,0.704184,-0.168177
1631023462627,-0.6852739999999999,0.704306,-0.167506
1631023462637,-0.685457,0.703269,-0.167933
1631023462647,-0.685152,0.703635,-0.166774
1631023462656,-0.684847,0.702781,-0.167323
1631023462666,-0.684786,0.701805,-0.168116
1631023462675,-0.683932,0.703757,-0.16622499999999998
1631023462685,-0.685396,0.701561,-0.167262
1631023462695,-0.683566,0.7032079999999999,-0.167262
1631023462704,-0.682956,0.705404,-0.167933
1631023462714,-0.683627,0.704977,-0.17019
1631023462723,-0.684115,0.704062,-0.170129
1631023462733,-0.684847,0.702232,-0.169031
1631023462743,-0.683322,0.702171,-0.166286
1631023462752,-0.681797,0.7032079999999999,-0.165188
1631023462762,-0.6819189999999999,0.703452,-0.167628
1631023462771,-0.682468,0.704977,-0.167201
1631023462781,-0.6822239999999999,0.7059529999999999,-0.166713
1631023462791,-0.683017,0.704184,-0.167872
1631023462800,-0.683261,0.7059529999999999,-0.168726
1631023462810,-0.683383,0.705709,-0.16897
1631023462819,-0.682773,0.703879,-0.167018
1631023462829,-0.682468,0.704794,-0.166347
1631023462839,-0.683566,0.7041229999999999,-0.16713999999999998
1631023462848,-0.68442,0.704672,-0.166774
1631023462858,-0.684725,0.7038179999999999,-0.167323
1631023462867,-0.685091,0.704367,-0.168482
1631023462877,-0.684847,0.705099,-0.168604
1631023462887,-0.6840539999999999,0.704611,-0.167933
1631023462896,-0.6843589999999999,0.703147,-0.166408
1631023462906,-0.685152,0.702964,-0.166469
1631023462915,-0.685701,0.704062,-0.167201
1631023462925,-0.6852739999999999,0.702354,-0.16622499999999998
1631023462935,-0.686128,0.702354,-0.166042
1631023462944,-0.686616,0.702476,-0.16744499999999998
1631023462954,-0.687653,0.701988,-0.168604
1631023462963,-0.6877139999999999,0.701866,-0.167323
1631023462973,-0.6871039999999999,0.700707,-0.167384
1631023462983,-0.6874089999999999,0.700707,-0.168726
1631023462992,-0.686372,0.700158,-0.168177
1631023463002,-0.687836,0.698694,-0.168848
1631023463011,-0.686921,0.70028,-0.168665
1631023463021,-0.6871039999999999,0.698938,-0.169641
1631023463031,-0.686555,0.698511,-0.168116
1631023463040,-0.686128,0.699853,-0.168848
1631023463050,-0.685518,0.698999,-0.169031
1631023463059,-0.685518,0.700524,-0.167872
1631023463069,-0.684725,0.699792,-0.168604
1631023463079,-0.685091,0.700646,-0.166713
1631023463088,-0.684786,0.701561,-0.168299
1631023463098,-0.6855789999999999,0.702171,-0.16775
1631023463107,-0.684542,0.703147,-0.167079
1631023463117,-0.684908,0.702537,-0.166347
1631023463127,-0.684115,0.702964,-0.166774
1631023463136,-0.68381,0.704306,-0.166713
1631023463146,-0.683383,0.703696,-0.166957
1631023463155,-0.683017,0.704062,-0.165981
1631023463165,-0.683566,0.703269,-0.164944
1631023463175,-0.6834439999999999,0.702842,-0.16408999999999999
1631023463184,-0.68259,0.7041229999999999,-0.164944
1631023463194,-0.682468,0.705099,-0.164944
1631023463203,-0.683078,0.706441,-0.165493
1631023463213,-0.6832,0.706746,-0.16530999999999998
1631023463223,-0.683871,0.70638,-0.165676
1631023463232,-0.684115,0.705892,-0.164517
1631023463242,-0.683017,0.704611,-0.164578
1631023463251,-0.683993,0.7041229999999999,-0.165127
1631023463261,-0.6843589999999999,0.705526,-0.164761
1631023463271,-0.682468,0.7044279999999999,-0.165188
1631023463280,-0.684603,0.7059529999999999,-0.165798
1631023463290,-0.684237,0.706136,-0.165981
1631023463299,-0.682041,0.704672,-0.169214
1631023463309,-0.681248,0.70455,-0.168604
1631023463319,-0.681492,0.703696,-0.169214
1631023463328,-0.680943,0.703086,-0.168238
1631023463338,-0.681858,0.701195,-0.166774
1631023463347,-0.6828339999999999,0.701866,-0.164883
1631023463357,-0.684176,0.703757,-0.163968
1631023463367,-0.683932,0.705282,-0.164151
1631023463376,-0.683932,0.707051,-0.165371
1631023463386,-0.683627,0.706502,-0.165981
1631023463395,-0.6843589999999999,0.70516,-0.166774
1631023463405,-0.683322,0.70394,-0.166286
1631023463415,-0.682712,0.702842,-0.167079
1631023463424,-0.6825289999999999,0.70211,-0.165798
1631023463434,-0.682102,0.703025,-0.165676
1631023463443,-0.682102,0.7032079999999999,-0.163846
1631023463453,-0.682285,0.703147,-0.163114
1631023463463,-0.682773,0.704184,-0.162748
1631023463472,-0.682407,0.705282,-0.163663
1631023463482,-0.683322,0.705282,-0.164334
1631023463491,-0.684725,0.706075,-0.166286
1631023463501,-0.684176,0.706319,-0.166408
1631023463511,-0.683993,0.705587,-0.165554
1631023463520,-0.684237,0.705282,-0.16530999999999998
1631023463530,-0.68503,0.705221,-0.16469999999999999
1631023463539,-0.683505,0.705465,-0.164212
1631023463549,-0.6837489999999999,0.705099,-0.16408999999999999
1631023463559,-0.683993,0.705282,-0.163541
1631023463568,-0.684542,0.704916,-0.164334
1631023463578,-0.681492,0.7044279999999999,-0.164883
1631023463587,-0.683871,0.705404,-0.167323
1631023463597,-0.683688,0.706502,-0.168543
1631023463607,-0.6825289999999999,0.703269,-0.167933
1631023463616,-0.683566,0.70211,-0.165676
1631023463626,-0.683627,0.70272,-0.165493
1631023463635,-0.6828339999999999,0.703269,-0.165371
1631023463645,-0.6822239999999999,0.7056479999999999,-0.16652999999999998
1631023463655,-0.6834439999999999,0.706624,-0.166469
1631023463664,-0.682102,0.70699,-0.16652999999999998
1631023463674,-0.6816139999999999,0.706502,-0.165676
1631023463683,-0.682468,0.705526,-0.165737
1631023463693,-0.683078,0.70516,-0.166408
1631023463703,-0.6822239999999999,0.7062579999999999,-0.166652
1631023463712,-0.6828339999999999,0.705526,-0.166469
1631023463722,-0.681736,0.7053429999999999,-0.166896
1631023463731,-0.68259,0.704916,-0.166713
1631023463741,-0.682712,0.7047329999999999,-0.166591
1631023463751,-0.682163,0.70516,-0.166408
1631023463760,-0.6822239999999999,0.705221,-0.16652999999999998
1631023463770,-0.682651,0.7059529999999999,-0.167384
1631023463779,-0.683383,0.706746,-0.167628
1631023463789,-0.682773,0.706075,-0.168177
1631023463799,-0.683627,0.705282,-0.168299
1631023463808,-0.6834439999999999,0.704611,-0.168238
1631023463818,-0.6837489999999999,0.703635,-0.16744499999999998
1631023463827,-0.682956,0.7032079999999999,-0.167567
1631023463837,-0.684298,0.703086,-0.166774
1631023463847,-0.682468,0.702476,-0.16744499999999998
1631023463856,-0.683322,0.7035129999999999,-0.168299
1631023463866,-0.6832,0.703635,-0.167384
1631023463875,-0.683871,0.70394,-0.168238
1631023463885,-0.683932,0.7038179999999999,-0.167811
1631023463895,-0.683322,0.703269,-0.169458
1631023463904,-0.683322,0.701927,-0.169702
1631023463914,-0.682895,0.701256,-0.169458
1631023463923,-0.6822239999999999,0.701256,-0.16897
1631023463933,-0.681492,0.701927,-0.167994
1631023463943,-0.682163,0.700829,-0.168421
1631023463952,-0.682346,0.70211,-0.168482
1631023463962,-0.682102,0.701988,-0.167628
1631023463971,-0.681736,0.700951,-0.167384
1631023463981,-0.682163,0.702598,-0.167811
1631023463991,-0.681492,0.702598,-0.16713999999999998
1631023464000,-0.680882,0.703086,-0.166652
1631023464010,-0.680943,0.702415,-0.166652
1631023464019,-0.681492,0.7032079999999999,-0.165676
1631023464029,-0.68198,0.7050379999999999,-0.165554
1631023464039,-0.6810039999999999,0.705465,-0.165127
1631023464048,-0.682102,0.7059529999999999,-0.165188
1631023464058,-0.68137,0.707234,-0.164151
1631023464067,-0.682285,0.70699,-0.162931
1631023464077,-0.682956,0.706929,-0.163846
1631023464087,-0.683383,0.70638,-0.16408999999999999
1631023464096,-0.684542,0.707539,-0.16439499999999999
1631023464106,-0.68442,0.708027,-0.163846
1631023464115,-0.6822239999999999,0.7074779999999999,-0.163907
1631023464125,-0.684115,0.706319,-0.164334
1631023464135,-0.684298,0.707722,-0.16713999999999998
1631023464144,-0.6834439999999999,0.70882,-0.16775
1631023464154,-0.682468,0.706014,-0.165554
1631023464163,-0.68198,0.70455,-0.164212
1631023464173,-0.681858,0.7053429999999999,-0.164944
1631023464183,-0.682773,0.707905,-0.164944
1631023464192,-0.682346,0.708637,-0.162992
1631023464202,-0.6834439999999999,0.7074779999999999,-0.161223
1631023464211,-0.683322,0.707905,-0.162138
1631023464221,-0.6831389999999999,0.7090029999999999,-0.163907
1631023464231,-0.6825289999999999,0.709796,-0.165188
1631023464240,-0.682285,0.7090029999999999,-0.166042
1631023464250,-0.681736,0.706929,-0.164883
1631023464259,-0.680882,0.70455,-0.164822
1631023464269,-0.68076,0.703879,-0.163236
1631023464279,-0.681065,0.704306,-0.163968
1631023464288,-0.6806989999999999,0.704306,-0.16287
1631023464298,-0.681431,0.704184,-0.162748
1631023464307,-0.6816139999999999,0.704489,-0.163663
1631023464317,-0.6819189999999999,0.704672,-0.163907
1631023464327,-0.682285,0.705099,-0.165676
1631023464336,-0.683078,0.70577,-0.166347
1631023464346,-0.683261,0.70455,-0.167018
1631023464355,-0.683261,0.704184,-0.166774
1631023464365,-0.683688,0.702171,-0.166408
1631023464375,-0.682407,0.702049,-0.165066
1631023464384,-0.683932,0.701317,-0.164639
1631023464394,-0.683078,0.701805,-0.163236
1631023464403,-0.683627,0.701988,-0.16287
1631023464413,-0.684176,0.7015,-0.163724
1631023464423,-0.6837489999999999,0.70211,-0.16591999999999998
1631023464432,-0.685762,0.7044279999999999,-0.167811
1631023464442,-0.685091,0.705526,-0.16897
1631023464451,-0.684298,0.701744,-0.16713999999999998
1631023464461,-0.684725,0.700707,-0.165493
1631023464471,-0.685457,0.7015,-0.165798
1631023464480,-0.685518,0.702598,-0.16622499999999998
1631023464490,-0.684725,0.704184,-0.166042
1631023464499,-0.684298,0.704916,-0.166347
1631023464509,-0.684603,0.7062579999999999,-0.165066
1631023464519,-0.683871,0.7056479999999999,-0.165188
1631023464528,-0.683627,0.706685,-0.164517
1631023464538,-0.683383,0.706807,-0.16408999999999999
1631023464547,-0.684176,0.708027,-0.163968
1631023464557,-0.6831389999999999,0.707234,-0.16439499999999999
1631023464567,-0.6832,0.7065629999999999,-0.164883
1631023464576,-0.683688,0.706502,-0.163968
1631023464586,-0.6828339999999999,0.7059529999999999,-0.163175
1631023464595,-0.681553,0.705892,-0.16348
1631023464605,-0.683322,0.704916,-0.163419
1631023464615,-0.683383,0.704977,-0.163846
1631023464624,-0.682895,0.7053429999999999,-0.16348
1631023464634,-0.684176,0.703757,-0.163846
1631023464643,-0.68381,0.702293,-0.163907
1631023464653,-0.683688,0.7015,-0.164334
1631023464663,-0.684481,0.7015,-0.164578
1631023464672,-0.686006,0.701134,-0.165066
1631023464682,-0.685518,0.701439,-0.165432
1631023464691,-0.68686,0.700158,-0.165859
1631023464701,-0.686982,0.700219,-0.165981
1631023464711,-0.68625,0.700402,-0.165676
1631023464720,-0.686311,0.699609,-0.165188
1631023464730,-0.686128,0.698999,-0.165981
1631023464739,-0.686738,0.699487,-0.165737
1631023464749,-0.686616,0.699243,-0.16652999999999998
1631023464759,-0.686128,0.69967,-0.166164
1631023464768,-0.686433,0.70028,-0.16561499999999998
1631023464778,-0.68564,0.700707,-0.165066
1631023464787,-0.68625,0.700219,-0.164761
1631023464797,-0.68564,0.701073,-0.164273
1631023464807,-0.684908,0.701927,-0.163785
1631023464816,-0.684847,0.7032079999999999,-0.163541
1631023464826,-0.6846639999999999,0.703452,-0.162016
1631023464835,-0.684786,0.7041229999999999,-0.163053
1631023464845,-0.6843589999999999,0.704062,-0.162626
1631023464855,-0.6843589999999999,0.704916,-0.162443
1631023464864,-0.6840539999999999,0.70394,-0.161406
1631023464874,-0.683261,0.704977,-0.16165
1631023464883,-0.683383,0.704367,-0.161101
1631023464893,-0.683017,0.7056479999999999,-0.160796
1631023464903,-0.682712,0.70699,-0.15914899999999998
1631023464912,-0.682712,0.707112,-0.159332
1631023464922,-0.6831389999999999,0.707112,-0.157624
1631023464931,-0.684237,0.707295,-0.157502
1631023464941,-0.684542,0.706746,-0.156831
1631023464951,-0.685091,0.7068679999999999,-0.158112
1631023464960,-0.685213,0.707417,-0.158356
1631023464970,-0.6849689999999999,0.707722,-0.15921
1631023464979,-0.686616,0.708454,-0.159088
1631023464989,-0.684786,0.709735,-0.159576
1631023464999,-0.6840539999999999,0.7076,-0.160308
1631023465008,-0.683932,0.7065629999999999,-0.160247
1631023465018,-0.682651,0.7059529999999999,-0.161894
1631023465027,-0.682895,0.705526,-0.16165
1631023465037,-0.681431,0.702598,-0.15982
1631023465047,-0.6828339999999999,0.7015,-0.157746
1631023465056,-0.683688,0.702476,-0.157136
1631023465066,-0.683688,0.7038179999999999,-0.157868
1631023465075,-0.684603,0.70516,-0.158783
1631023465085,-0.6843589999999999,0.7065629999999999,-0.159637
1631023465095,-0.684237,0.704672,-0.159698
1631023465104,-0.683993,0.704184,-0.158722
1631023465114,-0.6828339999999999,0.70333,-0.158173
1631023465123,-0.6832,0.704245,-0.15799
1631023465133,-0.68259,0.704489,-0.156953
1631023465143,-0.683383,0.7050379999999999,-0.15512299999999998
1631023465152,-0.683688,0.705404,-0.15481799999999998
1631023465162,-0.684237,0.705831,-0.154452
1631023465171,-0.684725,0.706807,-0.154635
1631023465181,-0.685213,0.707234,-0.156526
1631023465191,-0.685457,0.706929,-0.15677
1631023465200,-0.685823,0.707234,-0.156892
1631023465210,-0.685823,0.70699,-0.158417
1631023465219,-0.68564,0.706929,-0.157746
1631023465229,-0.6846639999999999,0.707356,-0.157563
1631023465239,-0.684786,0.7065629999999999,-0.156953
1631023465248,-0.683932,0.705465,-0.156526
1631023465258,-0.6832,0.7053429999999999,-0.15616
1631023465267,-0.683688,0.706502,-0.155855
1631023465277,-0.682651,0.7050379999999999,-0.15616
1631023465287,-0.682712,0.706197,-0.158966
1631023465296,-0.683688,0.708332,-0.16036899999999998
1631023465306,-0.683566,0.7083929999999999,-0.16067399999999998
1631023465315,-0.683078,0.7071729999999999,-0.160491
1631023465325,-0.683078,0.7059529999999999,-0.158478
1631023465335,-0.683017,0.706197,-0.158295
1631023465344,-0.682651,0.70638,-0.158478
1631023465354,-0.682712,0.7076,-0.160247
1631023465363,-0.682773,0.70821,-0.159942
1631023465373,-0.6825289999999999,0.707844,-0.159637
1631023465383,-0.682346,0.707234,-0.160308
1631023465392,-0.681858,0.7076,-0.160308
1631023465402,-0.6825289999999999,0.707722,-0.161162
1631023465411,-0.682651,0.707539,-0.161223
1631023465421,-0.6819189999999999,0.707844,-0.160796
1631023465431,-0.681492,0.70699,-0.16036899999999998
1631023465440,-0.6816139999999999,0.706319,-0.160186
1631023465450,-0.68198,0.70638,-0.160918
1631023465459,-0.682468,0.705587,-0.160796
1631023465469,-0.6832,0.707417,-0.16104
1631023465479,-0.6816139999999999,0.707356,-0.161711
1631023465488,-0.6813089999999999,0.7077829999999999,-0.160796
1631023465498,-0.6822239999999999,0.706624,-0.160552
1631023465507,-0.6828339999999999,0.706319,-0.160308
1631023465517,-0.68259,0.70577,-0.160003
1631023465527,-0.683078,0.706136,-0.160308
1631023465536,-0.682651,0.706197,-0.161955
1631023465546,-0.683017,0.7059529999999999,-0.161589
1631023465555,-0.683017,0.706136,-0.162077
1631023465565,-0.684115,0.704672,-0.161955
1631023465575,-0.68259,0.704489,-0.162626
1631023465584,-0.6822239999999999,0.705465,-0.161833
1631023465594,-0.682102,0.704062,-0.161833
1631023465603,-0.681797,0.704794,-0.162382
1631023465613,-0.681187,0.704245,-0.161223
1631023465623,-0.681492,0.704977,-0.161711
1631023465632,-0.681553,0.705282,-0.161101
1631023465642,-0.681858,0.705526,-0.160735
1631023465651,-0.682468,0.7068679999999999,-0.15982
1631023465661,-0.682407,0.707051,-0.160247
1631023465671,-0.681065,0.7076,-0.160003
1631023465680,-0.681797,0.707417,-0.15945399999999998
1631023465690,-0.681126,0.707966,-0.15799
1631023465699,-0.681126,0.709552,-0.157563
1631023465709,-0.680577,0.709369,-0.157624
1631023465719,-0.681065,0.708332,-0.15799
1631023465728,-0.681126,0.708576,-0.15792899999999999
1631023465738,-0.681553,0.70882,-0.157746
1631023465747,-0.681553,0.709064,-0.15738
1631023465757,-0.681431,0.7093079999999999,-0.157807
1631023465767,-0.681431,0.7086979999999999,-0.15884399999999999
1631023465776,-0.681187,0.708454,-0.157258
1631023465786,-0.681065,0.706746,-0.157685
1631023465795,-0.681675,0.707844,-0.157502
1631023465805,-0.68076,0.7080879999999999,-0.15823399999999999
1631023465815,-0.681065,0.708149,-0.157258
1631023465824,-0.681431,0.709064,-0.156526
1631023465834,-0.681553,0.7083929999999999,-0.156099
1631023465843,-0.682041,0.708454,-0.154452
1631023465853,-0.682041,0.708149,-0.155184
1631023465863,-0.682712,0.70821,-0.155367
1631023465872,-0.6816139999999999,0.7077829999999999,-0.155977
1631023465882,-0.683078,0.709064,-0.154879
1631023465891,-0.6834439999999999,0.711199,-0.156587
1631023465901,-0.683688,0.7102229999999999,-0.158722
1631023465911,-0.6828339999999999,0.7090029999999999,-0.159515
1631023465920,-0.681736,0.7090029999999999,-0.160003
1631023465930,-0.679601,0.708576,-0.159942
1631023465939,-0.679113,0.7077829999999999,-0.159881
1631023465949,-0.678137,0.705465,-0.156404
1631023465959,-0.679296,0.7047329999999999,-0.154391
1631023465968,-0.679662,0.706136,-0.153781
1631023465978,-0.679845,0.707966,-0.155184
1631023465987,-0.68015,0.70943,-0.156343
1631023465997,-0.680638,0.709796,-0.156953
1631023466007,-0.680577,0.709735,-0.155794
1631023466016,-0.68076,0.708881,-0.155245
1631023466026,-0.681431,0.709369,-0.154696
1631023466035,-0.681431,0.709857,-0.153659
1631023466045,-0.681248,0.710345,-0.151402
1631023466055,-0.681187,0.710162,-0.150975
1631023466064,-0.68259,0.711626,-0.151585
1631023466074,-0.682895,0.711626,-0.151829
1631023466083,-0.683688,0.711565,-0.152439
1631023466093,-0.6834439999999999,0.7105279999999999,-0.153415
1631023466103,-0.6846639999999999,0.711382,-0.154086
1631023466112,-0.684298,0.711382,-0.154635
1631023466122,-0.684298,0.7108329999999999,-0.154269
1631023466131,-0.682773,0.710772,-0.154757
1631023466141,-0.683871,0.7096129999999999,-0.155184
1631023466151,-0.683505,0.708149,-0.155428
1631023466160,-0.683017,0.707112,-0.15390299999999998
1631023466170,-0.682468,0.708027,-0.154757
1631023466179,-0.682773,0.707966,-0.153964
1631023466189,-0.6813089999999999,0.7059529999999999,-0.154635
1631023466199,-0.680882,0.706502,-0.154696
1631023466208,-0.681431,0.708576,-0.156465
1631023466218,-0.681126,0.707905,-0.15799
1631023466227,-0.681797,0.70699,-0.156526
1631023466237,-0.681858,0.705892,-0.156038
1631023466247,-0.68198,0.705404,-0.156892
1631023466256,-0.682712,0.70638,-0.156709
1631023466266,-0.681553,0.707295,-0.156038
1631023466275,-0.682285,0.707661,-0.15738
1631023466285,-0.68259,0.7076,-0.157319
1631023466295,-0.682102,0.706136,-0.156953
1631023466304,-0.6819189999999999,0.70638,-0.156465
1631023466314,-0.682468,0.706624,-0.156282
1631023466323,-0.6832,0.707051,-0.15677
1631023466333,-0.6837489999999999,0.7077829999999999,-0.156648
1631023466343,-0.683505,0.70821,-0.157746
1631023466352,-0.683322,0.7071729999999999,-0.157014
1631023466362,-0.682712,0.706624,-0.15616
1631023466371,-0.683505,0.707844,-0.15616
1631023466381,-0.682651,0.708454,-0.155062
1631023466391,-0.6819189999999999,0.70882,-0.155184
1631023466400,-0.682651,0.708759,-0.155184
1631023466410,-0.682163,0.708637,-0.155672
1631023466419,-0.681553,0.7083929999999999,-0.155184
1631023466429,-0.682407,0.7083929999999999,-0.15555
1631023466439,-0.681492,0.707966,-0.155184
1631023466448,-0.68137,0.707722,-0.154269
1631023466458,-0.680455,0.7068679999999999,-0.155306
1631023466467,-0.679113,0.708576,-0.15494
1631023466477,-0.67893,0.707844,-0.154391
1631023466487,-0.6771,0.7074779999999999,-0.154696
1631023466496,-0.675636,0.7076,-0.153781
1631023466506,-0.675209,0.707539,-0.153354
1631023466515,-0.674721,0.7074779999999999,-0.15494
1631023466525,-0.674904,0.7076,-0.155062
1631023466535,-0.674538,0.707234,-0.154635
1631023466544,-0.675209,0.706807,-0.154391
1631023466554,-0.676551,0.707112,-0.154879
1631023466563,-0.677344,0.707417,-0.15372
1631023466573,-0.678564,0.7074779999999999,-0.153049
1631023466583,-0.6803939999999999,0.70821,-0.152561
1631023466592,-0.6819189999999999,0.707844,-0.152866
1631023466602,-0.6834439999999999,0.7074779999999999,-0.151585
1631023466611,-0.684176,0.7076,-0.151829
1631023466621,-0.6855789999999999,0.7077829999999999,-0.15207299999999999
1631023466631,-0.6852739999999999,0.707661,-0.151646
1631023466640,-0.685518,0.707417,-0.15128
1631023466650,-0.686311,0.7068679999999999,-0.150914
1631023466659,-0.688202,0.706929,-0.150426
1631023466669,-0.688446,0.707966,-0.149877
1631023466679,-0.688812,0.707844,-0.14835199999999998
1631023466688,-0.687836,0.706807,-0.146888
1631023466698,-0.688446,0.7065629999999999,-0.146095
1631023466707,-0.688812,0.7062579999999999,-0.14579
1631023466717,-0.688751,0.706685,-0.145119
1631023466727,-0.689483,0.708332,-0.144387
1631023466736,-0.689422,0.7102229999999999,-0.144326
1631023466746,-0.6904589999999999,0.71004,-0.143594
1631023466755,-0.68991,0.709735,-0.14280099999999998
1631023466765,-0.688751,0.707966,-0.142313
1631023466775,-0.689422,0.706685,-0.142679
1631023466784,-0.6910689999999999,0.707356,-0.141703
1631023466794,-0.689422,0.707356,-0.14097099999999999
1631023466803,-0.6892389999999999,0.706075,-0.140727
1631023466813,-0.689361,0.7062579999999999,-0.141642
1631023466823,-0.687897,0.706197,-0.144265
1631023466832,-0.687775,0.706746,-0.14579
1631023466842,-0.687226,0.705099,-0.144997
1631023466851,-0.686067,0.703574,-0.145607
1631023466861,-0.685152,0.7035129999999999,-0.144387
1631023466871,-0.686738,0.703635,-0.14219099999999998
1631023466880,-0.6867989999999999,0.70333,-0.14005599999999999
1631023466890,-0.688263,0.705282,-0.138714
1631023466899,-0.687775,0.7062579999999999,-0.141032
1631023466909,-0.687226,0.7074779999999999,-0.142374
1631023466919,-0.686555,0.709125,-0.14158099999999998
1631023466928,-0.6858839999999999,0.706441,-0.142252
1631023466938,-0.6858839999999999,0.704367,-0.142679
1631023466947,-0.68503,0.703757,-0.141825
1631023466957,-0.685152,0.703696,-0.141215
1631023466967,-0.6849689999999999,0.704184,-0.14127599999999998
1631023466976,-0.685213,0.704977,-0.14005599999999999
1631023466986,-0.684481,0.705892,-0.138836
1631023466995,-0.685335,0.707844,-0.138775
1631023467005,-0.686006,0.708881,-0.139324
1631023467015,-0.686616,0.7093079999999999,-0.141032
1631023467024,-0.686921,0.7090029999999999,-0.141764
1631023467034,-0.68686,0.7093079999999999,-0.142069
1631023467043,-0.685823,0.709125,-0.142435
1631023467053,-0.686128,0.708942,-0.141825
1631023467063,-0.686311,0.709369,-0.14152
1631023467072,-0.6858839999999999,0.710101,-0.141093
1631023467082,-0.6858839999999999,0.709186,-0.140788
1631023467091,-0.68625,0.7102229999999999,-0.139019
1631023467101,-0.6849689999999999,0.709674,-0.139934
1631023467111,-0.6849689999999999,0.711077,-0.142069
1631023467120,-0.686311,0.711382,-0.145668
1631023467130,-0.684908,0.709979,-0.145546
1631023467139,-0.684847,0.707844,-0.143899
1631023467149,-0.684542,0.706441,-0.143533
1631023467159,-0.6849689999999999,0.7074779999999999,-0.144814
1631023467168,-0.685091,0.710284,-0.145607
1631023467178,-0.684603,0.711321,-0.1464
1631023467187,-0.6834439999999999,0.7120529999999999,-0.146766
1631023467197,-0.682346,0.71065,-0.146705
1631023467207,-0.681858,0.70821,-0.145912
1631023467216,-0.681797,0.708637,-0.146705
1631023467226,-0.6806989999999999,0.7090029999999999,-0.147071
1631023467235,-0.681492,0.71004,-0.147559
1631023467245,-0.679906,0.710406,-0.14762
1631023467255,-0.678991,0.709857,-0.147681
1631023467264,-0.679418,0.709979,-0.1464
1631023467274,-0.679235,0.7093079999999999,-0.145668
1631023467283,-0.678747,0.709796,-0.145729
1631023467293,-0.678137,0.7105279999999999,-0.146278
1631023467303,-0.678869,0.710955,-0.147254
1631023467312,-0.679296,0.710772,-0.148474
1631023467322,-0.679601,0.710101,-0.147315
1631023467331,-0.679296,0.71004,-0.147559
1631023467341,-0.679967,0.710711,-0.147254
1631023467351,-0.680577,0.711626,-0.145607
1631023467360,-0.680211,0.7108329999999999,-0.14701
1631023467370,-0.6800889999999999,0.7114429999999999,-0.146034
1631023467379,-0.681736,0.710589,-0.14701
1631023467389,-0.682285,0.711565,-0.147559
1631023467399,-0.6813089999999999,0.711565,-0.147559
1631023467408,-0.681126,0.712114,-0.146644
1631023467418,-0.68137,0.7117479999999999,-0.14682699999999999
1631023467427,-0.6819189999999999,0.711382,-0.147376
1631023467437,-0.681248,0.710711,-0.147681
1631023467447,-0.680943,0.7111379999999999,-0.146705
1631023467456,-0.68076,0.711199,-0.145241
1631023467466,-0.680821,0.711016,-0.145668
1631023467475,-0.680577,0.711382,-0.145485
1631023467485,-0.680211,0.711382,-0.145973
1631023467495,-0.680455,0.71065,-0.145058
1631023467504,-0.6803939999999999,0.711931,-0.145973
1631023467514,-0.6797839999999999,0.713212,-0.145729
1631023467523,-0.68015,0.71309,-0.146034
1631023467533,-0.680577,0.7123579999999999,-0.145668
1631023467543,-0.681187,0.7117479999999999,-0.145607
1631023467552,-0.680882,0.711504,-0.144936
1631023467562,-0.680577,0.71126,-0.145241
1631023467571,-0.680272,0.7111379999999999,-0.145241
1631023467581,-0.680211,0.7126629999999999,-0.145912
1631023467591,-0.6803939999999999,0.711626,-0.145607
1631023467600,-0.6803939999999999,0.711077,-0.144692
1631023467610,-0.6797839999999999,0.709857,-0.144631
1631023467619,-0.679296,0.709674,-0.145668
1631023467629,-0.680028,0.709857,-0.145485
1631023467639,-0.68076,0.709735,-0.145973
1631023467648,-0.6822239999999999,0.710467,-0.146034
1631023467658,-0.680882,0.71065,-0.145119
1631023467667,-0.680882,0.711199,-0.145912
1631023467677,-0.682041,0.712907,-0.14652199999999999
1631023467687,-0.681858,0.714127,-0.14926699999999998
1631023467696,-0.68015,0.712297,-0.149206
1631023467706,-0.678564,0.710772,-0.148596
1631023467715,-0.678625,0.7105279999999999,-0.14804699999999998
1631023467725,-0.677893,0.711077,-0.147681
1631023467735,-0.679235,0.711077,-0.144326
1631023467744,-0.6797839999999999,0.7117479999999999,-0.142984
1631023467754,-0.680333,0.712846,-0.142679
1631023467763,-0.681065,0.7141879999999999,-0.143716
1631023467773,-0.682041,0.716201,-0.145607
1631023467783,-0.68198,0.717116,-0.14713199999999999
1631023467792,-0.682651,0.7154079999999999,-0.146156
1631023467802,-0.681858,0.71309,-0.145668
1631023467811,-0.680516,0.712419,-0.144326
1631023467821,-0.680638,0.712846,-0.143716
1631023467831,-0.680028,0.712724,-0.143899
1631023467840,-0.680028,0.71309,-0.143533
1631023467850,-0.680455,0.713456,-0.142984
1631023467859,-0.680028,0.713822,-0.14335
1631023467869,-0.680455,0.713822,-0.14274
1631023467879,-0.679845,0.714127,-0.143228
1631023467888,-0.678198,0.714005,-0.144814
1631023467898,-0.678747,0.713517,-0.145424
1631023467907,-0.677954,0.712907,-0.145119
1631023467917,-0.677832,0.711504,-0.145607
1631023467927,-0.677832,0.711687,-0.144448
1631023467936,-0.678381,0.711809,-0.145119
1631023467946,-0.678747,0.711626,-0.144448
1631023467955,-0.679723,0.710406,-0.143777
1631023467965,-0.679235,0.70882,-0.143716
1631023467975,-0.677832,0.710955,-0.145424
1631023467984,-0.680028,0.7132729999999999,-0.148901
1631023467994,-0.678808,0.7137,-0.149938
1631023468003,-0.679052,0.712114,-0.14835199999999998
1631023468013,-0.680272,0.709979,-0.146949
1631023468023,-0.680455,0.70882,-0.146766
1631023468032,-0.680272,0.7111379999999999,-0.146766
1631023468042,-0.679418,0.7129679999999999,-0.147925
1631023468051,-0.679052,0.714005,-0.147071
1631023468061,-0.679662,0.714432,-0.146949
1631023468071,-0.679296,0.714737,-0.147498
1631023468080,-0.679723,0.715042,-0.146095
1631023468090,-0.6797839999999999,0.715652,-0.1464
1631023468099,-0.679052,0.715591,-0.145912
1631023468109,-0.6791739999999999,0.715286,-0.146339
1631023468119,-0.679052,0.715225,-0.144997
1631023468128,-0.679052,0.714737,-0.144387
1631023468138,-0.677527,0.7147979999999999,-0.144692
1631023468147,-0.678991,0.7157129999999999,-0.145058
1631023468157,-0.679113,0.715774,-0.144448
1631023468167,-0.679113,0.716384,-0.144936
1631023468176,-0.678686,0.71614,-0.144875
1631023468186,-0.678625,0.715957,-0.146766
1631023468195,-0.679296,0.714005,-0.145058
1631023468205,-0.678564,0.713517,-0.1464
1631023468215,-0.678808,0.712846,-0.146156
1631023468224,-0.678808,0.7126629999999999,-0.147254
1631023468234,-0.678564,0.7117479999999999,-0.147315
1631023468243,-0.6791739999999999,0.71126,-0.14774199999999998
1631023468253,-0.679418,0.711016,-0.147925
1631023468263,-0.679601,0.7102229999999999,-0.148474
1631023468272,-0.6791739999999999,0.7102229999999999,-0.148413
1631023468282,-0.678991,0.709247,-0.148413
1631023468291,-0.678381,0.709552,-0.148108
1631023468301,-0.678747,0.709491,-0.14865699999999998
1631023468311,-0.677954,0.7093079999999999,-0.14774199999999998
1631023468320,-0.679418,0.709735,-0.14804699999999998
1631023468330,-0.67893,0.71004,-0.147315
1631023468339,-0.6791739999999999,0.710162,-0.14743699999999998
1631023468349,-0.680272,0.710467,-0.148108
1631023468359,-0.6803939999999999,0.711504,-0.14701
1631023468368,-0.679723,0.712602,-0.147315
1631023468378,-0.680028,0.711992,-0.14701
1631023468387,-0.679845,0.713029,-0.14652199999999999
1631023468397,-0.680333,0.712846,-0.146461
1631023468407,-0.679906,0.712907,-0.14621699999999999
1631023468416,-0.679052,0.711992,-0.146034
1631023468426,-0.678564,0.712419,-0.145241
1631023468435,-0.679418,0.7123579999999999,-0.145546
1631023468445,-0.678991,0.712907,-0.145424
1631023468455,-0.679052,0.712236,-0.144509
1631023468464,-0.679357,0.713334,-0.145363
1631023468474,-0.6794789999999999,0.713944,-0.145058
1631023468483,-0.679113,0.7151029999999999,-0.144326
1631023468493,-0.678747,0.7151029999999999,-0.143289
1631023468503,-0.679845,0.715286,-0.143655
1631023468512,-0.6797839999999999,0.714127,-0.142618
1631023468522,-0.680821,0.715286,-0.142923
1631023468531,-0.681858,0.715164,-0.143289
1631023468541,-0.6813089999999999,0.715652,-0.143533
1631023468551,-0.681431,0.715835,-0.142435
1631023468560,-0.681858,0.7166279999999999,-0.144326
1631023468570,-0.681431,0.7160179999999999,-0.145729
1631023468579,-0.680028,0.714615,-0.14682699999999999
1631023468589,-0.678991,0.7147979999999999,-0.14774199999999998
1631023468599,-0.677832,0.7151029999999999,-0.148169
1631023468608,-0.677954,0.713212,-0.146278
1631023468618,-0.676673,0.7108329999999999,-0.144265
1631023468627,-0.676551,0.7102229999999999,-0.14219099999999998
1631023468637,-0.677527,0.7105279999999999,-0.142984
1631023468647,-0.678625,0.71248,-0.143594
1631023468656,-0.678686,0.7132729999999999,-0.145546
1631023468666,-0.678442,0.713456,-0.145485
1631023468675,-0.678381,0.713029,-0.146278
1631023468685,-0.67893,0.712846,-0.1464
1631023468695,-0.678076,0.712419,-0.144997
1631023468704,-0.678686,0.712175,-0.14457
1631023468714,-0.678259,0.713151,-0.142374
1631023468723,-0.678869,0.712297,-0.142069
1631023468733,-0.678503,0.713212,-0.141642
1631023468743,-0.678991,0.7129679999999999,-0.14274
1631023468752,-0.679845,0.7138829999999999,-0.143411
1631023468762,-0.679967,0.714066,-0.144814
1631023468771,-0.679967,0.71431,-0.145119
1631023468781,-0.6810039999999999,0.714005,-0.144753
1631023468791,-0.6803939999999999,0.71431,-0.14457
1631023468800,-0.680638,0.714554,-0.145241
1631023468810,-0.680028,0.713334,-0.14457
1631023468819,-0.67954,0.712114,-0.145546
1631023468829,-0.678869,0.71248,-0.14518
1631023468839,-0.679235,0.713029,-0.144692
1631023468848,-0.680455,0.7141879999999999,-0.143411
1631023468858,-0.678686,0.713334,-0.144204
1631023468867,-0.678503,0.714554,-0.145424
1631023468877,-0.678747,0.715042,-0.14652199999999999
1631023468887,-0.678381,0.714737,-0.147864
1631023468896,-0.678381,0.713212,-0.1464
1631023468906,-0.678198,0.712907,-0.144753
1631023468915,-0.67893,0.712236,-0.14518
1631023468925,-0.678076,0.714371,-0.145729
1631023468935,-0.677771,0.714981,-0.146034
1631023468944,-0.677954,0.715225,-0.147254
1631023468954,-0.677771,0.7147979999999999,-0.147498
1631023468963,-0.678137,0.7147979999999999,-0.147193
1631023468973,-0.67832,0.714066,-0.145912
1631023468983,-0.677649,0.71492,-0.146644
1631023468992,-0.677649,0.7138829999999999,-0.14652199999999999
1631023469002,-0.676551,0.713822,-0.145119
1631023469011,-0.6771,0.713212,-0.145607
1631023469021,-0.678076,0.713456,-0.145363
1631023469031,-0.677588,0.7132729999999999,-0.145485
1631023469040,-0.678137,0.713395,-0.145485
1631023469050,-0.678076,0.7135779999999999,-0.145241
1631023469059,-0.678259,0.714615,-0.144814
1631023469069,-0.67832,0.7147979999999999,-0.144997
1631023469079,-0.679113,0.715225,-0.144631
1631023469088,-0.6794789999999999,0.714737,-0.14457
1631023469098,-0.6797839999999999,0.714615,-0.144692
1631023469107,-0.679418,0.713639,-0.145058
1631023469117,-0.680638,0.712846,-0.14457
1631023469127,-0.681492,0.714066,-0.145546
1631023469136,-0.6816139999999999,0.713456,-0.146034
1631023469146,-0.680943,0.712846,-0.145729
1631023469155,-0.681248,0.7123579999999999,-0.145119
1631023469165,-0.680882,0.711626,-0.14518
1631023469175,-0.680455,0.711931,-0.144997
1631023469184,-0.68015,0.712114,-0.144814
1631023469194,-0.681187,0.71248,-0.145241
1631023469203,-0.6810039999999999,0.713029,-0.145546
1631023469213,-0.6797839999999999,0.7120529999999999,-0.145607
1631023469223,-0.68015,0.711687,-0.144631
1631023469232,-0.680333,0.7126629999999999,-0.145546
1631023469242,-0.6803939999999999,0.713212,-0.144692
1631023469251,-0.680516,0.713639,-0.144936
1631023469261,-0.679906,0.712724,-0.144326
1631023469271,-0.678808,0.712724,-0.143472
1631023469280,-0.678564,0.7135779999999999,-0.14335
1631023469290,-0.6794789999999999,0.713029,-0.144143
1631023469299,-0.678808,0.713456,-0.143777
1631023469309,-0.678625,0.714005,-0.14335
1631023469319,-0.678869,0.713761,-0.143167
1631023469328,-0.679235,0.714676,-0.143594
1631023469338,-0.679662,0.714005,-0.144387
1631023469347,-0.678991,0.71309,-0.144814
1631023469357,-0.678869,0.71248,-0.144082
1631023469367,-0.678869,0.713456,-0.144326
1631023469376,-0.679235,0.7137,-0.142862
1631023469386,-0.678808,0.713212,-0.14249599999999998
1631023469395,-0.6791739999999999,0.714432,-0.142618
1631023469405,-0.680272,0.715774,-0.14219099999999998
1631023469415,-0.679296,0.716567,-0.141947
1631023469424,-0.679906,0.715469,-0.14274
1631023469434,-0.679357,0.7137,-0.142679
1631023469443,-0.680211,0.71431,-0.14335
1631023469453,-0.680882,0.714554,-0.142618
1631023469463,-0.679357,0.714249,-0.143228
1631023469472,-0.679906,0.714371,-0.144204
1631023469482,-0.68015,0.71492,-0.146034
1631023469491,-0.677954,0.714371,-0.147254
1631023469501,-0.677161,0.7126629999999999,-0.147986
1631023469511,-0.675941,0.7129679999999999,-0.14774199999999998
1631023469520,-0.676124,0.714066,-0.147986
1631023469530,-0.676185,0.713334,-0.14652199999999999
1631023469539,-0.676734,0.7114429999999999,-0.142984
1631023469549,-0.678137,0.713517,-0.141398
1631023469559,-0.679235,0.71553,-0.141398
1631023469568,-0.6791739999999999,0.7166279999999999,-0.144082
1631023469578,-0.678747,0.717787,-0.145058
1631023469587,-0.679296,0.716994,-0.145729
1631023469597,-0.678381,0.7147979999999999,-0.145424
1631023469607,-0.676917,0.7135779999999999,-0.14457
1631023469616,-0.676612,0.712419,-0.143533
1631023469626,-0.67649,0.71309,-0.142862
1631023469635,-0.677527,0.714249,-0.143411
1631023469645,-0.676856,0.714615,-0.143838
1631023469655,-0.676307,0.7147979999999999,-0.142984
1631023469664,-0.67649,0.7144929999999999,-0.14274
1631023469674,-0.677344,0.715286,-0.143655
1631023469683,-0.678442,0.715896,-0.145302
1631023469693,-0.67771,0.716445,-0.14579
1631023469703,-0.67832,0.7160179999999999,-0.145363
1631023469712,-0.678442,0.715896,-0.145607
1631023469722,-0.678625,0.714981,-0.145668
1631023469731,-0.677588,0.714981,-0.145119
1631023469741,-0.676978,0.7154079999999999,-0.143899
1631023469751,-0.678503,0.715774,-0.143838
1631023469760,-0.678686,0.715774,-0.143228
1631023469770,-0.678503,0.714432,-0.143533
1631023469779,-0.675636,0.713395,-0.144387
1631023469789,-0.677649,0.7157129999999999,-0.14701
1631023469799,-0.677588,0.7151029999999999,-0.149511
1631023469808,-0.677527,0.712724,-0.148413
1631023469818,-0.678808,0.711504,-0.146949
1631023469827,-0.679052,0.711687,-0.14652199999999999
1631023469837,-0.67771,0.712236,-0.146278
1631023469847,-0.677344,0.7137,-0.14682699999999999
1631023469856,-0.678259,0.71553,-0.146644
1631023469866,-0.678015,0.7160179999999999,-0.147254
1631023469875,-0.679052,0.714005,-0.146278
1631023469885,-0.678808,0.714066,-0.1464
1631023469895,-0.677893,0.714066,-0.14621699999999999
1631023469904,-0.678564,0.71431,-0.147193
1631023469914,-0.678564,0.71492,-0.147376
1631023469923,-0.67771,0.715164,-0.146949
1631023469933,-0.677222,0.714737,-0.14579
1631023469943,-0.676673,0.713334,-0.146156
1631023469952,-0.676795,0.7138829999999999,-0.145668
1631023469962,-0.677161,0.7141879999999999,-0.146583
1631023469971,-0.678503,0.714371,-0.14713199999999999
1631023469981,-0.679662,0.714005,-0.14762
1631023469991,-0.679418,0.713944,-0.148413
1631023470000,-0.67954,0.713761,-0.14774199999999998
1631023470010,-0.680028,0.713456,-0.1464
1631023470019,-0.67954,0.713639,-0.147071
1631023470029,-0.679662,0.71431,-0.146583
1631023470039,-0.6803939999999999,0.714371,-0.146644
1631023470048,-0.6797839999999999,0.714249,-0.14701
1631023470058,-0.679906,0.7123579999999999,-0.14652199999999999
1631023470067,-0.679357,0.7123579999999999,-0.146705
1631023470077,-0.678869,0.711626,-0.147254
1631023470087,-0.677466,0.7114429999999999,-0.14884
1631023470096,-0.677222,0.710406,-0.148901
1631023470106,-0.678015,0.709674,-0.149328
1631023470115,-0.677954,0.710711,-0.149084
1631023470125,-0.678198,0.710772,-0.149572
1631023470135,-0.67893,0.711992,-0.149328
1631023470144,-0.67893,0.711931,-0.14835199999999998
1631023470154,-0.678381,0.712419,-0.149328
1631023470163,-0.677588,0.711809,-0.149023
1631023470173,-0.677161,0.713517,-0.148413
1631023470183,-0.677771,0.7138829999999999,-0.147864
1631023470192,-0.678686,0.714432,-0.147864
1631023470202,-0.677527,0.715225,-0.147681
1631023470211,-0.676856,0.7141879999999999,-0.146888
1631023470221,-0.677344,0.7132729999999999,-0.14621699999999999
1631023470231,-0.67771,0.713334,-0.145851
1631023470240,-0.677588,0.713639,-0.14621699999999999
1631023470250,-0.677954,0.71492,-0.14835199999999998
1631023470259,-0.678137,0.714859,-0.148413
1631023470269,-0.678564,0.71492,-0.147864
1631023470279,-0.677405,0.714127,-0.147071
1631023470288,-0.677588,0.7137,-0.14682699999999999
1631023470298,-0.677405,0.71187,-0.147376
1631023470307,-0.676612,0.712175,-0.147986
1631023470317,-0.678503,0.712236,-0.146766
1631023470327,-0.675514,0.7111379999999999,-0.147376
1631023470336,-0.675941,0.710162,-0.146583
1631023470346,-0.676978,0.7117479999999999,-0.147376
1631023470355,-0.677344,0.714005,-0.150304
1631023470365,-0.676673,0.713761,-0.14804699999999998
1631023470375,-0.676551,0.711382,-0.147376
1631023470384,-0.675941,0.712785,-0.147376
1631023470394,-0.675819,0.714676,-0.1464
1631023470403,-0.678686,0.715347,-0.144692
1631023470413,-0.679296,0.7160179999999999,-0.142862
1631023470423,-0.679113,0.7169329999999999,-0.141703
1631023470432,-0.679601,0.71858,-0.142618
1631023470442,-0.680028,0.719678,-0.144387
1631023470451,-0.680028,0.719373,-0.14652199999999999
1631023470461,-0.6794789999999999,0.718946,-0.146156
1631023470471,-0.678198,0.716811,-0.145546
1631023470480,-0.677344,0.714859,-0.14579
1631023470490,-0.675636,0.7141879999999999,-0.144204
1631023470499,-0.67649,0.7141879999999999,-0.142923
1631023470509,-0.675758,0.7147979999999999,-0.142313
1631023470519,-0.676002,0.71553,-0.14249599999999998
1631023470528,-0.675819,0.7169329999999999,-0.142984
1631023470538,-0.676063,0.716994,-0.144936
1631023470547,-0.6771,0.717787,-0.145241
1631023470557,-0.678686,0.717482,-0.145607
1631023470567,-0.677039,0.717909,-0.145729
1631023470576,-0.676978,0.718641,-0.144997
1631023470586,-0.677161,0.717604,-0.143899
1631023470595,-0.67649,0.71736,-0.144326
1631023470605,-0.677405,0.7175429999999999,-0.143838
1631023470615,-0.677222,0.716994,-0.143228
1631023470624,-0.675575,0.715774,-0.143289
1631023470634,-0.674843,0.7160179999999999,-0.145851
1631023470643,-0.676856,0.717299,-0.148291
1631023470653,-0.674843,0.716994,-0.149511
1631023470663,-0.674843,0.713517,-0.147315
1631023470672,-0.674416,0.711809,-0.14518
1631023470682,-0.676246,0.7114429999999999,-0.1464
1631023470691,-0.676124,0.7144929999999999,-0.146949
1631023470701,-0.675026,0.715896,-0.148901
1631023470711,-0.674782,0.717116,-0.148474
1631023470720,-0.674843,0.717421,-0.148169
1631023470730,-0.675758,0.7178479999999999,-0.147193
1631023470739,-0.674782,0.716994,-0.146949
1631023470749,-0.675148,0.71858,-0.146949
1631023470759,-0.675514,0.718946,-0.1464
1631023470768,-0.675087,0.719007,-0.14621699999999999
1631023470778,-0.675453,0.7175429999999999,-0.14621699999999999
1631023470787,-0.675392,0.7172379999999999,-0.146156
1631023470797,-0.673379,0.717116,-0.145241
1631023470807,-0.672647,0.718397,-0.145729
1631023470816,-0.673257,0.717909,-0.145302
1631023470826,-0.674721,0.7178479999999999,-0.14682699999999999
1631023470835,-0.67466,0.718641,-0.145912
1631023470845,-0.67466,0.717726,-0.146095
1631023470855,-0.67527,0.716262,-0.14621699999999999
1631023470864,-0.674904,0.715896,-0.145485
1631023470874,-0.675087,0.7169329999999999,-0.145607
1631023470883,-0.676002,0.716506,-0.146644
1631023470893,-0.676002,0.71675,-0.1464
1631023470903,-0.676368,0.716201,-0.146766
1631023470912,-0.676063,0.7160179999999999,-0.147315
1631023470922,-0.676246,0.715957,-0.147376
1631023470931,-0.676429,0.714981,-0.146583
1631023470941,-0.676124,0.7147979999999999,-0.147193
1631023470951,-0.676673,0.714371,-0.14682699999999999
1631023470960,-0.676734,0.71431,-0.146949
1631023470970,-0.677222,0.714737,-0.146278
1631023470979,-0.676307,0.715652,-0.1464
1631023470989,-0.67588,0.714737,-0.145851
1631023470999,-0.676307,0.715591,-0.146766
1631023471008,-0.67649,0.714554,-0.146583
1631023471018,-0.676612,0.714249,-0.14621699999999999
1631023471027,-0.676673,0.7154079999999999,-0.14621699999999999
1631023471037,-0.676185,0.715347,-0.146156
1631023471047,-0.677344,0.7151029999999999,-0.146156
1631023471056,-0.676612,0.716201,-0.14579
1631023471066,-0.676368,0.7151029999999999,-0.145607
1631023471075,-0.676734,0.715347,-0.144875
1631023471085,-0.677161,0.7154079999999999,-0.145424
1631023471095,-0.677283,0.715957,-0.144509
1631023471104,-0.676185,0.715957,-0.143716
1631023471114,-0.676185,0.7169329999999999,-0.143594
1631023471123,-0.676673,0.71675,-0.142374
1631023471133,-0.676917,0.716994,-0.14310599999999998
1631023471143,-0.676795,0.716811,-0.142435
1631023471152,-0.677527,0.7166279999999999,-0.14213
1631023471162,-0.678259,0.7166279999999999,-0.143899
1631023471171,-0.678076,0.716445,-0.144021
1631023471181,-0.678442,0.718092,-0.143716
1631023471191,-0.67832,0.7187629999999999,-0.144509
1631023471200,-0.677588,0.717604,-0.146095
1631023471210,-0.677222,0.717421,-0.146705
1631023471219,-0.676246,0.717787,-0.147254
1631023471229,-0.675636,0.7181529999999999,-0.147193
1631023471239,-0.675331,0.717177,-0.146095
1631023471248,-0.674721,0.714981,-0.142618
1631023471258,-0.67405,0.7135779999999999,-0.141459
1631023471267,-0.675209,0.714066,-0.141459
1631023471277,-0.675331,0.715957,-0.143655
1631023471287,-0.676368,0.717177,-0.144265
1631023471296,-0.675941,0.716567,-0.144631
1631023471306,-0.676612,0.7166279999999999,-0.144936
1631023471315,-0.676185,0.715774,-0.14457
1631023471325,-0.676429,0.715469,-0.144143
1631023471335,-0.676185,0.71614,-0.143777
1631023471344,-0.675819,0.71614,-0.141703
1631023471354,-0.675758,0.715164,-0.141398
1631023471363,-0.676917,0.716262,-0.14066599999999999
1631023471373,-0.677405,0.71675,-0.141154
1631023471383,-0.676978,0.717421,-0.141825
1631023471392,-0.677588,0.717726,-0.143594
1631023471402,-0.677832,0.71797,-0.143228
1631023471411,-0.678625,0.7178479999999999,-0.144265
1631023471421,-0.678564,0.7178479999999999,-0.144936
1631023471431,-0.677771,0.716994,-0.144997
1631023471440,-0.6771,0.71614,-0.144692
1631023471450,-0.676856,0.71614,-0.143838
1631023471459,-0.676368,0.71553,-0.144692
1631023471469,-0.677039,0.716201,-0.144509
1631023471479,-0.676978,0.71614,-0.142618
1631023471488,-0.675453,0.715774,-0.143777
1631023471498,-0.675514,0.71614,-0.145607
1631023471507,-0.67527,0.717909,-0.14804699999999998
1631023471517,-0.674904,0.7178479999999999,-0.148413
1631023471527,-0.675392,0.716262,-0.146583
1631023471536,-0.674721,0.715835,-0.145668
1631023471546,-0.674965,0.715896,-0.145851
1631023471555,-0.675026,0.717055,-0.1464
1631023471565,-0.674965,0.71797,-0.146888
1631023471575,-0.674538,0.717421,-0.146644
1631023471584,-0.673928,0.717299,-0.146644
1631023471594,-0.675148,0.717299,-0.14652199999999999
1631023471603,-0.675209,0.7178479999999999,-0.146034
1631023471613,-0.674172,0.718214,-0.14774199999999998
1631023471623,-0.674843,0.717482,-0.147925
1631023471632,-0.675636,0.7178479999999999,-0.14682699999999999
1631023471642,-0.675453,0.7169329999999999,-0.147071
1631023471651,-0.675819,0.7166279999999999,-0.14774199999999998
1631023471661,-0.675697,0.7160179999999999,-0.147498
1631023471671,-0.675575,0.716384,-0.147193
1631023471680,-0.674782,0.715835,-0.146888
1631023471690,-0.676185,0.716445,-0.146705
1631023471699,-0.675697,0.7166279999999999,-0.14762
1631023471709,-0.676063,0.71553,-0.146034
1631023471719,-0.675941,0.714371,-0.1464
1631023471728,-0.676429,0.714249,-0.146156
1631023471738,-0.6771,0.71553,-0.14713199999999999
1631023471747,-0.676917,0.715652,-0.147803
1631023471757,-0.677222,0.715164,-0.14701
1631023471767,-0.677344,0.714676,-0.147925
1631023471776,-0.677771,0.7141879999999999,-0.14713199999999999
1631023471786,-0.677466,0.7141879999999999,-0.14713199999999999
1631023471795,-0.676856,0.71492,-0.147376
1631023471805,-0.676429,0.714249,-0.147193
1631023471815,-0.67649,0.713517,-0.14713199999999999
1631023471824,-0.675819,0.7129679999999999,-0.146888
1631023471834,-0.6771,0.7132729999999999,-0.146766
1631023471843,-0.676795,0.7144929999999999,-0.145668
1631023471853,-0.676429,0.714066,-0.145302
1631023471863,-0.676795,0.715652,-0.144814
1631023471872,-0.676673,0.71675,-0.145424
1631023471882,-0.67649,0.717299,-0.144509
1631023471891,-0.677344,0.71797,-0.14457
1631023471901,-0.677344,0.718214,-0.143289
1631023471911,-0.677283,0.717421,-0.142679
1631023471920,-0.67771,0.717421,-0.143045
1631023471930,-0.677954,0.7184579999999999,-0.143289
1631023471939,-0.678564,0.718702,-0.143594
1631023471949,-0.678503,0.717726,-0.142862
1631023471959,-0.678259,0.716872,-0.142862
1631023471968,-0.677893,0.716567,-0.14213
1631023471978,-0.678076,0.716567,-0.142923
1631023471987,-0.677527,0.716811,-0.143472
1631023471997,-0.677161,0.716811,-0.142984
1631023472007,-0.677466,0.7160179999999999,-0.14280099999999998
1631023472016,-0.677527,0.715835,-0.142862
1631023472026,-0.677283,0.714859,-0.142557
1631023472035,-0.678625,0.714737,-0.143228
1631023472045,-0.67893,0.7157129999999999,-0.143899
1631023472055,-0.67954,0.715286,-0.143228
1631023472064,-0.677161,0.715652,-0.143533
1631023472074,-0.67893,0.715835,-0.144204
1631023472083,-0.679235,0.7181529999999999,-0.145485
1631023472093,-0.676734,0.715774,-0.146095
1631023472103,-0.677344,0.7135779999999999,-0.14652199999999999
1631023472112,-0.67527,0.7132729999999999,-0.148718
1631023472122,-0.674477,0.714615,-0.149145
1631023472131,-0.674416,0.713151,-0.147498
1631023472141,-0.675087,0.710589,-0.143716
1631023472151,-0.675697,0.711504,-0.14280099999999998
1631023472160,-0.677283,0.713639,-0.144204
1631023472170,-0.677039,0.715591,-0.144814
1631023472179,-0.677466,0.71736,-0.145485
1631023472189,-0.677283,0.716872,-0.145241
1631023472199,-0.6771,0.715042,-0.146339
1631023472208,-0.676673,0.714554,-0.14457
1631023472218,-0.676429,0.713944,-0.144692
1631023472227,-0.676368,0.714676,-0.143655
1631023472237,-0.676612,0.715286,-0.142618
1631023472247,-0.67649,0.716445,-0.14213
1631023472256,-0.676124,0.717177,-0.14188599999999998
1631023472266,-0.677405,0.7178479999999999,-0.142435
1631023472275,-0.677832,0.7178479999999999,-0.143411
1631023472285,-0.677283,0.718092,-0.144204
1631023472295,-0.678198,0.718336,-0.145485
1631023472304,-0.678625,0.717482,-0.145546
1631023472314,-0.677832,0.717482,-0.145241
1631023472323,-0.677039,0.716994,-0.144936
1631023472333,-0.676612,0.716506,-0.145485
1631023472343,-0.676185,0.715835,-0.146034
1631023472352,-0.676856,0.7160179999999999,-0.145668
1631023472362,-0.676002,0.716201,-0.144448
1631023472371,-0.676368,0.7160179999999999,-0.143228
1631023472381,-0.67527,0.715042,-0.14518
1631023472391,-0.674843,0.717116,-0.14743699999999998
1631023472400,-0.675331,0.717665,-0.148901
1631023472410,-0.675331,0.7166279999999999,-0.14945
1631023472419,-0.676246,0.715896,-0.147559
1631023472429,-0.675392,0.71431,-0.145973
1631023472439,-0.674965,0.714432,-0.145546
1631023472448,-0.673745,0.716079,-0.146095
1631023472458,-0.673928,0.718092,-0.146156
1631023472467,-0.674477,0.7187629999999999,-0.146644
1631023472477,-0.674965,0.717726,-0.147559
1631023472487,-0.675453,0.71675,-0.147193
1631023472496,-0.675941,0.716994,-0.147071
1631023472506,-0.675209,0.717116,-0.14701
1631023472515,-0.67527,0.717177,-0.146644
1631023472525,-0.675392,0.716567,-0.146644
1631023472535,-0.67466,0.7157129999999999,-0.146461
1631023472544,-0.675148,0.715835,-0.145973
1631023472554,-0.675148,0.715896,-0.146278
1631023472563,-0.676002,0.716445,-0.145668
1631023472573,-0.676307,0.716994,-0.146583
1631023472583,-0.676246,0.716506,-0.14713199999999999
1631023472592,-0.676063,0.716445,-0.147864
1631023472602,-0.677527,0.716811,-0.147376
1631023472611,-0.678137,0.715652,-0.147376
1631023472621,-0.677649,0.7154079999999999,-0.146583
1631023472631,-0.677161,0.714676,-0.147071
1631023472640,-0.677283,0.714127,-0.147254
1631023472650,-0.677466,0.713395,-0.14701
1631023472659,-0.677832,0.71309,-0.14835199999999998
1631023472669,-0.678808,0.714127,-0.14835199999999998
1631023472679,-0.678198,0.713822,-0.14823
1631023472688,-0.678564,0.713517,-0.14884
1631023472698,-0.678259,0.713822,-0.148596
1631023472707,-0.677588,0.713151,-0.149633
1631023472717,-0.677893,0.713761,-0.148718
1631023472727,-0.677222,0.713944,-0.148718
1631023472736,-0.6771,0.71309,-0.14884
1631023472746,-0.676856,0.714737,-0.14865699999999998
1631023472755,-0.676307,0.714066,-0.147986
1631023472765,-0.676368,0.71492,-0.14823
1631023472775,-0.676673,0.715286,-0.14701
1631023472784,-0.675941,0.715347,-0.146888
1631023472794,-0.676063,0.7135779999999999,-0.147071
1631023472803,-0.676307,0.715042,-0.14762
1631023472813,-0.676429,0.715286,-0.148108
1631023472823,-0.675941,0.714554,-0.148718
1631023472832,-0.676429,0.7129679999999999,-0.148474
1631023472842,-0.67649,0.7132729999999999,-0.147803
1631023472851,-0.676429,0.714432,-0.149084
1631023472861,-0.676612,0.715347,-0.14896199999999998
1631023472871,-0.6771,0.715896,-0.148474
1631023472880,-0.67771,0.715164,-0.149145
1631023472890,-0.677222,0.714859,-0.148596
1631023472899,-0.676185,0.7154079999999999,-0.14835199999999998
1631023472909,-0.677039,0.713334,-0.148413
1631023472919,-0.676734,0.713517,-0.148779
1631023472928,-0.677222,0.714371,-0.14804699999999998
1631023472938,-0.675087,0.714432,-0.148108
1631023472947,-0.676246,0.713822,-0.14762
1631023472957,-0.676429,0.715652,-0.150426
1631023472967,-0.676124,0.717116,-0.151097
1631023472976,-0.675514,0.714432,-0.14945
1631023472986,-0.675209,0.711931,-0.148474
1631023472995,-0.674355,0.71248,-0.148901
1631023473005,-0.674538,0.714981,-0.15006
1631023473015,-0.675575,0.715957,-0.147376
1631023473024,-0.67649,0.715652,-0.145729
1631023473034,-0.676246,0.716384,-0.145973
1631023473043,-0.677466,0.716689,-0.146156
1631023473053,-0.677588,0.718885,-0.147193
1631023473063,-0.677466,0.7190679999999999,-0.14835199999999998
1631023473072,-0.6771,0.716445,-0.146339
1631023473082,-0.676612,0.7154079999999999,-0.146461
1631023473091,-0.675392,0.714737,-0.145729
1631023473101,-0.67527,0.713822,-0.145485
1631023473111,-0.67527,0.714432,-0.144448
1631023473120,-0.67588,0.715286,-0.144021
1631023473130,-0.676002,0.716567,-0.144875
1631023473139,-0.676368,0.7175429999999999,-0.144448
1631023473149,-0.677283,0.717482,-0.145424
1631023473159,-0.677649,0.7178479999999999,-0.146583
1631023473168,-0.678015,0.718275,-0.146766
1631023473178,-0.678137,0.717116,-0.146461
1631023473187,-0.677344,0.7175429999999999,-0.145729
1631023473197,-0.676734,0.7160179999999999,-0.145058
1631023473207,-0.676673,0.716811,-0.144814
1631023473216,-0.676917,0.716262,-0.14396
1631023473226,-0.676429,0.716201,-0.14310599999999998
1631023473235,-0.6771,0.715652,-0.143838
1631023473245,-0.675636,0.714676,-0.14518
1631023473255,-0.675697,0.7169329999999999,-0.14701
1631023473264,-0.675148,0.7172379999999999,-0.148718
1631023473274,-0.674843,0.7138829999999999,-0.14774199999999998
1631023473283,-0.675697,0.71187,-0.145058
1631023473293,-0.67588,0.71187,-0.144997
1631023473303,-0.67588,0.714554,-0.14518
1631023473312,-0.67527,0.71675,-0.146278
1631023473322,-0.675575,0.717116,-0.146644
1631023473331,-0.675697,0.718336,-0.146766
1631023473341,-0.674965,0.7178479999999999,-0.146583
1631023473351,-0.675819,0.717299,-0.14682699999999999
1631023473360,-0.675758,0.717421,-0.14621699999999999
1631023473370,-0.675758,0.716994,-0.145729
1631023473379,-0.676124,0.717482,-0.146705
1631023473389,-0.675514,0.717482,-0.145607
1631023473399,-0.675514,0.7166279999999999,-0.145363
1631023473408,-0.675026,0.716201,-0.145302
1631023473418,-0.676368,0.7175429999999999,-0.144814
1631023473427,-0.675575,0.717116,-0.145363
1631023473437,-0.675819,0.717482,-0.146278
1631023473447,-0.676978,0.717055,-0.146766
1631023473456,-0.676673,0.715652,-0.14713199999999999
1631023473466,-0.676734,0.714737,-0.14652199999999999
1631023473475,-0.676063,0.714249,-0.145729
1631023473485,-0.676917,0.7151029999999999,-0.14579
1631023473495,-0.676673,0.7147979999999999,-0.145912
1631023473504,-0.678381,0.715042,-0.146034
1631023473514,-0.678259,0.7151029999999999,-0.14743699999999998
1631023473523,-0.678808,0.715164,-0.147254
1631023473533,-0.678015,0.7138829999999999,-0.148596
1631023473543,-0.678625,0.713456,-0.149206
1631023473552,-0.678076,0.713517,-0.147925
1631023473562,-0.677405,0.714127,-0.148169
1631023473571,-0.677222,0.713639,-0.148901
1631023473581,-0.676856,0.713334,-0.147925
1631023473591,-0.676185,0.713395,-0.14804699999999998
1631023473600,-0.676002,0.71431,-0.147559
1631023473610,-0.675758,0.713822,-0.14804699999999998
1631023473619,-0.67588,0.714676,-0.148474
1631023473629,-0.675758,0.715896,-0.14926699999999998
1631023473639,-0.675636,0.716506,-0.148779
1631023473648,-0.675575,0.7163229999999999,-0.14762
1631023473658,-0.676612,0.717116,-0.147498
1631023473667,-0.676002,0.7190679999999999,-0.147315
1631023473677,-0.674904,0.717177,-0.147864
1631023473687,-0.674599,0.716994,-0.148535
1631023473696,-0.673684,0.716872,-0.14762
1631023473706,-0.673196,0.717055,-0.14774199999999998
1631023473715,-0.672281,0.716811,-0.146339
1631023473725,-0.671915,0.717726,-0.144814
1631023473735,-0.671732,0.718092,-0.143533
1631023473744,-0.672098,0.718214,-0.142313
1631023473754,-0.672708,0.719434,-0.143533
1631023473763,-0.673379,0.719312,-0.143838
1631023473773,-0.675148,0.720227,-0.144509
1631023473783,-0.676124,0.719922,-0.145119
1631023473792,-0.675026,0.71858,-0.145302
1631023473802,-0.676063,0.7198,-0.144997
1631023473811,-0.676734,0.719922,-0.145973
1631023473821,-0.675636,0.720288,-0.147559
1631023473831,-0.674233,0.718641,-0.14652199999999999
1631023473840,-0.67466,0.7178479999999999,-0.14774199999999998
1631023473850,-0.673684,0.719007,-0.14823
1631023473859,-0.672952,0.717787,-0.146583
1631023473869,-0.673928,0.716689,-0.14396
1631023473879,-0.67466,0.715957,-0.143228
1631023473888,-0.674416,0.71614,-0.143655
1631023473898,-0.674599,0.718031,-0.144326
1631023473907,-0.675697,0.7181529999999999,-0.145485
1631023473917,-0.675941,0.7190679999999999,-0.146339
1631023473927,-0.67466,0.717421,-0.145119
1631023473936,-0.675453,0.7160179999999999,-0.14457
1631023473946,-0.675209,0.715957,-0.144387
1631023473955,-0.675209,0.7160179999999999,-0.143777
1631023473965,-0.675941,0.71614,-0.143411
1631023473975,-0.675636,0.715957,-0.143594
1631023473984,-0.675453,0.71614,-0.143289
1631023473994,-0.676246,0.71614,-0.142984
1631023474003,-0.676673,0.715347,-0.14396
1631023474013,-0.678198,0.716445,-0.144814
1631023474023,-0.678625,0.717055,-0.145546
1631023474032,-0.679296,0.71675,-0.145546
1631023474042,-0.678503,0.715164,-0.14518
1631023474051,-0.679052,0.715225,-0.144997
1631023474061,-0.678991,0.7154079999999999,-0.145485
1631023474071,-0.677832,0.7151029999999999,-0.145058
1631023474080,-0.677832,0.7144929999999999,-0.14457
1631023474090,-0.677344,0.71431,-0.144326
1631023474099,-0.678503,0.714676,-0.143777
1631023474109,-0.676856,0.7141879999999999,-0.145058
1631023474119,-0.677405,0.71675,-0.146156
1631023474128,-0.676978,0.718275,-0.147803
1631023474138,-0.676612,0.71614,-0.147193
1631023474147,-0.677466,0.7141879999999999,-0.145241
1631023474157,-0.676551,0.714371,-0.145424
1631023474167,-0.677466,0.714737,-0.145668
1631023474176,-0.676856,0.716994,-0.145668
1631023474186,-0.677466,0.71736,-0.145729
1631023474195,-0.676551,0.7172379999999999,-0.146156
1631023474205,-0.676734,0.716872,-0.146705
1631023474215,-0.676307,0.71614,-0.146095
1631023474224,-0.676612,0.716262,-0.146766
1631023474234,-0.676734,0.716506,-0.14762
1631023474243,-0.67649,0.716689,-0.147193
1631023474253,-0.676917,0.715835,-0.147193
1631023474263,-0.677344,0.714859,-0.14701
1631023474272,-0.676795,0.713456,-0.14762
1631023474282,-0.676978,0.7135779999999999,-0.147986
1631023474291,-0.676734,0.714432,-0.148718
1631023474301,-0.676429,0.7151029999999999,-0.149023
1631023474311,-0.677588,0.715286,-0.14884
1631023474320,-0.677222,0.714737,-0.14835199999999998
1631023474330,-0.677588,0.713761,-0.14701
1631023474339,-0.677588,0.714005,-0.147864
1631023474349,-0.678259,0.714249,-0.147986
1631023474359,-0.679235,0.714249,-0.149694
1631023474368,-0.68015,0.71431,-0.149694
1631023474378,-0.680455,0.7137,-0.149877
1631023474387,-0.680455,0.713029,-0.149572
1631023474397,-0.680272,0.712236,-0.149389
1631023474407,-0.680516,0.711382,-0.14865699999999998
1631023474416,-0.679662,0.711992,-0.148474
1631023474426,-0.67893,0.7117479999999999,-0.148718
1631023474435,-0.678198,0.7129679999999999,-0.149084
1631023474445,-0.677222,0.713517,-0.14896199999999998
1631023474455,-0.677466,0.7138829999999999,-0.149572
1631023474464,-0.676063,0.714432,-0.14896199999999998
1631023474474,-0.675819,0.715164,-0.148108
1631023474483,-0.675331,0.715896,-0.14835199999999998
1631023474493,-0.674843,0.716689,-0.14762
1631023474503,-0.674416,0.716384,-0.14682699999999999
1631023474512,-0.674111,0.7172379999999999,-0.146156
1631023474522,-0.673135,0.717604,-0.14652199999999999
1631023474531,-0.673074,0.718946,-0.14682699999999999
1631023474541,-0.672159,0.718336,-0.146888
1631023474551,-0.672647,0.7178479999999999,-0.147254
1631023474560,-0.672525,0.717909,-0.146888
1631023474570,-0.671793,0.719373,-0.147376
1631023474579,-0.672464,0.719251,-0.14652199999999999
1631023474589,-0.672098,0.71919,-0.147071
1631023474599,-0.672281,0.719434,-0.146156
1631023474608,-0.67283,0.718092,-0.14713199999999999
1631023474618,-0.672647,0.717726,-0.14823
1631023474627,-0.672586,0.716872,-0.147315
1631023474637,-0.672952,0.717116,-0.147681
1631023474647,-0.673074,0.717299,-0.147376
1631023474656,-0.673257,0.71797,-0.146888
1631023474666,-0.67344,0.7178479999999999,-0.146888
1631023474675,-0.673318,0.7178479999999999,-0.145668
1631023474685,-0.673684,0.7175429999999999,-0.14652199999999999
1631023474695,-0.675026,0.717665,-0.14682699999999999
1631023474704,-0.675026,0.718275,-0.147925
1631023474714,-0.67466,0.717482,-0.147071
1631023474723,-0.6771,0.719007,-0.14774199999999998
1631023474733,-0.676917,0.720288,-0.148413
1631023474743,-0.675697,0.718397,-0.149694
1631023474752,-0.674172,0.71797,-0.149877
1631023474762,-0.673806,0.719922,-0.151341
1631023474771,-0.672891,0.720044,-0.151768
1631023474781,-0.672708,0.718275,-0.149206
1631023474791,-0.672342,0.714981,-0.145973
1631023474800,-0.672891,0.713456,-0.145851
1631023474810,-0.673135,0.71553,-0.145729
1631023474819,-0.673928,0.7178479999999999,-0.147376
1631023474829,-0.674111,0.7190679999999999,-0.14823
1631023474839,-0.674233,0.718885,-0.147803
1631023474848,-0.673928,0.719556,-0.1464
1631023474858,-0.673806,0.7184579999999999,-0.145973
1631023474867,-0.67405,0.7190679999999999,-0.145241
1631023474877,-0.674599,0.719007,-0.143838
1631023474887,-0.674233,0.719922,-0.14396
1631023474896,-0.67466,0.719739,-0.143777
1631023474906,-0.675453,0.719495,-0.143167
1631023474915,-0.67649,0.7198,-0.144509
1631023474925,-0.676368,0.719861,-0.145058
1631023474935,-0.677405,0.719678,-0.146705
1631023474944,-0.677954,0.718702,-0.147681
1631023474954,-0.678076,0.719007,-0.149084
