timestamp,ax,ay,az
1631024023302,-0.832101,-0.151951,-0.522404
1631024023312,-0.8334429999999999,-0.151463,-0.5219159999999999
1631024023321,-0.833626,-0.152622,-0.525942
1631024023331,-0.834297,-0.15359799999999998,-0.524783
1631024023340,-0.8340529999999999,-0.153964,-0.523258
1631024023350,-0.83387,-0.155184,-0.52399
1631024023360,-0.832955,-0.155611,-0.523014
1631024023369,-0.834114,-0.154574,-0.523929
1631024023379,-0.83387,-0.153537,-0.52399
1631024023388,-0.832894,-0.153171,-0.522099
1631024023398,-0.833382,-0.154025,-0.52155
1631024023408,-0.831796,-0.154696,-0.52399
1631024023417,-0.8316129999999999,-0.153781,-0.52338
1631024023427,-0.831979,-0.15237799999999999,-0.525454
1631024023436,-0.832101,-0.150609,-0.525149
1631024023446,-0.830759,-0.148474,-0.522465
1631024023456,-0.831857,-0.144265,-0.517219
1631024023465,-0.830454,-0.138714,-0.5136809999999999
1631024023475,-0.8313079999999999,-0.138287,-0.515267
1631024023484,-0.833321,-0.14036099999999999,-0.517402
1631024023494,-0.8367979999999999,-0.140422,-0.522404
1631024023504,-0.836005,-0.148718,-0.525454
1631024023513,-0.838506,-0.152012,-0.525149
1631024023523,-0.83631,-0.160003,-0.524173
1631024023532,-0.838872,-0.164456,-0.525637
1631024023542,-0.83997,-0.16744499999999998,-0.52826
1631024023552,-0.838811,-0.168543,-0.524722
1631024023561,-0.8404579999999999,-0.169336,-0.521489
1631024023571,-0.838994,-0.1708,-0.520025
1631024023580,-0.8401529999999999,-0.16897,-0.520269
1631024023590,-0.84241,-0.166957,-0.523563
1631024023600,-0.843081,-0.16469999999999999,-0.526613
1631024004531,-0.843142,-0.16500499999999999,-0.526186
1631024004541,-0.843447,-0.162138,-0.5246
1631024004550,-0.842044,-0.161772,-0.523075
1631024004560,-0.839482,-0.160247,-0.5203909999999999
1631024004570,-0.8383229999999999,-0.156892,-0.5185
1631024004579,-0.836066,-0.15433,-0.5145959999999999
1631024004589,-0.833626,-0.15128,-0.512034
1631024004598,-0.834907,-0.148779,-0.514108
1631024004608,-0.835151,-0.146461,-0.520635
1631024004618,-0.837896,-0.143533,-0.522282
1631024004627,-0.837164,-0.141947,-0.5213059999999999
1631024004637,-0.836371,-0.14274,-0.517768
1631024004646,-0.8349679999999999,-0.144082,-0.518744
1631024004656,-0.835029,-0.145241,-0.521123
1631024004666,-0.834419,-0.14621699999999999,-0.521855
1631024004675,-0.832345,-0.1464,-0.523624
1631024004685,-0.83265,-0.14804699999999998,-0.520635
1631024004694,-0.8334429999999999,-0.148413,-0.520452
1631024004704,-0.833016,-0.149816,-0.520452
1631024004714,-0.8319179999999999,-0.151524,-0.5197809999999999
1631024004723,-0.832894,-0.153354,-0.51972
1631024004733,-0.832894,-0.15494,-0.521977
1631024004742,-0.833077,-0.154757,-0.521733
1631024004752,-0.832406,-0.15359799999999998,-0.52094
1631024004762,-0.833504,-0.15359799999999998,-0.5188659999999999
1631024004771,-0.833382,-0.154086,-0.518683
1631024004781,-0.834114,-0.15481799999999998,-0.519354
1631024004790,-0.834846,-0.155184,-0.520635
1631024004800,-0.833687,-0.154574,-0.522282
1631024004810,-0.834724,-0.155916,-0.5185
1631024004819,-0.8331379999999999,-0.156831,-0.518744
1631024004829,-0.833382,-0.156892,-0.518622
1631024004838,-0.834114,-0.155977,-0.519293
1631024004848,-0.834236,-0.155428,-0.519293
1631024004858,-0.8337479999999999,-0.155855,-0.517585
1631024004867,-0.834175,-0.15481799999999998,-0.516243
1631024004877,-0.832955,-0.15481799999999998,-0.516609
1631024004886,-0.8334429999999999,-0.152927,-0.517402
1631024004896,-0.833626,-0.150975,-0.519842
1631024004906,-0.8352729999999999,-0.150609,-0.5213059999999999
1631024004915,-0.836615,-0.151707,-0.522038
1631024004925,-0.835944,-0.153842,-0.52155
1631024004934,-0.834846,-0.155977,-0.520208
1631024004944,-0.8346629999999999,-0.15738,-0.5188659999999999
1631024004954,-0.8349679999999999,-0.158295,-0.517707
1631024004963,-0.8355779999999999,-0.158783,-0.5179509999999999
1631024004973,-0.834541,-0.16067399999999998,-0.519415
1631024004982,-0.834297,-0.160308,-0.521977
1631024004992,-0.834846,-0.16165,-0.522099
1631024005002,-0.834297,-0.162565,-0.523563
1631024005011,-0.834846,-0.163724,-0.5222209999999999
1631024005021,-0.836127,-0.164334,-0.522587
1631024005030,-0.836371,-0.162138,-0.523075
1631024005040,-0.837225,-0.161223,-0.5234409999999999
1631024005050,-0.836005,-0.161894,-0.524783
1631024005059,-0.834236,-0.164822,-0.5225259999999999
1631024005069,-0.833016,-0.166286,-0.521489
1631024005078,-0.8316129999999999,-0.172142,-0.519415
1631024005088,-0.8288679999999999,-0.176473,-0.516914
1631024005098,-0.830454,-0.17629,-0.519049
1631024005107,-0.83204,-0.175924,-0.524478
1631024005117,-0.8310029999999999,-0.174826,-0.526552
1631024005126,-0.833077,-0.17385,-0.5246
1631024005136,-0.8343579999999999,-0.174399,-0.522099
1631024005146,-0.831369,-0.174094,-0.51911
1631024005155,-0.831491,-0.172447,-0.51728
1631024005165,-0.8306979999999999,-0.17177599999999998,-0.5161209999999999
1631024005174,-0.8291729999999999,-0.170678,-0.51301
1631024005184,-0.830942,-0.168055,-0.510326
1631024005194,-0.833992,-0.163236,-0.51972
1631024005203,-0.835517,-0.162626,-0.530822
1631024005213,-0.83692,-0.162626,-0.528077
1631024005222,-0.8377129999999999,-0.164334,-0.522648
1631024005232,-0.836554,-0.168482,-0.519842
1631024005242,-0.836066,-0.171349,-0.518744
1631024005251,-0.8349679999999999,-0.172508,-0.519598
1631024005261,-0.834602,-0.171898,-0.52094
1631024005270,-0.832711,-0.17177599999999998,-0.5194759999999999
1631024005280,-0.831064,-0.170434,-0.517219
1631024005290,-0.829539,-0.170495,-0.5149009999999999
1631024005299,-0.830027,-0.171227,-0.515084
1631024005309,-0.830271,-0.173057,-0.5167309999999999
1631024005318,-0.83082,-0.175192,-0.517097
1631024005328,-0.830881,-0.17629,-0.5170359999999999
1631024005338,-0.83143,-0.1769,-0.514474
1631024005347,-0.831369,-0.177449,-0.512888
1631024005357,-0.8313079999999999,-0.176961,-0.5124609999999999
1631024005366,-0.832894,-0.176046,-0.514352
1631024005376,-0.835395,-0.175619,-0.51789
1631024005386,-0.8343579999999999,-0.176778,-0.520818
1631024005395,-0.832894,-0.17702199999999998,-0.516853
1631024005405,-0.833382,-0.176595,-0.515328
1631024005414,-0.832894,-0.177449,-0.515328
1631024005424,-0.83509,-0.178669,-0.515572
1631024005434,-0.835395,-0.178974,-0.5185609999999999
1631024005443,-0.835761,-0.180377,-0.516914
1631024005453,-0.836371,-0.181597,-0.51606
1631024005462,-0.835761,-0.183976,-0.513498
1631024005472,-0.835822,-0.18605,-0.5133759999999999
1631024005482,-0.835395,-0.185562,-0.512827
1631024005491,-0.834236,-0.184769,-0.5155109999999999
1631024005501,-0.833809,-0.18361,-0.516243
1631024005510,-0.832955,-0.182634,-0.517097
1631024005520,-0.832772,-0.181597,-0.516365
1631024005530,-0.831369,-0.18056,-0.514962
1631024005539,-0.831064,-0.17995,-0.512339
1631024005549,-0.831857,-0.180499,-0.512583
1631024005558,-0.831369,-0.18379299999999998,-0.511546
1631024005568,-0.830942,-0.185379,-0.509594
1631024005578,-0.833077,-0.185928,-0.513742
1631024005587,-0.833992,-0.188795,-0.517402
1631024005597,-0.83448,-0.190686,-0.519537
1631024005606,-0.835334,-0.190747,-0.5210009999999999
1631024005616,-0.835944,-0.191845,-0.520452
1631024005626,-0.836615,-0.191418,-0.520452
1631024005635,-0.836981,-0.188673,-0.5200859999999999
1631024005645,-0.835944,-0.187148,-0.5188659999999999
1631024005654,-0.834846,-0.186538,-0.5185609999999999
1631024005664,-0.8337479999999999,-0.186599,-0.517463
1631024005674,-0.834175,-0.187392,-0.515572
1631024005683,-0.835395,-0.1891,-0.515999
1631024005693,-0.836615,-0.189832,-0.515389
1631024005702,-0.837164,-0.18934399999999998,-0.5170359999999999
1631024005712,-0.836554,-0.188185,-0.515938
1631024005722,-0.835761,-0.185196,-0.514413
1631024005731,-0.8361879999999999,-0.18239,-0.515084
1631024005741,-0.8349679999999999,-0.18257299999999999,-0.515755
1631024005750,-0.831796,-0.180133,-0.512217
1631024005760,-0.82838,-0.179096,-0.507459
1631024005770,-0.829051,-0.176839,-0.49885799999999997
1631024005779,-0.830942,-0.174033,-0.501481
1631024005789,-0.836005,-0.170129,-0.511302
1631024005798,-0.838445,-0.1708,-0.519659
1631024005808,-0.839665,-0.171837,-0.5210009999999999
1631024005818,-0.837896,-0.175009,-0.511729
1631024005827,-0.835639,-0.177815,-0.505263
1631024005837,-0.835212,-0.178181,-0.503982
1631024005846,-0.835761,-0.178791,-0.507093
1631024005856,-0.834785,-0.180499,-0.509838
1631024005866,-0.83509,-0.180133,-0.510448
1631024005875,-0.83448,-0.180621,-0.50813
1631024005885,-0.836554,-0.181109,-0.506788
1631024005894,-0.839055,-0.182756,-0.509045
1631024005904,-0.840641,-0.183549,-0.5124
1631024005914,-0.8401529999999999,-0.183549,-0.514413
1631024005923,-0.840885,-0.183427,-0.513925
1631024005933,-0.8395429999999999,-0.183305,-0.51301
1631024005942,-0.839726,-0.183244,-0.512278
1631024005952,-0.839909,-0.183366,-0.512034
1631024005962,-0.840031,-0.18287799999999999,-0.511546
1631024005971,-0.838811,-0.182695,-0.512522
1631024005981,-0.837347,-0.18239,-0.5139859999999999
1631024005990,-0.8352729999999999,-0.184586,-0.512095
1631024006000,-0.835395,-0.18348799999999998,-0.507093
1631024006010,-0.8343579999999999,-0.183,-0.508679
1631024006019,-0.834114,-0.18348799999999998,-0.509472
1631024006029,-0.833504,-0.18409799999999998,-0.511729
1631024006038,-0.834602,-0.183427,-0.511058
1631024006048,-0.83509,-0.184037,-0.508008
1631024006058,-0.835151,-0.18483,-0.505934
1631024006067,-0.835761,-0.183976,-0.506178
1631024006077,-0.8357,-0.182512,-0.50813
1631024006086,-0.836127,-0.180011,-0.509716
1631024006096,-0.8364929999999999,-0.177815,-0.510265
1631024006106,-0.836005,-0.177876,-0.510631
1631024006115,-0.836859,-0.178486,-0.510692
1631024006125,-0.838445,-0.17873,-0.509777
1631024006134,-0.837652,-0.177388,-0.51057
1631024006144,-0.8371029999999999,-0.177754,-0.50996
1631024006154,-0.837835,-0.17751,-0.508984
1631024006163,-0.838384,-0.175741,-0.509045
1631024006173,-0.838689,-0.175192,-0.509045
1631024006182,-0.837896,-0.175924,-0.509716
1631024006192,-0.838079,-0.176534,-0.508923
1631024006202,-0.838201,-0.17732699999999998,-0.510753
1631024006211,-0.839726,-0.177876,-0.511546
1631024006221,-0.83936,-0.177388,-0.5133759999999999
1631024006230,-0.837957,-0.176839,-0.512644
1631024006240,-0.8371029999999999,-0.177876,-0.511058
1631024006250,-0.8358829999999999,-0.179645,-0.509472
1631024006259,-0.834236,-0.178791,-0.50813
1631024006269,-0.8361879999999999,-0.180743,-0.509594
1631024006278,-0.8355779999999999,-0.181414,-0.510509
1631024006288,-0.837225,-0.180438,-0.51301
1631024006298,-0.836127,-0.180804,-0.512583
1631024006307,-0.835456,-0.179584,-0.512095
1631024006317,-0.835517,-0.18056,-0.512034
1631024006326,-0.833809,-0.181231,-0.510875
1631024006336,-0.831796,-0.181048,-0.509533
1631024006346,-0.832589,-0.180499,-0.502152
1631024006355,-0.831674,-0.179889,-0.500444
1631024006365,-0.834785,-0.17812,-0.507642
1631024006374,-0.8383229999999999,-0.17812,-0.5167309999999999
1631024006384,-0.840397,-0.17763199999999998,-0.523258
1631024006394,-0.842044,-0.180011,-0.518744
1631024006403,-0.841434,-0.183976,-0.509533
1631024006413,-0.841129,-0.186721,-0.505324
1631024006422,-0.840824,-0.187392,-0.507337
1631024006432,-0.839482,-0.186172,-0.511119
1631024006442,-0.83814,-0.18361,-0.513193
1631024006451,-0.83692,-0.18379299999999998,-0.512339
1631024006461,-0.835944,-0.18257299999999999,-0.511241
1631024006470,-0.835395,-0.18239,-0.509777
1631024006480,-0.8355779999999999,-0.183366,-0.508435
1631024006490,-0.833992,-0.183976,-0.509655
1631024006499,-0.833626,-0.183671,-0.50996
1631024006509,-0.834236,-0.183854,-0.509899
1631024006518,-0.833931,-0.183366,-0.510021
1631024006528,-0.835334,-0.182756,-0.509106
1631024006538,-0.836432,-0.18348799999999998,-0.509899
1631024006547,-0.836737,-0.184525,-0.51057
1631024006557,-0.836615,-0.183305,-0.509899
1631024006566,-0.834846,-0.18422,-0.510936
1631024006576,-0.835639,-0.185928,-0.507215
1631024006586,-0.8358829999999999,-0.18501299999999998,-0.505629
1631024006595,-0.8357,-0.18531799999999998,-0.506666
1631024006605,-0.8358829999999999,-0.186782,-0.508801
1631024006614,-0.837042,-0.186172,-0.510082
1631024006624,-0.838384,-0.184342,-0.511668
1631024006634,-0.838567,-0.184586,-0.510265
1631024006643,-0.837286,-0.18483,-0.509899
1631024006653,-0.837347,-0.18483,-0.510387
1631024006662,-0.8377129999999999,-0.184281,-0.51362
1631024006672,-0.837042,-0.183305,-0.515328
1631024006682,-0.837164,-0.185074,-0.514962
1631024006691,-0.836981,-0.18470799999999998,-0.5124609999999999
1631024006701,-0.83631,-0.185745,-0.509594
1631024006710,-0.8367979999999999,-0.187087,-0.508313
1631024006720,-0.8383229999999999,-0.188246,-0.50813
1631024006730,-0.8383229999999999,-0.189527,-0.508252
1631024006739,-0.8398479999999999,-0.189161,-0.509838
1631024006749,-0.8407629999999999,-0.18812399999999999,-0.511058
1631024006758,-0.841739,-0.185562,-0.511485
1631024006768,-0.84241,-0.183061,-0.512034
1631024006778,-0.842837,-0.18178,-0.510387
1631024006787,-0.842898,-0.17995,-0.510753
1631024006797,-0.842715,-0.177998,-0.508679
1631024006806,-0.842166,-0.175924,-0.508008
1631024006816,-0.841617,-0.174521,-0.506544
1631024006826,-0.839909,-0.173362,-0.503006
1631024006835,-0.839299,-0.17330099999999998,-0.500627
1631024006845,-0.8386279999999999,-0.173545,-0.499224
1631024006854,-0.839177,-0.172447,-0.500078
1631024006864,-0.838872,-0.170739,-0.50081
1631024006874,-0.840397,-0.169458,-0.50203
1631024006883,-0.841434,-0.168482,-0.503982
1631024006893,-0.842593,-0.167323,-0.50264
1631024006902,-0.842105,-0.168238,-0.500932
1631024006912,-0.842532,-0.16836,-0.49733299999999997
1631024006922,-0.84119,-0.17025099999999999,-0.496296
1631024006931,-0.8404579999999999,-0.169275,-0.491843
1631024006941,-0.840336,-0.167567,-0.490684
1631024006950,-0.843386,-0.166957,-0.493612
1631024006960,-0.84424,-0.166957,-0.500749
1631024006970,-0.845094,-0.166042,-0.50386
1631024006979,-0.8480219999999999,-0.165493,-0.500993
1631024006989,-0.848571,-0.169641,-0.497699
1631024006998,-0.84912,-0.172935,-0.498065
1631024007008,-0.84912,-0.177205,-0.499712
1631024007018,-0.849608,-0.178974,-0.502152
1631024007027,-0.848876,-0.178974,-0.501847
1631024007037,-0.848388,-0.178669,-0.502152
1631024007046,-0.848266,-0.178364,-0.500505
1631024007056,-0.848388,-0.178486,-0.499407
1631024007066,-0.847046,-0.179706,-0.499224
1631024007075,-0.845582,-0.18056,-0.500566
1631024007085,-0.845643,-0.181353,-0.501908
1631024007094,-0.845155,-0.180987,-0.502091
1631024007104,-0.84485,-0.181414,-0.500688
1631024007114,-0.843081,-0.180743,-0.49837
1631024007123,-0.84424,-0.17915699999999998,-0.497821
1631024007133,-0.843569,-0.177998,-0.499102
1631024007142,-0.843081,-0.177815,-0.500566
1631024007152,-0.843691,-0.17763199999999998,-0.501847
1631024007162,-0.843569,-0.178974,-0.500017
1631024007171,-0.84485,-0.17793699999999998,-0.499407
1631024007181,-0.843691,-0.17885199999999998,-0.502213
1631024007190,-0.844301,-0.180377,-0.501542
1631024007200,-0.844301,-0.180194,-0.500261
1631024007210,-0.845277,-0.17915699999999998,-0.49977299999999997
1631024007219,-0.845887,-0.17854699999999998,-0.499712
1631024007229,-0.844667,-0.17763199999999998,-0.49763799999999997
1631024007238,-0.844789,-0.17568,-0.49977299999999997
1631024007248,-0.843813,-0.175314,-0.500261
1631024007258,-0.843691,-0.17324,-0.501969
1631024007267,-0.84241,-0.171654,-0.500322
1631024007277,-0.841312,-0.17269099999999998,-0.500383
1631024007286,-0.842227,-0.172264,-0.500078
1631024007296,-0.842532,-0.173545,-0.499712
1631024007306,-0.843081,-0.173972,-0.499102
1631024007315,-0.843691,-0.175131,-0.499041
1631024007325,-0.843996,-0.17641199999999999,-0.498919
1631024007334,-0.844545,-0.177266,-0.500444
1631024007344,-0.844362,-0.17763199999999998,-0.500322
1631024007354,-0.843813,-0.17610699999999999,-0.501847
1631024007363,-0.844118,-0.17610699999999999,-0.502884
1631024007373,-0.843996,-0.177083,-0.50264
1631024007382,-0.844545,-0.177693,-0.502213
1631024007392,-0.845887,-0.17763199999999998,-0.503128
1631024007402,-0.844545,-0.17702199999999998,-0.502457
1631024007411,-0.844484,-0.17702199999999998,-0.502945
1631024007421,-0.844545,-0.176534,-0.502701
1631024007430,-0.843752,-0.17732699999999998,-0.503311
1631024007440,-0.842044,-0.1769,-0.502274
1631024007450,-0.841739,-0.178913,-0.49977299999999997
1631024007459,-0.842105,-0.180316,-0.498065
1631024007469,-0.842959,-0.181292,-0.500139
1631024007478,-0.843081,-0.17995,-0.502518
1631024007488,-0.843325,-0.180133,-0.504104
1631024007498,-0.843386,-0.178669,-0.504104
1631024007507,-0.842898,-0.177754,-0.502762
1631024007517,-0.842532,-0.177754,-0.501481
1631024007526,-0.841556,-0.177449,-0.500322
1631024007536,-0.84119,-0.176656,-0.499102
1631024007546,-0.840824,-0.17732699999999998,-0.495686
1631024007555,-0.8398479999999999,-0.17763199999999998,-0.49458799999999997
1631024007565,-0.841678,-0.176839,-0.49641799999999997
1631024007574,-0.843264,-0.174826,-0.502762
1631024007584,-0.844972,-0.173057,-0.507825
1631024007594,-0.845277,-0.172569,-0.505812
1631024007603,-0.846619,-0.173545,-0.501542
1631024007613,-0.846253,-0.175924,-0.5002
1631024007622,-0.845948,-0.17934,-0.500688
1631024007632,-0.843874,-0.17976699999999998,-0.501725
1631024007642,-0.843386,-0.180743,-0.503921
1631024007651,-0.843142,-0.181109,-0.503677
1631024007661,-0.841312,-0.17946199999999998,-0.501115
1631024007670,-0.841129,-0.17915699999999998,-0.49885799999999997
1631024007680,-0.8395429999999999,-0.179523,-0.499102
1631024007690,-0.84058,-0.179889,-0.500932
1631024007699,-0.839604,-0.180682,-0.503311
1631024007709,-0.8398479999999999,-0.18196299999999999,-0.503616
1631024007718,-0.83936,-0.181231,-0.501481
1631024007728,-0.8401529999999999,-0.18239,-0.500017
1631024007738,-0.840702,-0.182817,-0.498126
1631024007747,-0.841922,-0.18239,-0.49885799999999997
1631024007757,-0.843813,-0.183427,-0.501786
1631024007766,-0.844057,-0.182756,-0.504897
1631024007776,-0.84241,-0.18361,-0.502762
1631024007786,-0.843508,-0.182695,-0.501481
1631024007795,-0.843325,-0.184159,-0.50203
1631024007805,-0.843935,-0.184159,-0.498614
1631024007814,-0.843813,-0.184586,-0.498187
1631024007824,-0.845094,-0.183,-0.498797
1631024007834,-0.844484,-0.180682,-0.50081
1631024007843,-0.845948,-0.17915699999999998,-0.502823
1631024007853,-0.84485,-0.17995,-0.502335
1631024007862,-0.84424,-0.178791,-0.501481
1631024007872,-0.843752,-0.178486,-0.501176
1631024007882,-0.843569,-0.17812,-0.500322
1631024007891,-0.843691,-0.178364,-0.49898
1631024007901,-0.843203,-0.17873,-0.496967
1631024007910,-0.84302,-0.179279,-0.495442
1631024007920,-0.843081,-0.179889,-0.49532
1631024007930,-0.84363,-0.17976699999999998,-0.497394
1631024007939,-0.845094,-0.17946199999999998,-0.498492
1631024007949,-0.8468019999999999,-0.179828,-0.501115
1631024007958,-0.845826,-0.180011,-0.501481
1631024007968,-0.846375,-0.178181,-0.502518
1631024007978,-0.84546,-0.17946199999999998,-0.503006
1631024007987,-0.84485,-0.17995,-0.501481
1631024007997,-0.844789,-0.179828,-0.501054
1631024008006,-0.844545,-0.180926,-0.500566
1631024008016,-0.84485,-0.181475,-0.500566
1631024008026,-0.844423,-0.181109,-0.499651
1631024008035,-0.842349,-0.181902,-0.49855299999999997
1631024008045,-0.841983,-0.183244,-0.496784
1631024008054,-0.8418,-0.183061,-0.497272
1631024008064,-0.842349,-0.18287799999999999,-0.49824799999999997
1631024008074,-0.841495,-0.182756,-0.498614
1631024008083,-0.840092,-0.184952,-0.49580799999999997
1631024008093,-0.838811,-0.186172,-0.493368
1631024008102,-0.838872,-0.186599,-0.492087
1631024008112,-0.8398479999999999,-0.185806,-0.493063
1631024008122,-0.841739,-0.184952,-0.497516
1631024008131,-0.842898,-0.18287799999999999,-0.500444
1631024008141,-0.843996,-0.181475,-0.501298
1631024008150,-0.844972,-0.18239,-0.50081
1631024008160,-0.843508,-0.18257299999999999,-0.497821
1631024008170,-0.843752,-0.18257299999999999,-0.49532
1631024008179,-0.841678,-0.182085,-0.493917
1631024008189,-0.841739,-0.18178,-0.486048
1631024008198,-0.841617,-0.179645,-0.486414
1631024008208,-0.845033,-0.177083,-0.494222
1631024008218,-0.848998,-0.17580199999999999,-0.508374
1631024008227,-0.8516819999999999,-0.17824199999999998,-0.511485
1631024008237,-0.8513769999999999,-0.182329,-0.502762
1631024008246,-0.85095,-0.18531799999999998,-0.495625
1631024008256,-0.8501569999999999,-0.189283,-0.492514
1631024008266,-0.849059,-0.18781899999999999,-0.49654
1631024008275,-0.846985,-0.187392,-0.49898
1631024008285,-0.845399,-0.186782,-0.498736
1631024008294,-0.843813,-0.185074,-0.495564
1631024008304,-0.843386,-0.184769,-0.49233099999999996
1631024008314,-0.84302,-0.187392,-0.491782
1631024008323,-0.843569,-0.187392,-0.491904
1631024008333,-0.844179,-0.18544,-0.49166
1631024008342,-0.843813,-0.18666,-0.494161
1631024008352,-0.842959,-0.18605,-0.49550299999999997
1631024008362,-0.84424,-0.185562,-0.493673
1631024008371,-0.845826,-0.184952,-0.494344
1631024008381,-0.845826,-0.183854,-0.495625
1631024008390,-0.84546,-0.183427,-0.497455
1631024008400,-0.845521,-0.181658,-0.49946799999999997
1631024008410,-0.844423,-0.182329,-0.501298
1631024008419,-0.84424,-0.18531799999999998,-0.496906
1631024008429,-0.842898,-0.185684,-0.49324599999999996
1631024008438,-0.842898,-0.185989,-0.490074
1631024008448,-0.844118,-0.1891,-0.490562
1631024008458,-0.846314,-0.18934399999999998,-0.493734
1631024008467,-0.8477169999999999,-0.188978,-0.495076
1631024008477,-0.846436,-0.189161,-0.49355099999999996
1631024008486,-0.846253,-0.188795,-0.4941
1631024008496,-0.845399,-0.18812399999999999,-0.495686
1631024008506,-0.844911,-0.187453,-0.498126
1631024008515,-0.843508,-0.18781899999999999,-0.499407
1631024008525,-0.842227,-0.188856,-0.49885799999999997
1631024008534,-0.842532,-0.188551,-0.496662
1631024008544,-0.842898,-0.1891,-0.496479
1631024008554,-0.842288,-0.189771,-0.497577
1631024008563,-0.843935,-0.190625,-0.499956
1631024008573,-0.844911,-0.191418,-0.501359
1631024008582,-0.84485,-0.192516,-0.501359
1631024008592,-0.84363,-0.192028,-0.503006
1631024008602,-0.843203,-0.193797,-0.502884
1631024008611,-0.842715,-0.193919,-0.501298
1631024008621,-0.841739,-0.19397999999999999,-0.498797
1631024008630,-0.841556,-0.196603,-0.49715
1631024008640,-0.842044,-0.196847,-0.497577
1631024008650,-0.841434,-0.19580999999999998,-0.496784
1631024008659,-0.8407629999999999,-0.194956,-0.496967
1631024008669,-0.840519,-0.193614,-0.497211
1631024008678,-0.8392379999999999,-0.192333,-0.497699
1631024008688,-0.8374079999999999,-0.190442,-0.496357
1631024008698,-0.836737,-0.189527,-0.495076
1631024008707,-0.837042,-0.1891,-0.4941
1631024008717,-0.837835,-0.18849,-0.495625
1631024008726,-0.83875,-0.186172,-0.497455
1631024008736,-0.838567,-0.185745,-0.498919
1631024008746,-0.84058,-0.184647,-0.498797
1631024008755,-0.839787,-0.185135,-0.497455
1631024008765,-0.841495,-0.18544,-0.495381
1631024008774,-0.842044,-0.187636,-0.496357
1631024008784,-0.841373,-0.189405,-0.495747
1631024008794,-0.838506,-0.190747,-0.497211
1631024008803,-0.839482,-0.19154,-0.48861
1631024008813,-0.839909,-0.18995399999999998,-0.489952
1631024008822,-0.843874,-0.18788,-0.497516
1631024008832,-0.847534,-0.187697,-0.505934
1631024008842,-0.850645,-0.190503,-0.509716
1631024008851,-0.850035,-0.194407,-0.503555
1631024008861,-0.849059,-0.19733499999999998,-0.49593
1631024008870,-0.848876,-0.198433,-0.49227
1631024008880,-0.848693,-0.198616,-0.49519799999999997
1631024008890,-0.848144,-0.195993,-0.499346
1631024008899,-0.84546,-0.19397999999999999,-0.499529
1631024008909,-0.844667,-0.192211,-0.49776
1631024008918,-0.844911,-0.19154,-0.497516
1631024008928,-0.846558,-0.193126,-0.495564
1631024008938,-0.847168,-0.195078,-0.497089
1631024008947,-0.8477169999999999,-0.196481,-0.49824799999999997
1631024008957,-0.8477169999999999,-0.198189,-0.497821
1631024008966,-0.8464969999999999,-0.199348,-0.496052
1631024008976,-0.846314,-0.199226,-0.49532
1631024008986,-0.846863,-0.198738,-0.494344
1631024008995,-0.8471069999999999,-0.198433,-0.49611299999999997
1631024009005,-0.846558,-0.198494,-0.497394
1631024009014,-0.846558,-0.19886,-0.496967
1631024009024,-0.844118,-0.200324,-0.497577
1631024009034,-0.841739,-0.202215,-0.491965
1631024009043,-0.84058,-0.201849,-0.49050099999999996
1631024009053,-0.8389329999999999,-0.2013,-0.49263599999999996
1631024009062,-0.838201,-0.201483,-0.494771
1631024009072,-0.839909,-0.20008,-0.496906
1631024009082,-0.840824,-0.198982,-0.49733299999999997
1631024009091,-0.839482,-0.198067,-0.496296
1631024009101,-0.8374079999999999,-0.198067,-0.495015
1631024009110,-0.8367979999999999,-0.196786,-0.4941
1631024009120,-0.8380179999999999,-0.197518,-0.497516
1631024009130,-0.838567,-0.198494,-0.498492
1631024009139,-0.838079,-0.198128,-0.49885799999999997
1631024009149,-0.837896,-0.198738,-0.49916299999999997
1631024009158,-0.838384,-0.19983599999999999,-0.49855299999999997
1631024009168,-0.838262,-0.199287,-0.499956
1631024009178,-0.838445,-0.200019,-0.49977299999999997
1631024009187,-0.839055,-0.202215,-0.498126
1631024009197,-0.840092,-0.202154,-0.49763799999999997
1631024009206,-0.842166,-0.202459,-0.49898
1631024009216,-0.843508,-0.203435,-0.500932
1631024009226,-0.84607,-0.204472,-0.502335
1631024009235,-0.847168,-0.204777,-0.505019
1631024009245,-0.847656,-0.207034,-0.504836
1631024009254,-0.848266,-0.208498,-0.505446
1631024009264,-0.84912,-0.20904699999999998,-0.504897
1631024009274,-0.848754,-0.208925,-0.503128
1631024009283,-0.848754,-0.209169,-0.503311
1631024009293,-0.848205,-0.210572,-0.505141
1631024009302,-0.847595,-0.21167,-0.505812
1631024009312,-0.845521,-0.211426,-0.504226
1631024009322,-0.840336,-0.209413,-0.502274
1631024009331,-0.836005,-0.20599699999999999,-0.49654
1631024009341,-0.83326,-0.20349599999999998,-0.493368
1631024009350,-0.829966,-0.202703,-0.491843
1631024009360,-0.83082,-0.201849,-0.490562
1631024009370,-0.8297829999999999,-0.200995,-0.489037
1631024009379,-0.829234,-0.20044599999999999,-0.48592599999999997
1631024009389,-0.82899,-0.202459,-0.483974
1631024009398,-0.830576,-0.204716,-0.479826
1631024009408,-0.833931,-0.20862,-0.479887
1631024009418,-0.8374079999999999,-0.212402,-0.479582
1631024009427,-0.839421,-0.217099,-0.477813
1631024009437,-0.842959,-0.220637,-0.478667
1631024009446,-0.8474119999999999,-0.225212,-0.483303
1631024009456,-0.848693,-0.228933,-0.488
1631024009466,-0.851255,-0.231312,-0.482937
1631024009475,-0.853268,-0.235277,-0.476776
1631024009485,-0.853146,-0.23851,-0.471347
1631024009494,-0.852048,-0.238815,-0.470981
1631024009504,-0.8522919999999999,-0.238998,-0.469029
1631024009514,-0.854305,-0.235338,-0.468724
1631024009523,-0.856684,-0.230458,-0.469334
1631024009533,-0.8583919999999999,-0.227652,-0.469578
1631024009542,-0.861503,-0.224663,-0.46799199999999996
1631024009552,-0.8623569999999999,-0.225456,-0.466345
1631024009562,-0.863394,-0.22417499999999999,-0.46524699999999997
1631024009571,-0.86437,-0.223138,-0.46433199999999997
1631024009581,-0.866322,-0.22106399999999998,-0.464881
1631024009590,-0.866078,-0.219173,-0.461648
1631024009600,-0.866749,-0.216489,-0.460916
1631024009610,-0.8662,-0.213744,-0.46006199999999997
1631024009619,-0.865224,-0.211731,-0.459269
1631024009629,-0.865773,-0.208925,-0.458659
1631024009638,-0.866444,-0.206485,-0.459635
1631024009648,-0.865651,-0.203862,-0.45933
1631024009658,-0.8647969999999999,-0.200385,-0.45945199999999997
1631024009667,-0.8641869999999999,-0.196847,-0.458293
1631024009677,-0.86376,-0.193309,-0.460123
1631024009686,-0.8620519999999999,-0.190625,-0.459086
1631024009696,-0.862906,-0.187331,-0.45945199999999997
1631024009706,-0.862479,-0.184159,-0.457744
1631024009715,-0.86071,-0.181841,-0.45658499999999996
1631024009725,-0.860344,-0.178486,-0.457317
1631024009734,-0.859124,-0.175558,-0.457012
1631024009744,-0.858758,-0.172752,-0.457256
1631024009754,-0.8590019999999999,-0.172203,-0.457988
1631024009763,-0.858941,-0.17116599999999998,-0.45872
1631024009773,-0.857843,-0.17086099999999999,-0.458354
1631024009782,-0.8577819999999999,-0.169214,-0.4575
1631024009792,-0.858209,-0.168726,-0.458964
1631024009802,-0.858941,-0.168238,-0.460916
1631024009811,-0.8593069999999999,-0.168726,-0.462746
1631024009821,-0.858758,-0.168909,-0.466406
1631024009830,-0.859673,-0.169519,-0.468053
1631024009840,-0.859734,-0.168726,-0.470066
1631024009850,-0.859978,-0.169763,-0.470676
1631024009859,-0.858575,-0.17086099999999999,-0.473116
1631024009869,-0.858331,-0.172264,-0.472567
1631024009878,-0.859063,-0.174216,-0.473787
1631024009888,-0.857721,-0.175314,-0.47482399999999997
1631024009898,-0.857294,-0.176534,-0.474641
1631024009907,-0.85766,-0.17793699999999998,-0.47519
1631024009917,-0.85644,-0.180194,-0.473848
1631024009926,-0.856074,-0.182512,-0.47336
1631024009936,-0.854976,-0.183915,-0.474031
1631024009946,-0.855403,-0.184281,-0.47604399999999997
1631024009955,-0.855159,-0.184586,-0.47848399999999996
1631024009965,-0.854366,-0.186355,-0.479826
1631024009974,-0.85217,-0.189283,-0.478362
1631024009984,-0.850218,-0.19147899999999998,-0.476471
1631024009994,-0.85095,-0.193004,-0.477386
1631024010003,-0.853634,-0.19337,-0.481107
1631024010013,-0.855525,-0.194468,-0.484218
1631024010022,-0.856501,-0.19611499999999998,-0.48409599999999997
1631024010032,-0.855586,-0.195871,-0.48409599999999997
1631024010042,-0.85278,-0.196176,-0.483852
1631024010051,-0.85156,-0.19672499999999998,-0.482388
1631024010061,-0.851194,-0.196298,-0.4819
1631024010070,-0.849791,-0.195932,-0.478545
1631024010080,-0.8479,-0.19458999999999999,-0.47702
1631024010090,-0.847595,-0.192638,-0.477203
1631024010099,-0.8492419999999999,-0.1891,-0.481351
1631024010109,-0.8504619999999999,-0.183366,-0.48983
1631024010118,-0.851926,-0.179706,-0.49166
1631024010128,-0.851438,-0.179279,-0.489708
1631024010138,-0.849303,-0.180438,-0.487512
1631024010147,-0.848388,-0.179279,-0.48434
1631024010157,-0.848449,-0.179279,-0.482388
1631024010166,-0.847595,-0.179828,-0.481046
1631024010176,-0.84729,-0.178608,-0.477752
1631024010186,-0.848266,-0.17934,-0.473238
1631024010195,-0.84729,-0.18196299999999999,-0.469273
1631024010205,-0.848266,-0.18226799999999999,-0.46799199999999996
1631024010214,-0.851743,-0.182756,-0.470127
1631024010224,-0.851743,-0.18226799999999999,-0.472628
1631024010234,-0.8538169999999999,-0.181658,-0.473238
1631024010243,-0.85705,-0.180438,-0.47421399999999997
1631024010253,-0.85888,-0.181597,-0.472506
1631024010262,-0.859429,-0.182024,-0.471347
1631024010272,-0.860771,-0.182695,-0.47177399999999997
1631024010282,-0.8620519999999999,-0.18361,-0.473116
1631024010291,-0.862723,-0.18409799999999998,-0.476593
1631024010301,-0.85949,-0.18483,-0.478118
1631024010310,-0.857233,-0.185257,-0.475556
1631024010320,-0.85705,-0.184952,-0.474336
1631024010330,-0.856684,-0.185867,-0.475983
1631024010339,-0.856928,-0.18812399999999999,-0.476288
1631024010349,-0.8559519999999999,-0.18995399999999998,-0.476776
1631024010358,-0.8559519999999999,-0.192638,-0.47726399999999997
1631024010368,-0.856928,-0.196969,-0.47665399999999997
1631024010378,-0.855708,-0.20197099999999998,-0.476837
1631024010387,-0.8541219999999999,-0.206729,-0.477691
1631024010397,-0.854244,-0.209535,-0.47665399999999997
1631024010406,-0.853268,-0.209718,-0.479521
1631024010416,-0.853939,-0.20862,-0.482388
1631024010426,-0.854976,-0.206851,-0.48501099999999997
1631024010435,-0.85522,-0.20374,-0.48745099999999997
1631024010445,-0.854549,-0.202093,-0.48922
1631024010454,-0.854488,-0.200263,-0.48562099999999997
1631024010464,-0.853939,-0.20166599999999998,-0.484584
1631024010474,-0.854305,-0.20380099999999998,-0.483852
1631024010483,-0.855098,-0.205631,-0.483364
1631024010493,-0.854976,-0.20691199999999998,-0.484584
1631024010502,-0.854976,-0.208376,-0.488854
1631024010512,-0.854671,-0.209474,-0.492758
1631024010522,-0.8535119999999999,-0.209779,-0.497516
1631024010531,-0.85217,-0.208498,-0.49977299999999997
1631024010541,-0.85095,-0.20862,-0.500444
1631024010550,-0.847839,-0.208986,-0.499285
1631024010560,-0.845826,-0.209169,-0.496845
1631024010570,-0.843203,-0.20996199999999998,-0.49489299999999997
1631024010579,-0.842166,-0.210877,-0.492819
1631024010589,-0.83997,-0.211914,-0.48989099999999997
1631024010598,-0.839177,-0.213439,-0.488549
1631024010608,-0.8377129999999999,-0.216367,-0.489159
1631024010618,-0.835517,-0.22167399999999998,-0.48775599999999997
1631024010627,-0.833992,-0.22417499999999999,-0.485499
1631024010637,-0.83387,-0.226371,-0.483974
1631024010646,-0.83387,-0.228079,-0.485194
1631024010656,-0.833382,-0.230275,-0.48409599999999997
1631024010666,-0.833565,-0.231495,-0.48501099999999997
1631024010675,-0.833077,-0.23216599999999998,-0.48562099999999997
1631024010685,-0.8355779999999999,-0.22875,-0.48684099999999997
1631024010694,-0.838445,-0.22752999999999998,-0.487695
1631024010704,-0.84058,-0.22569999999999998,-0.488183
1631024010714,-0.841251,-0.226371,-0.48861
1631024010723,-0.840946,-0.228384,-0.48592599999999997
1631024010733,-0.83936,-0.22844499999999998,-0.486658
1631024010742,-0.837774,-0.22936,-0.482327
1631024010752,-0.83814,-0.23186099999999998,-0.4697
1631024010762,-0.842471,-0.23058,-0.470432
1631024010771,-0.8504619999999999,-0.23094599999999998,-0.474702
1631024010781,-0.8541219999999999,-0.234423,-0.47817899999999997
1631024010790,-0.85644,-0.234118,-0.47268899999999997
1631024010800,-0.85888,-0.232898,-0.466528
1631024010810,-0.8605269999999999,-0.230275,-0.46646699999999996
1631024010819,-0.861198,-0.23033599999999999,-0.470737
1631024010829,-0.86254,-0.22972599999999999,-0.473543
1631024010838,-0.866139,-0.228567,-0.478362
1631024010848,-0.868335,-0.22972599999999999,-0.482632
1631024010858,-0.869799,-0.232288,-0.484279
1631024010867,-0.868213,-0.232288,-0.48714599999999997
1631024010877,-0.866017,-0.231983,-0.48922
1631024010886,-0.862601,-0.233142,-0.48983
1631024010896,-0.85949,-0.23430099999999998,-0.487939
1631024010906,-0.853451,-0.232593,-0.483974
1631024010915,-0.85034,-0.227591,-0.483852
1631024010925,-0.850035,-0.22691999999999998,-0.48251
1631024010934,-0.849608,-0.226981,-0.48501099999999997
1631024010944,-0.847046,-0.227469,-0.48745099999999997
1631024010954,-0.847168,-0.224602,-0.487695
1631024010963,-0.845399,-0.22265,-0.489647
1631024010973,-0.843386,-0.21923399999999998,-0.492697
1631024010982,-0.844118,-0.217404,-0.493368
1631024010992,-0.846619,-0.215635,-0.498492
1631024011002,-0.845704,-0.212524,-0.500078
1631024011011,-0.845155,-0.20996199999999998,-0.500566
1631024011021,-0.845399,-0.206485,-0.502945
1631024011030,-0.843447,-0.203435,-0.503311
1631024011040,-0.843081,-0.202154,-0.500383
1631024011050,-0.845338,-0.198982,-0.500871
1631024011059,-0.84485,-0.197884,-0.502091
1631024011069,-0.848388,-0.197701,-0.500261
1631024011078,-0.8492419999999999,-0.195322,-0.49837
1631024011088,-0.851926,-0.196054,-0.494039
1631024011098,-0.852475,-0.197884,-0.490074
1631024011107,-0.853085,-0.195932,-0.489464
1631024011117,-0.8538169999999999,-0.19056399999999998,-0.488427
1631024011126,-0.856745,-0.18562299999999998,-0.490562
1631024011136,-0.860893,-0.185562,-0.492392
1631024011146,-0.862906,-0.18257299999999999,-0.499529
1631024011155,-0.863638,-0.182634,-0.502091
1631024011165,-0.867603,-0.182695,-0.499346
1631024011174,-0.865346,-0.178974,-0.502884
1631024011184,-0.862174,-0.176168,-0.501115
1631024011194,-0.8590019999999999,-0.170312,-0.498126
1631024011203,-0.857111,-0.168055,-0.49263599999999996
1631024011213,-0.8571719999999999,-0.166591,-0.490745
1631024011222,-0.8529019999999999,-0.16652999999999998,-0.492697
1631024011232,-0.8507669999999999,-0.16775,-0.491355
1631024011242,-0.848205,-0.16652999999999998,-0.494954
1631024011251,-0.8474119999999999,-0.164212,-0.49959
1631024011261,-0.847229,-0.166164,-0.505751
1631024011270,-0.844728,-0.166957,-0.509594
1631024011280,-0.8418,-0.168055,-0.510753
1631024011290,-0.837469,-0.167201,-0.5127659999999999
1631024011299,-0.834419,-0.167506,-0.510875
1631024011309,-0.831674,-0.167262,-0.506788
1631024011318,-0.827282,-0.163785,-0.5124609999999999
1631024011328,-0.8239879999999999,-0.164212,-0.518317
1631024011338,-0.817766,-0.166164,-0.521367
1631024011347,-0.813557,-0.16500499999999999,-0.521977
1631024011357,-0.808128,-0.163846,-0.5203909999999999
1631024011366,-0.809653,-0.166408,-0.5155109999999999
1631024011376,-0.80886,-0.168543,-0.518134
1631024011386,-0.811727,-0.169885,-0.52582
1631024011395,-0.813252,-0.170129,-0.534665
1631024011405,-0.813862,-0.173545,-0.542412
1631024011414,-0.809836,-0.174704,-0.5416799999999999
1631024011424,-0.801601,-0.168726,-0.5371049999999999
1631024011434,-0.797392,-0.159027,-0.536678
1631024011443,-0.794037,-0.147376,-0.542229
1631024011453,-0.792878,-0.136762,-0.545828
1631024011462,-0.7902549999999999,-0.130113,-0.545828
1631024011472,-0.791536,-0.131272,-0.550159
1631024011482,-0.788547,-0.138287,-0.553758
1631024011491,-0.7856799999999999,-0.147986,-0.552599
1631024011501,-0.785558,-0.156404,-0.55388
1631024011510,-0.786046,-0.165127,-0.555344
1631024011520,-0.787388,-0.173179,-0.557601
1631024011530,-0.7887299999999999,-0.178486,-0.558638
1631024011539,-0.790621,-0.18483,-0.559675
1631024011549,-0.791231,-0.188612,-0.5608339999999999
1631024011558,-0.792268,-0.184769,-0.55998
1631024011568,-0.793732,-0.18361,-0.559004
1631024011578,-0.795196,-0.18226799999999999,-0.561932
1631024011587,-0.801418,-0.18318299999999998,-0.565043
1631024011597,-0.803736,-0.18562299999999998,-0.569801
1631024011606,-0.805383,-0.185806,-0.5673
1631024011616,-0.8054439999999999,-0.183061,-0.5690689999999999
1631024011626,-0.808616,-0.18440299999999998,-0.568825
1631024011635,-0.810263,-0.18873399999999999,-0.565775
1631024011645,-0.8100189999999999,-0.192211,-0.559248
1631024011654,-0.8121539999999999,-0.196664,-0.551745
1631024011664,-0.812886,-0.198006,-0.548207
1631024011674,-0.814106,-0.19886,-0.55205
1631024011683,-0.8174,-0.196542,-0.55266
1631024011693,-0.8161189999999999,-0.195078,-0.55144
1631024011702,-0.814472,-0.188795,-0.55022
1631024011712,-0.814472,-0.187392,-0.552172
1631024011722,-0.815448,-0.185562,-0.55205
1631024011731,-0.815753,-0.186843,-0.55388
1631024011741,-0.81496,-0.18531799999999998,-0.555161
1631024011750,-0.815326,-0.185074,-0.5551
1631024011760,-0.8155089999999999,-0.186294,-0.551318
1631024011770,-0.816546,-0.190015,-0.545889
1631024011779,-0.819108,-0.191662,-0.541802
1631024011789,-0.821548,-0.192028,-0.544791
1631024011798,-0.822036,-0.190137,-0.543449
1631024011808,-0.819108,-0.19117399999999998,-0.5410699999999999
1631024011818,-0.816851,-0.191906,-0.541436
1631024011827,-0.81496,-0.193065,-0.541863
1631024011837,-0.813618,-0.193492,-0.5419849999999999
1631024011846,-0.8113,-0.19428499999999999,-0.538264
1631024011856,-0.8097139999999999,-0.198067,-0.536312
1631024011866,-0.810873,-0.203252,-0.535275
1631024011875,-0.8161189999999999,-0.206241,-0.537288
1631024011885,-0.820389,-0.206546,-0.5459499999999999
1631024011894,-0.822646,-0.203862,-0.551806
1631024011904,-0.8236829999999999,-0.198189,-0.554246
1631024011914,-0.8221579999999999,-0.19611499999999998,-0.556198
1631024011923,-0.817339,-0.194346,-0.555405
1631024011933,-0.812947,-0.188612,-0.554551
1631024011942,-0.806542,-0.185684,-0.553148
1631024011952,-0.805993,-0.184464,-0.55022
1631024011962,-0.800625,-0.186355,-0.557479
1631024011971,-0.799222,-0.18849,-0.560956
1631024011981,-0.793427,-0.193492,-0.568032
1631024011990,-0.788486,-0.205082,-0.568276
1631024012000,-0.780434,-0.218685,-0.563701
1631024012010,-0.770918,-0.23155599999999998,-0.562237
1631024012019,-0.764452,-0.241682,-0.561993
1631024012029,-0.751459,-0.24973399999999998,-0.557662
1631024012038,-0.736331,-0.249307,-0.547231
1631024012048,-0.724558,-0.248636,-0.532408
1631024012058,-0.723643,-0.250954,-0.525942
1631024012067,-0.730719,-0.256566,-0.530944
1631024012077,-0.737368,-0.262971,-0.5404599999999999
1631024012086,-0.745908,-0.268888,-0.548817
1631024012096,-0.7534109999999999,-0.27572,-0.552172
1631024012106,-0.756644,-0.280356,-0.552904
1631024012115,-0.758962,-0.284321,-0.551074
1631024012125,-0.76006,-0.28407699999999997,-0.553209
1631024012134,-0.765855,-0.281088,-0.558638
1631024012144,-0.77348,-0.276208,-0.5641889999999999
1631024012154,-0.780617,-0.270657,-0.569801
1631024012163,-0.787754,-0.266875,-0.573522
1631024012173,-0.791658,-0.265106,-0.573156
1631024012182,-0.793122,-0.26352,-0.573644
1631024012192,-0.793915,-0.262483,-0.572607
1631024012202,-0.794464,-0.261995,-0.571875
1631024012211,-0.789828,-0.26108,-0.576389
1631024012221,-0.7853749999999999,-0.260836,-0.574742
1631024012230,-0.782203,-0.264374,-0.573949
1631024012240,-0.777628,-0.271328,-0.571631
1631024012250,-0.777994,-0.276818,-0.567117
1631024012259,-0.776408,-0.2806,-0.5718139999999999
1631024012269,-0.771528,-0.28365,-0.575474
1631024012278,-0.768173,-0.286578,-0.575291
1631024012288,-0.7677459999999999,-0.287737,-0.576816
1631024012298,-0.766038,-0.289628,-0.584075
1631024012307,-0.763415,-0.293776,-0.587186
1631024012317,-0.761463,-0.294203,-0.588284
1631024012326,-0.760853,-0.29768,-0.588711
1631024012336,-0.760182,-0.303963,-0.5856
1631024012346,-0.75945,-0.312442,-0.57828
1631024012355,-0.758047,-0.317139,-0.573217
1631024012365,-0.7610359999999999,-0.322995,-0.56852
1631024012374,-0.766404,-0.327692,-0.569313
1631024012384,-0.767929,-0.330132,-0.575901
1631024012394,-0.7653059999999999,-0.330681,-0.58438
1631024012403,-0.763964,-0.331352,-0.588467
1631024012413,-0.7640859999999999,-0.335317,-0.589016
1631024012422,-0.75945,-0.337879,-0.587735
1631024012432,-0.7582909999999999,-0.33855,-0.584685
1631024012442,-0.757559,-0.341478,-0.581757
1631024012451,-0.756888,-0.34294199999999997,-0.580842
1631024012461,-0.755607,-0.344406,-0.579561
1631024012470,-0.7524959999999999,-0.344589,-0.575108
1631024012480,-0.752862,-0.344711,-0.56791
1631024012490,-0.755302,-0.347273,-0.564128
1631024012499,-0.7531059999999999,-0.34831,-0.561322
1631024012509,-0.748165,-0.346846,-0.553148
1631024012518,-0.738039,-0.340441,-0.5435099999999999
1631024012528,-0.724619,-0.327814,-0.527955
1631024012538,-0.715469,-0.314577,-0.522099
1631024012547,-0.710101,-0.304207,-0.530029
1631024012557,-0.698206,-0.303231,-0.5367999999999999
1631024012566,-0.701012,-0.305122,-0.529236
1631024012576,-0.711931,-0.309514,-0.525637
1631024012586,-0.7190679999999999,-0.31537,-0.52521
1631024012595,-0.724619,-0.319152,-0.527101
1631024012605,-0.726449,-0.318969,-0.531798
1631024012614,-0.724497,-0.315431,-0.536312
1631024012624,-0.722606,-0.310185,-0.537593
1631024012634,-0.716567,-0.308294,-0.535641
1631024012643,-0.719922,-0.307623,-0.530029
1631024012653,-0.726083,-0.311588,-0.529297
1631024012662,-0.733281,-0.317505,-0.532042
1631024012672,-0.741333,-0.323727,-0.528504
1631024012682,-0.747128,-0.330742,-0.525942
1631024012691,-0.753838,-0.339709,-0.528809
1631024012701,-0.759999,-0.35160399999999997,-0.534665
1631024012710,-0.764818,-0.365207,-0.537471
1631024012720,-0.768783,-0.378139,-0.538447
1631024012730,-0.771833,-0.39009499999999997,-0.5377149999999999
1631024012739,-0.773236,-0.40302699999999997,-0.53497
1631024012749,-0.778238,-0.41443399999999997,-0.532164
1631024012758,-0.7856799999999999,-0.42584099999999997,-0.533018
1631024012768,-0.7896449999999999,-0.43846799999999997,-0.534055
1631024012778,-0.793793,-0.447557,-0.52582
1631024012787,-0.799222,-0.454328,-0.519598
1631024012797,-0.804285,-0.46524699999999997,-0.516243
1631024012806,-0.810751,-0.476593,-0.512156
1631024012816,-0.819291,-0.487695,-0.514962
1631024012826,-0.8224629999999999,-0.505446,-0.511363
1631024012835,-0.82899,-0.5216109999999999,-0.503738
1631024012845,-0.8340529999999999,-0.5361899999999999,-0.498797
1631024012854,-0.836981,-0.5471699999999999,-0.496357
1631024012864,-0.845155,-0.555588,-0.496052
1631024012874,-0.853024,-0.559309,-0.5002
1631024012883,-0.854244,-0.5614439999999999,-0.500688
1631024012893,-0.860039,-0.560041,-0.495137
1631024012902,-0.86376,-0.558333,-0.493856
1631024012912,-0.860649,-0.558211,-0.487695
1631024012922,-0.860954,-0.558516,-0.477142
1631024012931,-0.863638,-0.558516,-0.469761
1631024012941,-0.862113,-0.563152,-0.46128199999999997
1631024012950,-0.866017,-0.561383,-0.453718
1631024012960,-0.8620519999999999,-0.558333,-0.451827
1631024012970,-0.856013,-0.550769,-0.446947
1631024012979,-0.8535119999999999,-0.542778,-0.438956
1631024012989,-0.845704,-0.535824,-0.426573
1631024012998,-0.8398479999999999,-0.527162,-0.412116
1631024013008,-0.834236,-0.51789,-0.403759
1631024013018,-0.822951,-0.511302,-0.40119699999999997
1631024013027,-0.8161189999999999,-0.49946799999999997,-0.39558499999999996
1631024013037,-0.808982,-0.487634,-0.394243
1631024013046,-0.799832,-0.476471,-0.389546
1631024013056,-0.793061,-0.462563,-0.385703
1631024013066,-0.781166,-0.455914,-0.384544
1631024013075,-0.768478,-0.455609,-0.377102
1631024013085,-0.763598,-0.45658499999999996,-0.36539
1631024013094,-0.754265,-0.46177,-0.356118
1631024013104,-0.74237,-0.465674,-0.344101
1631024013114,-0.743163,-0.468785,-0.334036
1631024013123,-0.7442,-0.47885,-0.339404
1631024013133,-0.7424919999999999,-0.48653599999999997,-0.3416
1631024013142,-0.7397469999999999,-0.489098,-0.335256
1631024013152,-0.736636,-0.492453,-0.326045
1631024013162,-0.733586,-0.498736,-0.31781
1631024013171,-0.732854,-0.500749,-0.318237
1631024013181,-0.733159,-0.499285,-0.329522
1631024013190,-0.731451,-0.501664,-0.34019699999999997
1631024013200,-0.731329,-0.509228,-0.34282
1631024013210,-0.732854,-0.517524,-0.345565
1631024013219,-0.732671,-0.5197809999999999,-0.343491
1631024013229,-0.7312069999999999,-0.521367,-0.34263699999999997
1631024013238,-0.729804,-0.519659,-0.34221
1631024013248,-0.723216,-0.518317,-0.344589
1631024013258,-0.717604,-0.51423,-0.344223
1631024013267,-0.716872,-0.51118,-0.346175
1631024013277,-0.715774,-0.50996,-0.350201
1631024013286,-0.7154079999999999,-0.501664,-0.351482
1631024013296,-0.71248,-0.49288,-0.35441
1631024013306,-0.710162,-0.483303,-0.35739899999999997
1631024013315,-0.707112,-0.47329899999999997,-0.362523
1631024013325,-0.70089,-0.46665,-0.36295
1631024013334,-0.696864,-0.459696,-0.360205
1631024013344,-0.6954,-0.45658499999999996,-0.3599
1631024013354,-0.699365,-0.454816,-0.364963
1631024013363,-0.70516,-0.452803,-0.373869
1631024013373,-0.709491,-0.451949,-0.384788
1631024013382,-0.7135779999999999,-0.449387,-0.393694
1631024013392,-0.71553,-0.444202,-0.403698
1631024013402,-0.717787,-0.436577,-0.412665
1631024013411,-0.722484,-0.425963,-0.42029
1631024013421,-0.729926,-0.417606,-0.433588
1631024013430,-0.7370019999999999,-0.410408,-0.44469
1631024013440,-0.747189,-0.405345,-0.450668
1631024013450,-0.752557,-0.406321,-0.455792
1631024013459,-0.752008,-0.406626,-0.45353499999999997
1631024013469,-0.75213,-0.40516199999999997,-0.453352
1631024013478,-0.754997,-0.40180699999999997,-0.456707
1631024013488,-0.756705,-0.401136,-0.46726
1631024013498,-0.7595109999999999,-0.402173,-0.47604399999999997
1631024013507,-0.76067,-0.40089199999999997,-0.482632
1631024013517,-0.7592059999999999,-0.398696,-0.486109
1631024013526,-0.762439,-0.395646,-0.488732
1631024013536,-0.7677459999999999,-0.391071,-0.494283
1631024013546,-0.7659159999999999,-0.391803,-0.497516
1631024013555,-0.767319,-0.389668,-0.49227
1631024013565,-0.765733,-0.388204,-0.48928099999999997
1631024013574,-0.763354,-0.386862,-0.484584
1631024013584,-0.761707,-0.380396,-0.478301
1631024013594,-0.76189,-0.3721,-0.47421399999999997
1631024013603,-0.762195,-0.362157,-0.473177
1631024013613,-0.7665259999999999,-0.354898,-0.471713
1631024013622,-0.770491,-0.342088,-0.465064
1631024013632,-0.768905,-0.333792,-0.463844
1631024013642,-0.765184,-0.324154,-0.45231499999999997
1631024013651,-0.767319,-0.31598,-0.44408
1631024013661,-0.762378,-0.312747,-0.442982
1631024013670,-0.762378,-0.30805,-0.438712
1631024013680,-0.765489,-0.304573,-0.435601
1631024013690,-0.76555,-0.305183,-0.434198
1631024013699,-0.763354,-0.308294,-0.431209
1631024013709,-0.766343,-0.310734,-0.427305
1631024013718,-0.772016,-0.31415,-0.43041599999999997
1631024013728,-0.777811,-0.323178,-0.43785799999999997
1631024013738,-0.786656,-0.338001,-0.433832
1631024013747,-0.800808,-0.343308,-0.429989
1631024013757,-0.816668,-0.346419,-0.430538
1631024013766,-0.83021,-0.349774,-0.434015
1631024013776,-0.841617,-0.35319,-0.44090799999999997
1631024013786,-0.858148,-0.35624,-0.44121299999999997
1631024013795,-0.8738859999999999,-0.358802,-0.44652
1631024013805,-0.88938,-0.36356,-0.452681
1631024013814,-0.9031049999999999,-0.368928,-0.461343
1631024013824,-0.913414,-0.369233,-0.47390899999999997
1631024013834,-0.921771,-0.36667099999999997,-0.483974
1631024013843,-0.926407,-0.367464,-0.48958599999999997
1631024013853,-0.9298839999999999,-0.371368,-0.491233
1631024013862,-0.925553,-0.375577,-0.492087
1631024013872,-0.92354,-0.379786,-0.493917
1631024013882,-0.91622,-0.388814,-0.493795
1631024013891,-0.906094,-0.397903,-0.490074
1631024013901,-0.899628,-0.40089199999999997,-0.484584
1631024013910,-0.892613,-0.405711,-0.481412
1631024013920,-0.8805959999999999,-0.409188,-0.478667
1631024013930,-0.870714,-0.407358,-0.472018
1631024013939,-0.86315,-0.399733,-0.467626
1631024013949,-0.852841,-0.391803,-0.467138
1631024013958,-0.841922,-0.388387,-0.463295
1631024013968,-0.83326,-0.381921,-0.458659
1631024013978,-0.826855,-0.377712,-0.455853
1631024013987,-0.819169,-0.3721,-0.458903
1631024013997,-0.809043,-0.366427,-0.45811
1631024014006,-0.804468,-0.359351,-0.45475499999999996
1631024014016,-0.801357,-0.35434899999999997,-0.453901
1631024014026,-0.795989,-0.349225,-0.45200999999999997
1631024014035,-0.795196,-0.34538199999999997,-0.447923
1631024014045,-0.794891,-0.340868,-0.44804499999999997
1631024014054,-0.796294,-0.332267,-0.448411
1631024014064,-0.799161,-0.323056,-0.446581
1631024014074,-0.801723,-0.315492,-0.448228
1631024014083,-0.80581,-0.307135,-0.453413
1631024014093,-0.811788,-0.299388,-0.459818
1631024014102,-0.816912,-0.29456899999999997,-0.46372199999999997
1631024014112,-0.8233779999999999,-0.29304399999999997,-0.464149
1631024014122,-0.829234,-0.290238,-0.46280699999999997
1631024014131,-0.835151,-0.287981,-0.46494199999999997
1631024014141,-0.840885,-0.284443,-0.469273
1631024014150,-0.846253,-0.282918,-0.472628
1631024014160,-0.851438,-0.28163699999999997,-0.472262
1631024014170,-0.8538169999999999,-0.279563,-0.470493
1631024014179,-0.859246,-0.278526,-0.471042
1631024014189,-0.8620519999999999,-0.277123,-0.470615
1631024014198,-0.866932,-0.274622,-0.473116
1631024014208,-0.8717509999999999,-0.27175499999999997,-0.477142
1631024014218,-0.873642,-0.268339,-0.479582
1631024014227,-0.872605,-0.263947,-0.48068
1631024014237,-0.872117,-0.25943299999999997,-0.476227
1631024014246,-0.869494,-0.258152,-0.473055
1631024014256,-0.868701,-0.258457,-0.47085899999999997
1631024014266,-0.865651,-0.258579,-0.467016
1631024014275,-0.863333,-0.25760299999999997,-0.463234
1631024014285,-0.861869,-0.258152,-0.460916
1631024014294,-0.859429,-0.258579,-0.461465
1631024014304,-0.855891,-0.25729799999999997,-0.46280699999999997
1631024014314,-0.851499,-0.256261,-0.461404
1631024014323,-0.845826,-0.255163,-0.456219
1631024014333,-0.842044,-0.256078,-0.452132
1631024014342,-0.8398479999999999,-0.257054,-0.450302
1631024014352,-0.8364929999999999,-0.256627,-0.450424
1631024014362,-0.835456,-0.25729799999999997,-0.451034
1631024014371,-0.835456,-0.257786,-0.453596
1631024014381,-0.834846,-0.257969,-0.453596
1631024014390,-0.835456,-0.25681,-0.456524
1631024014400,-0.837469,-0.255712,-0.462014
1631024014410,-0.837347,-0.25760299999999997,-0.467504
1631024014419,-0.836981,-0.258396,-0.470493
1631024014429,-0.835334,-0.257359,-0.473238
1631024014438,-0.8337479999999999,-0.254309,-0.472445
1631024014448,-0.833687,-0.252235,-0.469944
1631024014458,-0.8306979999999999,-0.24888,-0.473177
1631024014467,-0.831369,-0.24570799999999998,-0.48007
1631024014477,-0.8303929999999999,-0.241804,-0.488244
1631024014486,-0.83082,-0.24326799999999998,-0.491904
1631024014496,-0.829539,-0.249978,-0.48928099999999997
1631024014506,-0.830332,-0.25760299999999997,-0.486475
1631024014515,-0.832467,-0.26657,-0.488244
1631024014525,-0.831247,-0.273097,-0.490623
1631024014534,-0.828136,-0.277611,-0.492148
1631024014544,-0.823927,-0.28133199999999997,-0.494161
1631024014554,-0.81801,-0.287005,-0.49288
1631024014563,-0.814045,-0.293532,-0.48623099999999997
1631024014573,-0.810385,-0.29792399999999997,-0.484035
1631024014582,-0.806298,-0.302438,-0.482632
1631024014592,-0.802516,-0.303536,-0.481168
1631024014602,-0.8008689999999999,-0.30506099999999997,-0.47946
1631024014611,-0.79971,-0.307684,-0.479033
1631024014621,-0.797636,-0.308843,-0.479338
1631024014630,-0.795684,-0.309514,-0.478545
1631024014640,-0.793488,-0.310124,-0.47909399999999996
1631024014650,-0.791414,-0.311283,-0.477752
1631024014659,-0.792024,-0.310856,-0.47665399999999997
1631024014669,-0.792573,-0.30963599999999997,-0.47695899999999997
1631024014678,-0.792634,-0.310002,-0.47482399999999997
1631024014688,-0.795623,-0.309758,-0.471713
1631024014698,-0.797453,-0.310002,-0.472628
1631024014707,-0.800076,-0.306769,-0.470981
1631024014717,-0.803187,-0.30597599999999997,-0.47360399999999997
1631024014726,-0.8060539999999999,-0.305427,-0.47482399999999997
1631024014736,-0.80886,-0.30750099999999997,-0.473116
1631024014746,-0.810202,-0.306159,-0.471042
1631024014755,-0.81008,-0.305488,-0.470798
1631024014765,-0.8112389999999999,-0.30805,-0.466589
1631024014774,-0.815936,-0.307623,-0.465064
1631024014784,-0.819779,-0.30683,-0.465613
1631024014794,-0.822402,-0.307928,-0.465735
1631024014803,-0.8252079999999999,-0.307928,-0.464881
1631024014813,-0.826001,-0.309453,-0.462868
1631024014822,-0.825086,-0.312076,-0.46067199999999997
1631024014832,-0.8245979999999999,-0.316712,-0.456768
1631024014842,-0.824354,-0.320799,-0.454816
1631024014851,-0.8235,-0.322629,-0.45414499999999997
1631024014861,-0.8221579999999999,-0.32452,-0.451766
1631024014870,-0.822585,-0.325862,-0.44956999999999997
1631024014880,-0.8221579999999999,-0.328058,-0.45017999999999997
1631024014890,-0.820938,-0.329827,-0.448777
1631024014899,-0.818681,-0.329888,-0.447679
1631024014909,-0.81984,-0.331657,-0.444629
1631024014918,-0.818864,-0.330986,-0.442921
1631024014928,-0.81862,-0.331169,-0.440542
1631024014938,-0.81679,-0.332572,-0.43816299999999997
1631024014947,-0.817339,-0.33488999999999997,-0.43554
1631024014957,-0.817888,-0.338184,-0.432368
1631024014966,-0.819474,-0.343674,-0.42944
1631024014976,-0.821853,-0.348432,-0.427244
1631024014986,-0.8236829999999999,-0.35502,-0.426512
1631024014995,-0.826245,-0.35953399999999996,-0.42578
1631024015005,-0.8296,-0.36295,-0.427244
1631024015014,-0.830332,-0.366732,-0.426085
1631024015024,-0.833382,-0.369172,-0.424682
1631024015034,-0.8367979999999999,-0.371673,-0.422791
1631024015043,-0.84058,-0.376919,-0.42273
1631024015053,-0.841739,-0.380579,-0.422242
1631024015062,-0.842959,-0.380396,-0.417118
1631024015072,-0.845765,-0.38125,-0.413336
1631024015082,-0.846985,-0.383141,-0.411018
1631024015091,-0.846131,-0.38387299999999996,-0.414922
1631024015101,-0.846558,-0.384727,-0.41595899999999997
1631024015110,-0.846985,-0.388448,-0.415105
1631024015120,-0.846924,-0.39283999999999997,-0.412055
1631024015130,-0.847046,-0.395707,-0.410896
1631024015139,-0.846436,-0.397598,-0.410225
1631024015149,-0.843874,-0.396622,-0.409249
1631024015158,-0.843508,-0.394426,-0.40577199999999997
1631024015168,-0.84058,-0.39253499999999997,-0.40546699999999997
1631024015178,-0.840702,-0.392596,-0.401624
1631024015187,-0.839299,-0.392474,-0.399428
1631024015197,-0.838262,-0.390644,-0.399489
1631024015206,-0.838872,-0.391864,-0.398635
1631024015216,-0.8398479999999999,-0.390583,-0.397964
1631024015226,-0.84058,-0.38887499999999997,-0.399062
1631024015235,-0.840641,-0.386435,-0.400404
1631024015245,-0.839177,-0.385642,-0.401136
1631024015254,-0.8404579999999999,-0.383324,-0.399306
1631024015264,-0.841129,-0.38112799999999997,-0.401136
1631024015274,-0.839482,-0.379725,-0.401258
1631024015283,-0.841068,-0.37929799999999997,-0.400648
1631024015293,-0.842715,-0.379481,-0.40119699999999997
1631024015302,-0.841861,-0.381006,-0.398452
1631024015312,-0.843752,-0.38125,-0.39711
1631024015322,-0.844484,-0.383324,-0.398086
1631024015331,-0.846619,-0.385886,-0.397964
1631024015341,-0.846863,-0.385764,-0.399794
1631024015350,-0.845338,-0.385215,-0.399916
1631024015360,-0.84607,-0.384361,-0.396317
1631024015370,-0.844301,-0.382409,-0.392657
1631024015379,-0.8418,-0.38064,-0.390888
1631024015389,-0.83997,-0.37868799999999997,-0.390278
1631024015398,-0.839177,-0.37698,-0.38917999999999997
1631024015408,-0.836127,-0.374662,-0.388082
1631024015418,-0.833992,-0.373015,-0.385703
1631024015427,-0.833321,-0.371002,-0.38613
1631024015437,-0.831369,-0.370575,-0.386313
1631024015446,-0.831491,-0.37027,-0.385825
1631024015456,-0.831186,-0.370087,-0.385459
1631024015466,-0.833016,-0.370514,-0.383995
1631024015475,-0.83387,-0.370392,-0.383324
1631024015485,-0.83448,-0.369172,-0.384727
1631024015494,-0.834724,-0.367952,-0.38552
1631024015504,-0.836066,-0.368074,-0.38674
1631024015514,-0.836371,-0.36697599999999997,-0.388021
1631024015523,-0.836615,-0.36819599999999997,-0.38734999999999997
1631024015533,-0.837652,-0.369355,-0.387899
1631024015542,-0.83875,-0.37063599999999997,-0.389668
1631024015552,-0.83875,-0.3721,-0.390583
1631024015562,-0.84058,-0.374174,-0.39161999999999997
1631024015571,-0.842105,-0.37624799999999997,-0.392047
1631024015581,-0.842227,-0.37881,-0.392596
1631024015590,-0.842227,-0.381799,-0.391864
1631024015600,-0.840031,-0.385642,-0.39131499999999997
1631024015610,-0.839177,-0.387594,-0.39070499999999997
1631024015619,-0.837347,-0.389424,-0.391254
1631024015629,-0.8357,-0.39131499999999997,-0.391193
1631024015638,-0.835639,-0.392352,-0.391681
1631024015648,-0.836005,-0.393206,-0.390339
1631024015658,-0.836066,-0.392901,-0.39070499999999997
1631024015667,-0.835517,-0.392352,-0.389302
1631024015677,-0.835334,-0.39222999999999997,-0.390766
1631024015686,-0.8346629999999999,-0.392352,-0.390766
1631024015696,-0.836981,-0.390461,-0.388143
1631024015706,-0.836554,-0.389851,-0.388021
1631024015715,-0.838262,-0.389424,-0.388692
1631024015725,-0.839055,-0.38826499999999997,-0.396744
1631024015734,-0.838872,-0.38674,-0.401685
1631024015744,-0.8407629999999999,-0.386252,-0.398025
1631024015754,-0.842532,-0.38734999999999997,-0.393999
1631024015763,-0.841983,-0.38917999999999997,-0.39131499999999997
1631024015773,-0.840519,-0.39131499999999997,-0.390766
1631024015782,-0.8398479999999999,-0.391864,-0.392962
1631024015792,-0.837164,-0.391803,-0.393572
1631024015802,-0.836981,-0.390766,-0.393938
1631024015811,-0.836432,-0.390644,-0.39436499999999997
1631024015821,-0.8361879999999999,-0.392108,-0.394304
1631024015830,-0.838201,-0.392718,-0.39283999999999997
1631024015840,-0.83753,-0.396439,-0.394792
1631024015850,-0.8364929999999999,-0.399062,-0.396195
1631024015859,-0.836249,-0.398818,-0.396683
1631024015869,-0.8346629999999999,-0.399611,-0.396988
1631024015878,-0.8364929999999999,-0.39967199999999997,-0.39894
1631024015888,-0.837896,-0.399001,-0.40150199999999997
1631024015898,-0.837774,-0.398391,-0.40443
1631024015907,-0.835761,-0.396683,-0.406443
1631024015917,-0.835456,-0.395524,-0.408761
1631024015926,-0.835029,-0.396134,-0.41138399999999997
1631024015936,-0.832894,-0.397171,-0.41107899999999997
1631024015946,-0.834297,-0.397781,-0.410957
1631024015955,-0.833687,-0.39588999999999996,-0.41839899999999997
1631024015965,-0.8337479999999999,-0.39466999999999997,-0.421998
1631024015974,-0.832955,-0.390766,-0.42395
1631024015984,-0.83021,-0.390278,-0.423828
1631024015994,-0.828014,-0.387838,-0.42273
1631024016003,-0.826916,-0.387716,-0.424865
1631024016013,-0.825574,-0.387716,-0.426939
1631024016022,-0.822829,-0.386557,-0.42950099999999997
1631024016032,-0.820389,-0.38308,-0.42944
1631024016042,-0.818498,-0.381677,-0.43005
1631024016051,-0.816546,-0.37899299999999997,-0.431392
1631024016061,-0.814777,-0.37655299999999997,-0.431209
1631024016070,-0.8158139999999999,-0.376187,-0.434503
1631024016080,-0.814716,-0.375455,-0.435174
1631024016090,-0.815082,-0.375211,-0.433954
1631024016099,-0.8148989999999999,-0.373686,-0.43249
1631024016109,-0.815326,-0.37088,-0.434747
1631024016118,-0.815387,-0.369538,-0.437004
1631024016128,-0.814533,-0.368623,-0.440115
1631024016138,-0.816363,-0.367769,-0.442372
1631024016147,-0.817522,-0.36783,-0.44395799999999996
1631024016157,-0.818437,-0.369294,-0.44712999999999997
1631024016166,-0.818498,-0.370209,-0.447496
1631024016176,-0.818864,-0.36911099999999997,-0.44682499999999997
1631024016186,-0.819535,-0.367952,-0.450607
1631024016195,-0.819352,-0.366488,-0.452986
1631024016205,-0.818254,-0.36575599999999997,-0.455182
1631024016214,-0.818254,-0.363499,-0.454572
1631024016224,-0.817766,-0.359656,-0.454999
1631024016234,-0.815875,-0.357155,-0.456951
1631024016243,-0.81557,-0.35343399999999997,-0.457866
1631024016253,-0.814228,-0.35190899999999997,-0.459208
1631024016262,-0.81435,-0.348554,-0.457134
1631024016272,-0.811056,-0.346114,-0.454938
1631024016282,-0.807945,-0.345748,-0.454206
1631024016291,-0.807152,-0.344589,-0.452376
1631024016301,-0.8045289999999999,-0.34507699999999997,-0.452498
1631024016310,-0.803248,-0.34355199999999997,-0.456707
1631024016320,-0.8020889999999999,-0.340258,-0.461404
1631024016330,-0.803126,-0.337025,-0.46421
1631024016339,-0.802821,-0.333853,-0.467199
1631024016349,-0.800076,-0.332389,-0.469883
1631024016358,-0.798917,-0.330986,-0.468236
1631024016368,-0.79605,-0.330254,-0.467931
1631024016378,-0.792451,-0.328668,-0.46616199999999997
1631024016387,-0.793183,-0.328546,-0.46238
1631024016397,-0.792573,-0.330559,-0.461038
1631024016406,-0.792451,-0.330132,-0.465491
1631024016416,-0.793366,-0.328851,-0.474397
1631024016426,-0.794891,-0.329034,-0.47939899999999996
1631024016435,-0.79605,-0.33183999999999997,-0.47756899999999997
1631024016445,-0.796172,-0.333487,-0.473848
1631024016454,-0.798612,-0.336659,-0.469639
1631024016464,-0.7991,-0.339038,-0.47153
1631024016474,-0.8017839999999999,-0.33916,-0.475251
1631024016483,-0.804468,-0.337025,-0.477142
1631024016493,-0.805017,-0.33672,-0.476837
1631024016502,-0.806725,-0.334646,-0.475312
1631024016512,-0.807701,-0.332999,-0.47336
1631024016522,-0.809287,-0.332694,-0.47360399999999997
1631024016531,-0.811605,-0.333609,-0.472811
1631024016541,-0.812581,-0.333304,-0.472018
1631024016550,-0.812886,-0.33366999999999997,-0.470676
1631024016560,-0.81557,-0.333304,-0.470249
1631024016570,-0.815021,-0.33244999999999997,-0.47031
1631024016579,-0.815631,-0.329949,-0.470188
1631024016589,-0.8158139999999999,-0.32696,-0.469151
1631024016598,-0.815936,-0.326716,-0.468114
1631024016608,-0.816241,-0.325557,-0.468114
1631024016618,-0.814472,-0.326716,-0.46909
1631024016627,-0.816546,-0.33061999999999997,-0.469456
1631024016637,-0.8174,-0.332938,-0.471713
1631024016646,-0.81923,-0.337757,-0.47238399999999997
1631024016656,-0.82045,-0.340624,-0.47238399999999997
1631024016666,-0.820633,-0.343369,-0.474092
1631024016675,-0.82045,-0.34660199999999997,-0.475251
1631024016685,-0.819718,-0.348798,-0.47451899999999997
1631024016694,-0.819474,-0.349896,-0.47451899999999997
1631024016704,-0.817949,-0.349286,-0.47634899999999997
1631024016714,-0.817339,-0.3477,-0.475983
1631024016723,-0.819596,-0.347761,-0.47824
1631024016733,-0.818925,-0.348127,-0.48000899999999996
1631024016742,-0.818437,-0.34648,-0.479826
1631024016752,-0.817827,-0.345504,-0.477081
1631024016762,-0.81679,-0.343918,-0.47573899999999997
1631024016771,-0.816058,-0.34282,-0.47421399999999997
1631024016781,-0.817644,-0.340258,-0.471286
1631024016790,-0.819169,-0.33977,-0.469883
1631024016800,-0.818437,-0.339343,-0.470066
1631024016810,-0.81923,-0.338794,-0.468724
1631024016819,-0.820694,-0.338672,-0.469761
1631024016829,-0.820328,-0.338672,-0.468114
1631024016838,-0.820328,-0.337391,-0.466833
1631024016848,-0.820694,-0.338062,-0.464698
1631024016858,-0.8242929999999999,-0.337818,-0.46116
1631024016867,-0.824537,-0.338123,-0.460489
1631024016877,-0.825025,-0.338184,-0.461404
1631024016886,-0.82655,-0.339343,-0.459086
1631024016896,-0.826062,-0.340685,-0.457256
1631024016906,-0.824781,-0.339953,-0.45566999999999996
1631024016915,-0.824049,-0.340868,-0.454694
1631024016925,-0.82228,-0.340319,-0.455121
1631024016934,-0.82106,-0.338184,-0.453901
1631024016944,-0.821365,-0.335805,-0.453962
1631024016954,-0.819962,-0.332023,-0.458903
1631024016963,-0.81862,-0.327936,-0.46116
1631024016973,-0.819718,-0.325191,-0.462624
1631024016982,-0.820572,-0.32147,-0.466101
1631024016992,-0.819047,-0.318237,-0.46787
1631024017002,-0.819352,-0.314821,-0.467748
1631024017011,-0.818803,-0.31024599999999997,-0.470798
1631024017021,-0.818498,-0.307379,-0.474946
1631024017030,-0.815631,-0.303048,-0.475251
1631024017040,-0.814655,-0.2989,-0.478423
1631024017050,-0.814411,-0.29487399999999997,-0.477508
1631024017059,-0.81496,-0.291702,-0.47726399999999997
1631024017069,-0.81618,-0.28792,-0.485743
1631024017078,-0.81862,-0.28731,-0.495259
1631024017088,-0.819474,-0.288469,-0.502518
1631024017098,-0.820633,-0.289445,-0.501115
1631024017107,-0.818803,-0.291763,-0.497089
1631024017117,-0.81862,-0.293898,-0.491477
1631024017126,-0.818559,-0.296277,-0.490684
1631024017136,-0.817095,-0.29792399999999997,-0.491294
1631024017146,-0.815326,-0.297436,-0.49263599999999996
1631024017155,-0.813008,-0.294996,-0.492392
1631024017165,-0.8121539999999999,-0.292373,-0.490928
1631024017174,-0.810995,-0.289872,-0.490074
1631024017184,-0.8103239999999999,-0.286639,-0.490562
1631024017194,-0.8113,-0.285236,-0.491355
1631024017203,-0.813008,-0.285236,-0.492087
1631024017213,-0.813862,-0.285968,-0.492758
1631024017222,-0.814533,-0.285175,-0.491843
1631024017232,-0.816607,-0.28377199999999997,-0.489952
1631024017242,-0.81862,-0.28304,-0.489952
1631024017251,-0.818559,-0.279563,-0.492758
1631024017261,-0.819352,-0.276818,-0.494832
1631024017270,-0.821853,-0.274439,-0.496784
1631024017280,-0.822402,-0.2745,-0.500017
1631024017290,-0.8221579999999999,-0.275537,-0.497455
1631024017299,-0.824171,-0.27633,-0.494405
1631024017309,-0.823134,-0.277367,-0.495869
1631024017318,-0.824537,-0.27816,-0.49580799999999997
1631024017328,-0.825269,-0.279136,-0.498736
1631024017338,-0.826306,-0.281454,-0.498736
1631024017347,-0.826062,-0.281454,-0.49519799999999997
1631024017357,-0.8233779999999999,-0.283406,-0.48958599999999997
1631024017366,-0.8221579999999999,-0.28243,-0.486292
1631024017376,-0.82167,-0.28133199999999997,-0.48806099999999997
1631024017386,-0.821853,-0.2806,-0.488244
1631024017395,-0.822219,-0.279929,-0.488122
1631024017405,-0.823134,-0.27816,-0.487329
1631024017414,-0.823134,-0.277001,-0.488305
1631024017424,-0.822219,-0.275232,-0.48836599999999997
1631024017434,-0.821304,-0.274134,-0.487878
1631024017443,-0.821243,-0.273829,-0.487817
1631024017453,-0.821853,-0.274927,-0.487024
1631024017462,-0.82289,-0.274927,-0.48745099999999997
1631024017472,-0.823622,-0.274744,-0.48836599999999997
1631024017482,-0.823317,-0.274256,-0.490135
1631024017491,-0.823866,-0.274012,-0.491965
1631024017501,-0.823622,-0.274378,-0.492514
1631024017510,-0.823256,-0.274683,-0.492087
1631024017520,-0.8233779999999999,-0.275903,-0.49294099999999996
1631024017530,-0.82533,-0.275415,-0.49355099999999996
1631024017539,-0.824476,-0.275476,-0.495564
1631024017549,-0.8235,-0.274439,-0.494527
1631024017558,-0.8235,-0.27144999999999997,-0.496601
1631024017568,-0.82228,-0.271938,-0.496601
1631024017578,-0.821304,-0.27053499999999997,-0.495625
1631024017587,-0.821243,-0.27144999999999997,-0.49519799999999997
1631024017597,-0.820633,-0.272243,-0.49580799999999997
1631024017606,-0.820145,-0.27144999999999997,-0.496296
1631024017616,-0.820999,-0.271206,-0.49898
1631024017626,-0.819169,-0.271206,-0.497577
1631024017635,-0.818925,-0.27022999999999997,-0.49580799999999997
1631024017645,-0.817827,-0.269132,-0.495015
1631024017654,-0.818132,-0.269559,-0.493002
1631024017664,-0.817278,-0.271694,-0.49166
1631024017674,-0.818925,-0.27266999999999997,-0.486902
1631024017683,-0.818315,-0.271938,-0.48495
1631024017693,-0.820084,-0.27083999999999997,-0.48470599999999997
1631024017702,-0.821548,-0.269681,-0.491172
1631024017712,-0.822402,-0.267912,-0.49519799999999997
1631024017722,-0.824049,-0.267729,-0.493978
1631024017731,-0.826916,-0.26900999999999997,-0.488305
1631024017741,-0.828929,-0.27327999999999997,-0.485072
1631024017750,-0.829844,-0.276757,-0.484035
1631024017760,-0.831552,-0.278282,-0.484828
1631024017770,-0.833382,-0.277672,-0.486414
1631024017779,-0.83387,-0.276879,-0.486902
1631024017789,-0.834419,-0.27388999999999997,-0.48434
1631024017798,-0.834846,-0.272731,-0.485072
1631024017808,-0.834846,-0.27175499999999997,-0.484767
1631024017818,-0.8352729999999999,-0.270596,-0.485987
1631024017827,-0.834846,-0.269498,-0.485072
1631024017837,-0.833931,-0.26992499999999997,-0.48531599999999997
1631024017846,-0.832955,-0.269254,-0.484035
1631024017856,-0.8313079999999999,-0.268278,-0.482327
1631024017866,-0.83021,-0.266265,-0.483913
1631024017875,-0.828807,-0.263886,-0.483425
1631024017885,-0.826794,-0.262361,-0.482266
1631024017894,-0.824476,-0.262117,-0.481839
1631024017904,-0.824049,-0.259921,-0.48122899999999996
1631024017914,-0.82167,-0.260226,-0.482388
1631024017923,-0.822341,-0.26034799999999997,-0.4819
1631024017933,-0.823012,-0.25973799999999997,-0.483608
1631024017942,-0.822829,-0.258396,-0.486719
1631024017952,-0.824842,-0.258945,-0.488488
1631024017962,-0.825696,-0.25864,-0.49227
1631024017971,-0.8264279999999999,-0.26004299999999997,-0.490928
1631024017981,-0.8264279999999999,-0.26169,-0.488854
1631024017990,-0.827526,-0.263886,-0.48861
1631024018000,-0.828075,-0.265167,-0.49050099999999996
1631024018010,-0.8261229999999999,-0.265655,-0.492575
1631024018019,-0.826794,-0.26596,-0.493307
1631024018029,-0.827282,-0.266387,-0.49458799999999997
1631024018038,-0.827099,-0.265899,-0.496052
1631024018048,-0.827404,-0.265167,-0.497272
1631024018058,-0.826672,-0.265228,-0.496357
1631024018067,-0.826977,-0.26657,-0.493917
1631024018077,-0.827465,-0.26779,-0.49233099999999996
1631024018086,-0.827587,-0.269437,-0.491477
1631024018096,-0.828136,-0.269864,-0.491355
1631024018106,-0.828685,-0.269864,-0.491294
1631024018115,-0.828441,-0.269254,-0.49233099999999996
1631024018125,-0.82899,-0.266997,-0.49263599999999996
1631024018134,-0.828807,-0.266387,-0.49263599999999996
1631024018144,-0.829966,-0.265167,-0.49141599999999996
1631024018154,-0.829661,-0.266143,-0.491355
1631024018163,-0.8297829999999999,-0.264801,-0.489403
1631024018173,-0.830515,-0.264252,-0.488427
1631024018182,-0.8291729999999999,-0.262849,-0.489159
1631024018192,-0.829356,-0.261629,-0.488427
1631024018202,-0.827526,-0.261202,-0.488122
1631024018211,-0.82716,-0.261812,-0.485133
1631024018221,-0.826794,-0.26126299999999997,-0.483059
1631024018230,-0.826672,-0.261385,-0.483303
1631024018240,-0.827526,-0.26169,-0.485804
1631024018250,-0.8291729999999999,-0.26108,-0.48836599999999997
1631024018259,-0.82899,-0.260226,-0.48922
1631024018269,-0.830271,-0.258701,-0.488122
1631024018278,-0.830027,-0.258091,-0.488427
1631024018288,-0.830637,-0.256932,-0.48653599999999997
1631024018298,-0.830149,-0.256505,-0.487817
1631024018307,-0.829356,-0.25681,-0.48617
1631024018317,-0.830576,-0.256017,-0.482754
1631024018326,-0.829966,-0.256078,-0.482815
1631024018336,-0.8316129999999999,-0.254797,-0.486292
1631024018346,-0.833931,-0.254492,-0.493307
1631024018355,-0.834236,-0.253455,-0.497577
1631024018365,-0.835334,-0.254614,-0.493856
1631024018374,-0.834724,-0.256322,-0.487939
1631024018384,-0.834114,-0.25882299999999997,-0.485255
1631024018394,-0.8331379999999999,-0.262788,-0.484218
1631024018403,-0.832406,-0.264557,-0.486292
1631024018413,-0.832162,-0.265472,-0.486658
1631024018422,-0.830881,-0.266387,-0.486414
1631024018432,-0.831369,-0.266631,-0.485987
1631024018442,-0.8313079999999999,-0.268644,-0.485743
1631024018451,-0.83143,-0.26961999999999997,-0.485804
1631024018461,-0.8313079999999999,-0.270291,-0.486902
1631024018470,-0.8316129999999999,-0.270474,-0.485255
1631024018480,-0.830271,-0.270901,-0.484645
1631024018490,-0.830149,-0.271267,-0.482388
1631024018499,-0.8294779999999999,-0.271572,-0.482327
1631024018509,-0.829661,-0.270169,-0.481473
1631024018518,-0.8285629999999999,-0.269864,-0.481595
1631024018528,-0.829661,-0.268339,-0.48122899999999996
1631024018538,-0.8306979999999999,-0.267302,-0.481717
1631024018547,-0.831857,-0.267668,-0.482998
1631024018557,-0.83082,-0.268766,-0.482144
1631024018566,-0.8319179999999999,-0.267729,-0.479155
1631024018576,-0.831857,-0.266021,-0.481351
1631024018586,-0.831735,-0.265411,-0.480497
1631024018595,-0.83204,-0.264435,-0.48007
1631024018605,-0.831491,-0.265655,-0.480863
1631024018614,-0.831552,-0.26413,-0.479826
1631024018624,-0.832894,-0.264008,-0.479521
1631024018634,-0.83265,-0.263825,-0.47878899999999996
1631024018643,-0.83265,-0.263703,-0.47946
1631024018653,-0.833565,-0.264374,-0.48068
1631024018662,-0.834236,-0.265838,-0.48257099999999997
1631024018672,-0.834175,-0.266326,-0.481473
1631024018682,-0.833809,-0.264923,-0.482388
1631024018691,-0.833992,-0.266875,-0.48092399999999996
1631024018701,-0.8337479999999999,-0.267363,-0.479216
1631024018710,-0.8334429999999999,-0.267851,-0.47848399999999996
1631024018720,-0.834907,-0.26779,-0.477813
1631024018730,-0.835029,-0.269254,-0.478667
1631024018739,-0.836554,-0.269681,-0.479887
1631024018749,-0.836981,-0.26961999999999997,-0.481046
1631024018758,-0.838506,-0.26870499999999997,-0.482144
1631024018768,-0.8377129999999999,-0.267424,-0.482937
1631024018778,-0.836066,-0.266814,-0.482083
1631024018787,-0.8374079999999999,-0.266692,-0.480802
1631024018797,-0.838445,-0.267973,-0.48000899999999996
1631024018806,-0.83814,-0.266387,-0.480741
1631024018816,-0.83753,-0.26596,-0.48092399999999996
1631024018826,-0.835639,-0.26474,-0.481412
1631024018835,-0.835212,-0.263764,-0.481107
1631024018845,-0.835761,-0.264191,-0.481412
1631024018854,-0.834175,-0.263947,-0.482815
1631024018864,-0.832955,-0.262666,-0.482693
1631024018874,-0.832284,-0.262178,-0.48373
1631024018883,-0.831674,-0.260775,-0.482815
1631024018893,-0.829844,-0.26034799999999997,-0.481107
1631024018902,-0.830454,-0.261995,-0.477508
1631024018912,-0.829112,-0.26352,-0.474275
1631024018922,-0.829722,-0.264252,-0.475007
1631024018931,-0.831369,-0.263886,-0.479155
1631024018941,-0.831796,-0.26291,-0.483425
1631024018950,-0.831857,-0.26187299999999997,-0.482937
1631024018960,-0.8313079999999999,-0.2623,-0.480741
1631024018970,-0.8313079999999999,-0.264252,-0.476227
1631024018979,-0.833016,-0.264069,-0.471713
1631024018989,-0.8328329999999999,-0.26474,-0.473238
1631024018998,-0.83326,-0.261995,-0.469334
1631024019008,-0.8349679999999999,-0.258762,-0.465491
1631024019018,-0.83692,-0.25498,-0.469578
1631024019027,-0.8401529999999999,-0.25315,-0.479155
1631024019037,-0.842471,-0.252235,-0.487207
1631024019046,-0.844362,-0.252723,-0.485438
1631024019056,-0.843813,-0.255895,-0.477996
1631024019066,-0.843508,-0.258457,-0.474092
1631024019075,-0.843264,-0.261751,-0.473543
1631024019085,-0.843752,-0.262971,-0.476715
1631024019094,-0.841556,-0.262544,-0.480497
1631024019104,-0.83936,-0.262178,-0.47848399999999996
1631024019114,-0.838201,-0.260897,-0.4758
1631024019123,-0.835944,-0.26004299999999997,-0.474458
1631024019133,-0.835517,-0.26065299999999997,-0.47482399999999997
1631024019142,-0.8352729999999999,-0.262666,-0.47458
1631024019152,-0.835151,-0.264374,-0.476288
1631024019162,-0.834907,-0.266326,-0.476715
1631024019171,-0.834114,-0.267668,-0.477447
1631024019181,-0.83326,-0.26931499999999997,-0.478423
1631024019190,-0.832162,-0.268217,-0.47817899999999997
1631024019200,-0.832406,-0.269254,-0.476532
1631024019210,-0.831125,-0.268156,-0.476288
1631024019219,-0.831796,-0.267912,-0.476715
1631024019229,-0.835151,-0.267424,-0.47824
1631024019238,-0.832345,-0.266997,-0.478545
1631024019248,-0.831979,-0.26718,-0.472628
1631024019258,-0.830149,-0.264923,-0.473543
1631024019267,-0.830637,-0.263703,-0.47336
1631024019277,-0.831796,-0.263764,-0.474031
1631024019286,-0.8319179999999999,-0.264374,-0.476471
1631024019296,-0.832467,-0.266021,-0.47390899999999997
1631024019306,-0.8331379999999999,-0.26779,-0.471957
1631024019315,-0.832894,-0.27053499999999997,-0.470554
1631024019325,-0.834114,-0.27266999999999997,-0.472018
1631024019334,-0.83631,-0.272914,-0.47238399999999997
1631024019344,-0.83875,-0.272609,-0.47458
1631024019354,-0.838811,-0.272548,-0.47519
1631024019363,-0.838689,-0.271816,-0.47482399999999997
1631024019373,-0.837469,-0.273036,-0.472628
1631024019382,-0.837774,-0.27388999999999997,-0.472323
1631024019392,-0.83692,-0.275293,-0.471286
1631024019402,-0.836432,-0.275842,-0.470371
1631024019411,-0.837957,-0.278221,-0.469334
1631024019421,-0.839726,-0.278221,-0.469151
1631024019430,-0.839665,-0.276818,-0.470737
1631024019440,-0.83936,-0.276025,-0.47153
1631024019450,-0.838689,-0.275171,-0.472018
1631024019459,-0.837957,-0.274317,-0.47207899999999997
1631024019469,-0.837347,-0.274622,-0.470798
1631024019478,-0.8374079999999999,-0.275964,-0.471103
1631024019488,-0.8357,-0.277733,-0.47031
1631024019498,-0.836127,-0.278221,-0.470432
1631024019507,-0.834541,-0.277123,-0.469883
1631024019517,-0.834785,-0.276757,-0.468663
1631024019526,-0.834724,-0.276757,-0.468724
1631024019536,-0.8346629999999999,-0.277123,-0.46921199999999996
1631024019546,-0.8337479999999999,-0.277062,-0.470432
1631024019555,-0.833809,-0.276452,-0.469944
1631024019565,-0.8325279999999999,-0.277184,-0.46860199999999996
1631024019574,-0.83204,-0.278648,-0.466406
1631024019584,-0.833626,-0.280173,-0.46604
1631024019594,-0.835944,-0.28255199999999997,-0.46585699999999997
1631024019603,-0.837957,-0.28255199999999997,-0.468663
1631024019613,-0.83875,-0.282735,-0.471225
1631024019622,-0.841007,-0.281515,-0.473421
1631024019632,-0.841251,-0.281515,-0.472567
1631024019642,-0.840885,-0.282125,-0.47153
1631024019651,-0.840641,-0.283894,-0.468236
1631024019661,-0.840946,-0.283955,-0.468724
1631024019670,-0.840946,-0.283955,-0.469578
1631024019680,-0.840885,-0.28194199999999997,-0.464759
1631024019690,-0.841007,-0.279136,-0.467138
1631024019699,-0.841922,-0.277672,-0.47214
1631024019709,-0.840092,-0.274134,-0.480131
1631024019718,-0.838872,-0.274439,-0.480802
1631024019728,-0.837774,-0.274988,-0.47702
1631024019738,-0.8357,-0.27572,-0.471652
1631024019747,-0.834175,-0.27755,-0.46787
1631024019757,-0.832589,-0.27755,-0.46787
1631024019766,-0.8294779999999999,-0.275964,-0.468663
1631024019776,-0.828807,-0.274012,-0.468663
1631024019786,-0.829356,-0.272853,-0.4697
1631024019795,-0.8300879999999999,-0.271023,-0.470066
1631024019805,-0.830942,-0.27144999999999997,-0.472506
1631024019814,-0.831796,-0.271694,-0.47390899999999997
1631024019824,-0.833199,-0.272914,-0.475251
1631024019834,-0.833321,-0.27236499999999997,-0.476776
1631024019843,-0.834785,-0.273463,-0.476471
1631024019853,-0.836371,-0.273951,-0.47458
1631024019862,-0.83875,-0.27388999999999997,-0.47573899999999997
1631024019872,-0.83997,-0.273768,-0.476166
1631024019882,-0.84241,-0.272792,-0.476532
1631024019891,-0.843508,-0.27236499999999997,-0.477203
1631024019901,-0.846985,-0.270962,-0.47634899999999997
1631024019910,-0.848876,-0.271877,-0.476532
1631024019920,-0.848693,-0.273158,-0.47634899999999997
1631024019930,-0.850828,-0.272792,-0.470798
1631024019939,-0.852048,-0.271206,-0.47177399999999997
1631024019949,-0.852658,-0.26900999999999997,-0.473055
1631024019958,-0.8525969999999999,-0.268461,-0.472201
1631024019968,-0.851926,-0.264862,-0.471591
1631024019978,-0.851926,-0.262056,-0.472018
1631024019987,-0.850401,-0.25925,-0.469761
1631024019997,-0.848083,-0.255834,-0.468053
1631024020006,-0.846741,-0.252052,-0.467504
1631024020016,-0.842959,-0.249002,-0.467748
1631024020026,-0.8404579999999999,-0.245769,-0.46665
1631024020035,-0.838262,-0.242414,-0.46482
1631024020045,-0.8349679999999999,-0.241316,-0.464088
1631024020054,-0.834175,-0.238693,-0.462868
1631024020064,-0.8319179999999999,-0.235948,-0.463051
1631024020074,-0.831247,-0.234179,-0.463356
1631024020083,-0.829966,-0.23277599999999998,-0.463661
1631024020093,-0.828014,-0.231495,-0.463539
1631024020102,-0.828014,-0.231312,-0.465003
1631024020112,-0.827892,-0.230397,-0.467321
1631024020122,-0.8288679999999999,-0.228872,-0.469029
1631024020131,-0.829661,-0.229299,-0.47153
1631024020141,-0.8303929999999999,-0.231129,-0.472628
1631024020150,-0.8319179999999999,-0.233203,-0.47268899999999997
1631024020160,-0.832101,-0.23430099999999998,-0.473421
1631024020170,-0.833199,-0.237351,-0.47329899999999997
1631024020179,-0.835639,-0.240096,-0.47390899999999997
1631024020189,-0.836371,-0.24278,-0.474946
1631024020198,-0.8371029999999999,-0.24570799999999998,-0.475617
1631024020208,-0.839787,-0.248026,-0.475495
1631024020218,-0.843386,-0.251442,-0.477142
1631024020227,-0.84546,-0.254797,-0.47878899999999996
1631024020237,-0.849791,-0.25803,-0.480192
1631024020246,-0.8501569999999999,-0.25925,-0.48257099999999997
1631024020256,-0.850401,-0.259799,-0.482998
1631024020266,-0.851194,-0.261751,-0.481595
1631024020275,-0.848449,-0.262666,-0.480131
1631024020285,-0.848266,-0.263459,-0.47756899999999997
1631024020294,-0.848144,-0.263032,-0.47665399999999997
1631024020304,-0.84851,-0.262361,-0.47885
1631024020314,-0.8477169999999999,-0.26095799999999997,-0.48092399999999996
1631024020323,-0.8474119999999999,-0.25803,-0.481961
1631024020333,-0.846863,-0.255834,-0.481778
1631024020342,-0.844301,-0.254736,-0.480375
1631024020352,-0.843569,-0.251564,-0.47543399999999997
1631024020362,-0.84302,-0.24912399999999998,-0.475678
1631024020371,-0.841251,-0.247416,-0.47458
1631024020381,-0.841129,-0.242902,-0.47031
1631024020390,-0.839116,-0.24046199999999998,-0.469517
1631024020400,-0.8392379999999999,-0.237656,-0.474031
1631024020410,-0.840397,-0.235704,-0.47970399999999996
1631024020419,-0.841007,-0.23546,-0.481656
1631024020429,-0.8418,-0.236253,-0.477935
1631024020438,-0.8418,-0.239486,-0.474031
1631024020448,-0.841007,-0.24217,-0.47214
1631024020458,-0.840092,-0.24540299999999998,-0.472262
1631024020467,-0.839726,-0.24705,-0.47573899999999997
1631024020477,-0.838506,-0.24729399999999999,-0.47885
1631024020486,-0.836981,-0.24790399999999999,-0.47817899999999997
1631024020496,-0.836249,-0.24912399999999998,-0.478301
1631024020506,-0.836371,-0.250405,-0.479216
1631024020515,-0.835822,-0.250161,-0.481168
1631024020525,-0.8349679999999999,-0.251381,-0.480436
1631024020534,-0.83448,-0.252906,-0.479826
1631024020544,-0.8337479999999999,-0.253516,-0.479643
1631024020554,-0.8346629999999999,-0.254736,-0.480131
1631024020563,-0.83448,-0.254858,-0.48312
1631024020573,-0.835456,-0.254675,-0.48495
1631024020582,-0.834114,-0.254187,-0.484157
1631024020592,-0.8352729999999999,-0.253089,-0.483669
1631024020602,-0.836737,-0.255102,-0.486292
1631024020611,-0.836432,-0.255346,-0.488488
1631024020621,-0.8361879999999999,-0.25559,-0.489769
1631024020630,-0.83753,-0.255895,-0.486414
1631024020640,-0.837591,-0.254065,-0.486597
1631024020650,-0.837286,-0.254858,-0.485438
1631024020659,-0.83753,-0.254004,-0.48592599999999997
1631024020669,-0.837164,-0.252601,-0.48745099999999997
1631024020678,-0.837896,-0.252174,-0.487024
1631024020688,-0.8371029999999999,-0.251137,-0.485194
1631024020698,-0.8371029999999999,-0.250161,-0.482632
1631024020707,-0.836859,-0.249673,-0.482083
1631024020717,-0.835517,-0.248026,-0.483242
1631024020726,-0.836615,-0.246806,-0.484584
1631024020736,-0.835029,-0.246806,-0.48440099999999997
1631024020746,-0.835151,-0.24509799999999998,-0.481656
1631024020755,-0.834175,-0.24418299999999998,-0.480985
1631024020765,-0.834724,-0.242902,-0.481412
1631024020774,-0.836005,-0.24326799999999998,-0.48061899999999996
1631024020784,-0.834602,-0.244305,-0.479643
1631024020794,-0.833809,-0.244549,-0.48000899999999996
1631024020803,-0.834907,-0.246684,-0.48007
1631024020813,-0.835822,-0.246562,-0.481778
1631024020822,-0.835639,-0.246074,-0.48287599999999997
1631024020832,-0.834724,-0.248026,-0.482693
1631024020842,-0.8357,-0.248636,-0.483303
1631024020851,-0.835822,-0.249795,-0.48287599999999997
1631024020861,-0.8361879999999999,-0.249673,-0.48318099999999997
1631024020870,-0.836432,-0.249978,-0.482937
1631024020880,-0.836005,-0.250405,-0.482937
1631024020890,-0.836676,-0.251747,-0.482754
1631024020899,-0.837347,-0.251686,-0.483364
1631024020909,-0.837896,-0.252113,-0.485682
1631024020918,-0.838872,-0.252845,-0.485072
1631024020928,-0.838506,-0.251808,-0.483974
1631024020938,-0.8377129999999999,-0.252967,-0.484218
1631024020947,-0.839055,-0.252113,-0.483364
1631024020957,-0.83936,-0.252296,-0.485499
1631024020966,-0.8389329999999999,-0.250954,-0.484767
1631024020976,-0.8389329999999999,-0.249795,-0.48556
1631024020986,-0.838445,-0.24942899999999998,-0.483974
1631024020995,-0.838201,-0.248941,-0.481412
1631024021005,-0.837347,-0.249368,-0.481412
1631024021014,-0.8371029999999999,-0.24888,-0.482144
1631024021024,-0.836432,-0.247355,-0.483242
1631024021034,-0.8355779999999999,-0.24631799999999998,-0.480863
1631024021043,-0.833992,-0.24601299999999998,-0.48007
1631024021053,-0.834724,-0.24790399999999999,-0.476593
1631024021062,-0.834846,-0.248697,-0.476532
1631024021072,-0.8358829999999999,-0.24881899999999998,-0.477508
1631024021082,-0.837286,-0.249063,-0.481351
1631024021091,-0.838262,-0.247111,-0.482815
1631024021101,-0.837652,-0.246501,-0.48251
1631024021110,-0.838201,-0.248758,-0.478057
1631024021120,-0.838201,-0.251381,-0.476227
1631024021130,-0.838506,-0.252174,-0.47275
1631024021139,-0.837652,-0.253028,-0.475312
1631024021149,-0.8386279999999999,-0.251808,-0.469822
1631024021158,-0.839116,-0.250466,-0.464515
1631024021168,-0.839055,-0.24827,-0.471713
1631024021178,-0.842654,-0.248087,-0.47970399999999996
1631024021187,-0.846253,-0.245647,-0.486048
1631024021197,-0.84729,-0.247538,-0.48287599999999997
1631024021206,-0.847168,-0.250771,-0.47519
1631024021216,-0.846741,-0.254065,-0.471042
1631024021226,-0.8480219999999999,-0.25498,-0.47092
1631024021235,-0.847656,-0.255102,-0.472933
1631024021245,-0.845521,-0.253638,-0.474946
1631024021254,-0.843813,-0.251442,-0.47421399999999997
1631024021264,-0.842654,-0.2501,-0.472872
1631024021274,-0.841678,-0.24888,-0.471591
1631024021283,-0.840946,-0.248941,-0.473116
1631024021293,-0.841434,-0.248453,-0.47360399999999997
1631024021302,-0.84058,-0.24942899999999998,-0.47360399999999997
1631024021312,-0.840275,-0.250344,-0.473787
1631024021322,-0.839299,-0.249856,-0.471896
1631024021331,-0.840092,-0.249856,-0.471286
1631024021341,-0.839909,-0.249612,-0.47329899999999997
1631024021350,-0.840275,-0.248636,-0.47336
1631024021360,-0.84119,-0.24729399999999999,-0.473116
1631024021370,-0.841617,-0.246684,-0.473665
1631024021379,-0.842349,-0.245464,-0.474458
1631024021389,-0.842715,-0.245464,-0.475617
1631024021398,-0.841251,-0.245586,-0.474763
1631024021408,-0.842654,-0.24570799999999998,-0.47177399999999997
1631024021418,-0.842532,-0.243146,-0.475678
1631024021427,-0.842166,-0.242109,-0.477752
1631024021437,-0.843325,-0.240767,-0.48061899999999996
1631024021446,-0.842105,-0.241316,-0.480497
1631024021456,-0.840885,-0.24204799999999999,-0.475373
1631024021466,-0.839665,-0.244061,-0.47177399999999997
1631024021475,-0.838445,-0.24418299999999998,-0.471225
1631024021485,-0.8364929999999999,-0.243329,-0.471896
1631024021494,-0.838262,-0.244732,-0.472323
1631024021504,-0.836981,-0.244671,-0.474702
1631024021514,-0.836676,-0.244427,-0.474275
1631024021523,-0.83753,-0.245037,-0.473848
1631024021533,-0.8380179999999999,-0.244732,-0.47451899999999997
1631024021542,-0.838872,-0.245769,-0.474763
1631024021552,-0.839116,-0.24759899999999999,-0.474458
1631024021562,-0.839116,-0.248148,-0.475068
1631024021571,-0.8398479999999999,-0.248758,-0.475068
1631024021581,-0.841068,-0.24973399999999998,-0.475312
1631024021590,-0.841556,-0.25132,-0.476471
1631024021600,-0.842349,-0.251137,-0.477935
1631024021610,-0.84241,-0.250161,-0.478545
1631024021619,-0.840885,-0.251686,-0.479033
1631024021629,-0.840275,-0.252418,-0.478606
1631024021638,-0.841251,-0.25254,-0.479582
1631024021648,-0.841068,-0.25376,-0.479277
1631024021658,-0.839726,-0.253943,-0.478667
1631024021667,-0.841251,-0.254248,-0.479521
1631024021677,-0.841007,-0.254492,-0.480497
1631024021686,-0.8407629999999999,-0.254614,-0.480192
1631024021696,-0.8404579999999999,-0.253638,-0.479643
1631024021706,-0.8401529999999999,-0.254736,-0.47946
1631024021715,-0.8395429999999999,-0.25498,-0.480375
1631024021725,-0.839482,-0.254309,-0.481107
1631024021734,-0.838689,-0.253638,-0.48129
1631024021744,-0.838506,-0.253455,-0.481351
1631024021754,-0.8367979999999999,-0.254614,-0.47885
1631024021763,-0.835029,-0.254553,-0.478606
1631024021773,-0.83387,-0.25498,-0.477203
1631024021782,-0.833992,-0.255468,-0.478057
1631024021792,-0.835456,-0.256017,-0.48092399999999996
1631024021802,-0.836737,-0.255041,-0.483852
1631024021811,-0.83814,-0.254675,-0.48348599999999997
1631024021821,-0.837286,-0.252662,-0.482449
1631024021830,-0.835029,-0.253455,-0.482205
1631024021840,-0.835151,-0.25376,-0.479521
1631024021850,-0.834236,-0.253699,-0.47946
1631024021859,-0.835456,-0.251808,-0.47756899999999997
1631024021869,-0.8349679999999999,-0.251198,-0.47397
1631024021878,-0.834541,-0.250649,-0.473238
1631024021888,-0.836981,-0.251137,-0.47756899999999997
1631024021898,-0.8383229999999999,-0.249673,-0.485072
1631024021907,-0.839177,-0.249917,-0.486353
1631024021917,-0.840946,-0.251381,-0.481961
1631024021926,-0.8401529999999999,-0.253333,-0.47512899999999997
1631024021936,-0.841739,-0.255834,-0.473482
1631024021946,-0.842166,-0.257237,-0.4758
1631024021955,-0.840885,-0.25668799999999997,-0.477081
1631024021965,-0.840397,-0.256322,-0.475251
1631024021974,-0.840214,-0.25437,-0.4758
1631024021984,-0.8407629999999999,-0.254126,-0.475678
1631024021994,-0.841922,-0.253455,-0.477203
1631024022003,-0.841983,-0.253577,-0.478545
1631024022013,-0.841922,-0.254187,-0.478606
1631024022022,-0.840519,-0.254431,-0.477447
1631024022032,-0.838872,-0.254248,-0.475922
1631024022042,-0.83875,-0.253699,-0.475556
1631024022051,-0.8389329999999999,-0.253028,-0.475983
1631024022061,-0.83936,-0.252723,-0.476898
1631024022070,-0.839055,-0.252113,-0.477081
1631024022080,-0.8383229999999999,-0.252174,-0.477142
1631024022090,-0.838506,-0.25254,-0.477691
1631024022099,-0.838689,-0.253272,-0.47885
1631024022109,-0.838872,-0.253272,-0.480497
1631024022118,-0.836737,-0.255163,-0.476837
1631024022128,-0.838079,-0.255407,-0.47451899999999997
1631024022138,-0.8367979999999999,-0.254309,-0.475861
1631024022147,-0.836676,-0.252723,-0.476837
1631024022157,-0.836615,-0.253394,-0.478118
1631024022166,-0.8371029999999999,-0.252113,-0.47824
1631024022176,-0.837225,-0.253028,-0.476288
1631024022186,-0.837347,-0.253394,-0.475068
1631024022195,-0.837042,-0.252906,-0.474946
1631024022205,-0.8364929999999999,-0.25315,-0.47604399999999997
1631024022214,-0.83692,-0.253028,-0.477813
1631024022224,-0.837896,-0.252052,-0.47787399999999997
1631024022234,-0.837896,-0.251991,-0.47665399999999997
1631024022243,-0.838201,-0.252296,-0.476776
1631024022253,-0.837896,-0.251564,-0.47909399999999996
1631024022262,-0.8380179999999999,-0.252052,-0.478728
1631024022272,-0.838079,-0.252906,-0.47763
1631024022282,-0.8380179999999999,-0.25498,-0.475861
1631024022291,-0.840275,-0.256322,-0.477142
1631024022301,-0.842227,-0.257481,-0.478545
1631024022310,-0.843935,-0.25699299999999997,-0.47939899999999996
1631024022320,-0.843325,-0.256261,-0.480802
1631024022330,-0.842959,-0.255529,-0.481168
1631024022339,-0.842349,-0.25498,-0.48007
1631024022349,-0.840214,-0.253882,-0.47909399999999996
1631024022358,-0.83936,-0.254736,-0.47756899999999997
1631024022368,-0.8386279999999999,-0.255224,-0.477081
1631024022378,-0.8383229999999999,-0.254065,-0.47641
1631024022387,-0.8377129999999999,-0.255773,-0.476898
1631024022397,-0.837347,-0.255712,-0.47695899999999997
1631024022406,-0.8374079999999999,-0.255468,-0.476532
1631024022416,-0.837469,-0.25559,-0.476227
1631024022426,-0.8371029999999999,-0.255224,-0.476227
1631024022435,-0.8371029999999999,-0.253882,-0.476227
1631024022445,-0.8367979999999999,-0.254675,-0.475861
1631024022454,-0.837774,-0.255529,-0.47519
1631024022464,-0.837164,-0.25638299999999997,-0.475556
1631024022474,-0.837652,-0.25668799999999997,-0.474275
1631024022483,-0.838262,-0.257237,-0.47482399999999997
1631024022493,-0.83936,-0.256566,-0.47543399999999997
1631024022502,-0.8389329999999999,-0.254919,-0.47573899999999997
1631024022512,-0.8389329999999999,-0.254614,-0.476532
1631024022522,-0.838445,-0.25437,-0.47458
1631024022531,-0.837835,-0.254736,-0.473421
1631024022541,-0.83692,-0.256444,-0.471713
1631024022550,-0.8374079999999999,-0.257664,-0.473543
1631024022560,-0.8389329999999999,-0.258152,-0.475495
1631024022570,-0.838384,-0.258884,-0.47695899999999997
1631024022579,-0.840519,-0.259921,-0.476288
1631024022589,-0.8401529999999999,-0.25912799999999997,-0.476166
1631024022598,-0.837591,-0.258762,-0.47482399999999997
1631024022608,-0.837896,-0.259067,-0.47177399999999997
1631024022618,-0.8371029999999999,-0.260714,-0.471347
1631024022627,-0.836005,-0.261446,-0.469151
1631024022637,-0.836981,-0.26065299999999997,-0.465613
1631024022646,-0.8380179999999999,-0.258701,-0.46555199999999997
1631024022656,-0.840946,-0.258579,-0.472872
1631024022666,-0.843325,-0.257847,-0.481351
1631024022675,-0.844911,-0.25668799999999997,-0.484645
1631024022685,-0.845094,-0.25668799999999997,-0.478728
1631024022694,-0.845826,-0.25912799999999997,-0.47238399999999997
1631024022704,-0.844362,-0.260836,-0.468846
1631024022714,-0.844362,-0.262544,-0.470432
1631024022723,-0.844606,-0.26352,-0.47360399999999997
1631024022733,-0.843874,-0.261995,-0.475617
1631024022742,-0.844118,-0.25986,-0.47543399999999997
1631024022752,-0.843264,-0.25973799999999997,-0.47641
1631024022762,-0.842776,-0.258457,-0.47604399999999997
1631024022771,-0.841251,-0.256932,-0.475495
1631024022781,-0.840092,-0.256261,-0.474336
1631024022790,-0.8395429999999999,-0.25760299999999997,-0.474641
1631024022800,-0.8395429999999999,-0.257786,-0.473726
1631024022810,-0.837774,-0.258152,-0.474153
1631024022819,-0.8367979999999999,-0.257847,-0.473116
1631024022829,-0.836371,-0.257786,-0.474031
1631024022838,-0.836981,-0.257359,-0.474031
1631024022848,-0.8380179999999999,-0.258274,-0.475373
1631024022858,-0.838201,-0.25925,-0.475373
1631024022867,-0.839604,-0.25925,-0.476837
1631024022877,-0.838262,-0.25973799999999997,-0.47909399999999996
1631024022886,-0.838384,-0.25986,-0.47458
1631024022896,-0.838262,-0.25803,-0.471103
1631024022906,-0.838445,-0.25668799999999997,-0.471713
1631024022915,-0.838872,-0.25668799999999997,-0.47207899999999997
1631024022925,-0.837652,-0.25638299999999997,-0.475068
1631024022934,-0.836554,-0.255712,-0.475068
1631024022944,-0.8364929999999999,-0.255895,-0.472506
1631024022954,-0.83753,-0.256017,-0.470432
1631024022963,-0.83692,-0.256139,-0.4697
1631024022973,-0.835822,-0.256139,-0.470066
1631024022982,-0.836981,-0.255407,-0.47116399999999997
1631024022992,-0.837164,-0.254675,-0.47268899999999997
1631024023002,-0.838872,-0.255468,-0.472872
1631024023011,-0.8395429999999999,-0.256139,-0.473665
1631024023021,-0.838567,-0.256017,-0.47214
1631024023030,-0.838079,-0.257664,-0.47146899999999997
1631024023040,-0.839421,-0.259372,-0.47146899999999997
1631024023050,-0.839299,-0.26034799999999997,-0.47207899999999997
1631024023059,-0.840031,-0.262666,-0.471896
1631024023069,-0.840702,-0.262544,-0.473177
1631024023078,-0.8418,-0.262361,-0.472872
1631024023088,-0.842532,-0.262178,-0.474092
1631024023098,-0.842044,-0.26156799999999997,-0.474763
1631024023107,-0.840397,-0.261446,-0.474763
1631024023117,-0.840214,-0.2623,-0.47336
1631024023126,-0.839055,-0.262483,-0.47360399999999997
1631024023136,-0.8392379999999999,-0.263459,-0.472323
1631024023146,-0.840214,-0.264069,-0.47336
1631024023155,-0.8398479999999999,-0.264313,-0.474092
1631024023165,-0.840397,-0.264557,-0.474092
1631024023174,-0.839726,-0.264862,-0.47360399999999997
1631024023184,-0.83936,-0.265045,-0.473726
1631024023194,-0.838689,-0.264252,-0.473482
1631024023203,-0.838079,-0.26413,-0.47238399999999997
1631024023213,-0.837896,-0.263337,-0.47299399999999997
1631024023222,-0.83875,-0.262544,-0.472628
1631024023232,-0.838872,-0.263642,-0.472201
1631024023242,-0.838262,-0.263703,-0.47146899999999997
1631024023251,-0.839482,-0.265167,-0.472262
1631024023261,-0.8392379999999999,-0.264496,-0.472872
1631024023270,-0.838994,-0.264801,-0.471225
1631024023280,-0.8395429999999999,-0.265167,-0.47031
1631024023290,-0.839055,-0.262727,-0.472628
1631024023299,-0.840031,-0.262544,-0.474946
1631024023309,-0.8389329999999999,-0.26095799999999997,-0.476105
1631024023318,-0.839665,-0.260897,-0.474275
1631024023328,-0.83875,-0.261324,-0.47092
1631024023338,-0.838201,-0.262117,-0.470005
1631024023347,-0.840031,-0.262849,-0.47092
1631024023357,-0.840824,-0.262056,-0.47299399999999997
1631024023366,-0.841678,-0.262544,-0.476471
1631024023376,-0.840641,-0.261324,-0.475678
1631024023386,-0.841434,-0.26047,-0.474702
1631024023395,-0.840702,-0.261446,-0.47336
1631024023405,-0.839909,-0.261934,-0.470005
1631024023414,-0.837835,-0.261995,-0.471103
1631024023424,-0.836432,-0.258762,-0.467321
1631024023434,-0.8357,-0.257359,-0.461099
1631024023443,-0.836432,-0.25498,-0.46604
1631024023453,-0.839787,-0.254797,-0.473543
1631024023462,-0.843813,-0.256261,-0.481656
1631024023472,-0.845033,-0.257847,-0.482449
1631024023482,-0.844118,-0.259372,-0.47726399999999997
1631024023491,-0.844728,-0.262361,-0.470737
1631024023501,-0.844362,-0.262971,-0.468114
1631024023510,-0.843203,-0.262666,-0.470249
1631024023520,-0.84119,-0.261934,-0.473482
1631024023530,-0.840275,-0.25925,-0.47275
1631024023539,-0.839116,-0.257359,-0.47153
1631024023549,-0.83875,-0.256322,-0.471042
1631024023558,-0.8398479999999999,-0.256139,-0.47268899999999997
1631024023568,-0.841007,-0.256017,-0.475251
1631024023578,-0.840275,-0.2562,-0.475556
1631024023587,-0.840336,-0.257115,-0.47458
1631024023597,-0.8404579999999999,-0.25742,-0.475068
1631024023606,-0.840214,-0.256627,-0.474397
1631024023616,-0.8398479999999999,-0.257237,-0.47360399999999997
1631024023626,-0.8395429999999999,-0.257115,-0.47397
1631024023635,-0.838506,-0.255956,-0.47390899999999997
1631024023645,-0.837652,-0.256139,-0.473482
1631024023654,-0.839482,-0.255834,-0.474336
1631024023664,-0.8401529999999999,-0.256078,-0.47519
1631024023674,-0.837896,-0.257176,-0.476715
1631024023683,-0.837347,-0.257481,-0.47092
1631024023693,-0.8371029999999999,-0.255468,-0.470432
1631024023702,-0.837591,-0.254858,-0.472567
1631024023712,-0.836676,-0.253943,-0.47543399999999997
1631024023722,-0.837042,-0.253516,-0.478057
1631024023731,-0.837225,-0.253638,-0.475617
1631024023741,-0.837042,-0.255712,-0.47031
1631024023750,-0.836676,-0.257176,-0.46860199999999996
1631024023760,-0.8374079999999999,-0.25760299999999997,-0.469578
1631024023770,-0.837774,-0.257664,-0.473482
1631024023779,-0.838567,-0.256566,-0.47458
1631024023789,-0.839299,-0.255346,-0.474397
1631024023798,-0.838506,-0.254248,-0.473848
1631024023808,-0.840885,-0.253211,-0.47336
1631024023818,-0.8395429999999999,-0.25376,-0.474153
1631024023827,-0.840092,-0.254004,-0.47458
1631024023837,-0.83936,-0.255041,-0.475068
1631024023846,-0.840031,-0.25699299999999997,-0.474641
1631024023856,-0.840702,-0.255712,-0.473238
1631024023866,-0.841129,-0.257237,-0.473421
1631024023875,-0.840275,-0.256444,-0.473848
1631024023885,-0.841129,-0.254797,-0.473421
1631024023894,-0.839116,-0.254797,-0.47451899999999997
1631024023904,-0.838262,-0.254431,-0.47573899999999997
1631024023914,-0.838201,-0.255468,-0.474702
1631024023923,-0.837225,-0.256139,-0.47397
1631024023933,-0.837469,-0.256322,-0.473665
1631024023942,-0.837652,-0.25742,-0.47360399999999997
1631024023952,-0.837286,-0.25681,-0.47421399999999997
1631024023962,-0.83631,-0.25760299999999997,-0.47421399999999997
1631024023971,-0.8364929999999999,-0.259494,-0.47336
1631024023981,-0.838567,-0.260897,-0.47482399999999997
1631024023990,-0.838872,-0.26126299999999997,-0.47458
1631024024000,-0.8404579999999999,-0.26095799999999997,-0.47421399999999997
1631024024010,-0.840092,-0.26034799999999997,-0.475983
1631024024019,-0.839787,-0.259006,-0.475556
1631024024029,-0.839299,-0.260104,-0.475068
1631024024038,-0.838994,-0.259677,-0.474336
1631024024048,-0.837591,-0.25986,-0.472262
1631024024058,-0.837896,-0.260775,-0.47238399999999997
1631024024067,-0.839909,-0.261141,-0.474702
1631024024077,-0.840519,-0.26126299999999997,-0.476715
1631024024086,-0.840702,-0.260531,-0.47787399999999997
1631024024096,-0.839604,-0.25973799999999997,-0.47695899999999997
1631024024106,-0.8383229999999999,-0.259067,-0.475556
1631024024115,-0.836432,-0.25943299999999997,-0.473665
1631024024125,-0.837225,-0.260531,-0.470615
1631024024134,-0.836371,-0.260165,-0.472506
1631024024144,-0.836066,-0.258396,-0.46890699999999996
1631024024154,-0.834907,-0.256627,-0.466528
1631024024163,-0.83692,-0.256078,-0.470188
1631024024173,-0.839482,-0.256444,-0.475861
1631024024182,-0.84119,-0.256505,-0.481351
1631024024192,-0.842776,-0.258396,-0.482754
1631024024202,-0.844606,-0.25973799999999997,-0.477203
1631024024211,-0.842288,-0.262422,-0.470981
1631024024221,-0.841922,-0.263215,-0.470127
1631024024230,-0.841007,-0.265106,-0.471225
1631024024240,-0.841434,-0.265777,-0.472811
1631024024250,-0.841068,-0.264679,-0.47360399999999997
1631024024259,-0.841983,-0.26352,-0.472506
1631024024269,-0.841678,-0.262178,-0.473543
1631024024278,-0.841129,-0.261202,-0.47451899999999997
1631024024288,-0.839726,-0.261507,-0.47421399999999997
1631024024298,-0.840397,-0.260836,-0.47458
1631024024307,-0.838994,-0.2623,-0.474275
1631024024317,-0.839299,-0.262727,-0.473726
1631024024326,-0.8386279999999999,-0.263154,-0.472628
1631024024336,-0.8377129999999999,-0.263825,-0.47214
1631024024346,-0.838201,-0.262727,-0.473482
1631024024355,-0.837225,-0.261446,-0.473177
1631024024365,-0.838689,-0.261324,-0.47397
1631024024374,-0.8386279999999999,-0.261446,-0.474153
1631024024384,-0.839299,-0.262788,-0.475068
1631024024394,-0.839299,-0.261507,-0.476288
1631024024403,-0.83692,-0.262056,-0.47360399999999997
1631024024413,-0.837652,-0.261934,-0.469822
1631024024422,-0.8377129999999999,-0.262849,-0.47116399999999997
1631024024432,-0.8377129999999999,-0.260714,-0.473421
1631024024442,-0.837286,-0.258762,-0.47695899999999997
1631024024451,-0.83814,-0.257359,-0.47695899999999997
1631024024461,-0.8383229999999999,-0.25821299999999997,-0.4758
1631024024470,-0.835944,-0.258884,-0.471652
1631024024480,-0.836676,-0.258884,-0.470676
1631024024490,-0.83509,-0.25943299999999997,-0.47177399999999997
1631024024499,-0.8355779999999999,-0.25973799999999997,-0.471652
1631024024509,-0.835456,-0.259616,-0.472506
1631024024518,-0.836432,-0.25986,-0.473482
1631024024528,-0.837164,-0.259677,-0.474458
1631024024538,-0.8383229999999999,-0.25943299999999997,-0.474458
1631024024547,-0.839421,-0.260775,-0.474275
1631024024557,-0.839726,-0.261446,-0.475068
1631024024566,-0.840397,-0.262605,-0.47482399999999997
1631024024576,-0.840031,-0.263398,-0.472628
1631024024586,-0.840092,-0.263886,-0.472201
1631024024595,-0.841739,-0.26291,-0.473665
1631024024605,-0.841129,-0.263215,-0.475312
1631024024614,-0.840214,-0.261812,-0.475373
1631024024624,-0.840275,-0.26034799999999997,-0.47458
1631024024634,-0.8395429999999999,-0.26047,-0.47451899999999997
1631024024643,-0.840092,-0.259921,-0.473848
1631024024653,-0.839177,-0.260531,-0.471713
1631024024662,-0.8383229999999999,-0.260714,-0.471591
1631024024672,-0.8380179999999999,-0.26108,-0.47177399999999997
1631024024682,-0.839665,-0.260165,-0.472445
1631024024691,-0.8392379999999999,-0.260836,-0.473116
1631024024701,-0.837774,-0.26065299999999997,-0.472811
1631024024710,-0.83875,-0.259799,-0.47299399999999997
1631024024720,-0.838689,-0.26065299999999997,-0.473116
1631024024730,-0.839299,-0.26169,-0.471896
1631024024739,-0.839604,-0.261995,-0.472262
1631024024749,-0.839909,-0.262483,-0.47146899999999997
1631024024758,-0.839726,-0.262727,-0.47085899999999997
1631024024768,-0.840885,-0.262361,-0.471103
1631024024778,-0.839604,-0.262361,-0.471286
1631024024787,-0.841007,-0.262117,-0.471591
1631024024797,-0.841068,-0.26047,-0.472323
1631024024806,-0.84058,-0.259555,-0.472323
1631024024816,-0.839665,-0.258579,-0.470798
1631024024826,-0.839299,-0.259494,-0.470493
1631024024835,-0.839116,-0.259799,-0.46848
1631024024845,-0.840031,-0.260714,-0.469639
1631024024854,-0.840092,-0.26004299999999997,-0.472628
1631024024864,-0.840519,-0.26004299999999997,-0.473726
1631024024874,-0.841251,-0.260104,-0.47390899999999997
1631024024883,-0.840031,-0.260714,-0.472262
1631024024893,-0.8395429999999999,-0.259677,-0.47153
1631024024902,-0.839726,-0.259372,-0.46848
1631024024912,-0.8380179999999999,-0.259982,-0.469578
1631024024922,-0.837042,-0.261324,-0.468785
1631024024931,-0.838872,-0.261385,-0.464515
1631024024941,-0.837469,-0.26108,-0.463661
1631024024950,-0.839055,-0.258884,-0.466528
1631024024960,-0.841434,-0.259616,-0.474885
1631024024970,-0.842776,-0.259311,-0.47946
1631024024979,-0.844728,-0.258152,-0.477142
1631024024989,-0.844423,-0.25986,-0.470737
1631024024998,-0.842898,-0.262605,-0.465796
1631024025008,-0.843325,-0.264191,-0.465979
1631024025018,-0.842898,-0.265167,-0.468358
1631024025027,-0.842288,-0.26413,-0.470554
1631024025037,-0.842044,-0.263642,-0.469334
1631024025046,-0.840946,-0.262788,-0.470188
1631024025056,-0.841312,-0.2623,-0.469944
1631024025066,-0.841068,-0.26291,-0.470737
1631024025075,-0.840702,-0.2623,-0.47116399999999997
1631024025085,-0.840275,-0.263093,-0.47031
1631024025094,-0.83997,-0.262666,-0.4697
1631024025104,-0.839482,-0.262971,-0.468846
1631024025114,-0.837652,-0.263764,-0.46665
1631024025123,-0.837774,-0.262544,-0.46677199999999996
1631024025133,-0.8386279999999999,-0.262544,-0.468846
1631024025142,-0.839665,-0.262117,-0.469578
1631024025152,-0.839116,-0.263032,-0.469456
1631024025162,-0.839909,-0.263825,-0.46921199999999996
1631024025171,-0.842166,-0.264679,-0.469944
1631024025181,-0.839726,-0.265228,-0.47085899999999997
1631024025190,-0.839787,-0.264801,-0.466284
1631024025200,-0.8395429999999999,-0.264679,-0.466894
1631024025210,-0.839055,-0.264069,-0.46738199999999996
1631024025219,-0.8386279999999999,-0.263459,-0.469334
1631024025229,-0.8383229999999999,-0.262971,-0.470371
1631024025238,-0.840336,-0.263398,-0.47031
1631024025248,-0.840702,-0.264191,-0.46787
1631024025258,-0.841129,-0.264984,-0.467321
1631024025267,-0.84058,-0.264557,-0.467748
1631024025277,-0.840336,-0.26413,-0.46860199999999996
1631024025286,-0.840336,-0.264862,-0.469334
1631024025296,-0.841495,-0.266143,-0.46829699999999996
1631024025306,-0.842105,-0.263764,-0.469883
1631024025315,-0.841861,-0.263337,-0.4697
1631024025325,-0.8401529999999999,-0.263825,-0.469151
1631024025334,-0.840824,-0.263276,-0.470127
1631024025344,-0.841556,-0.264435,-0.471347
1631024025354,-0.842593,-0.265594,-0.471103
1631024025363,-0.841251,-0.267058,-0.469883
1631024025373,-0.841861,-0.266692,-0.469944
1631024025382,-0.841556,-0.26657,-0.47153
1631024025392,-0.843569,-0.265106,-0.473726
1631024025402,-0.841434,-0.265228,-0.47390899999999997
1631024025411,-0.838689,-0.265045,-0.472262
1631024025421,-0.838567,-0.265106,-0.471103
1631024025430,-0.839055,-0.264557,-0.46909
1631024025440,-0.838567,-0.265289,-0.469761
1631024025450,-0.839787,-0.265289,-0.470737
1631024025459,-0.838567,-0.26535,-0.471713
1631024025469,-0.839177,-0.265594,-0.471896
1631024025478,-0.839055,-0.263642,-0.472262
1631024025488,-0.839665,-0.264008,-0.470798
1631024025498,-0.8392379999999999,-0.263337,-0.470188
1631024025507,-0.8398479999999999,-0.263398,-0.472262
1631024025517,-0.839482,-0.262849,-0.471652
1631024025526,-0.839665,-0.263642,-0.470127
1631024025536,-0.838994,-0.263398,-0.469456
1631024025546,-0.839116,-0.262727,-0.469334
1631024025555,-0.838811,-0.262666,-0.469273
1631024025565,-0.839482,-0.263093,-0.469517
1631024025574,-0.839116,-0.2623,-0.470188
1631024025584,-0.83936,-0.26126299999999997,-0.469456
1631024025594,-0.838689,-0.260165,-0.467626
1631024025603,-0.83997,-0.260592,-0.46829699999999996
1631024025613,-0.839787,-0.260104,-0.469456
1631024025622,-0.839116,-0.259006,-0.469578
1631024025632,-0.8395429999999999,-0.25986,-0.4697
1631024025642,-0.8392379999999999,-0.260531,-0.468175
1631024025651,-0.83936,-0.262056,-0.466589
1631024025661,-0.840824,-0.263032,-0.46555199999999997
1631024025670,-0.842044,-0.263886,-0.467321
1631024025680,-0.842715,-0.263276,-0.471408
1631024025690,-0.843752,-0.262849,-0.47214
1631024025699,-0.843752,-0.263825,-0.47177399999999997
1631024025709,-0.841678,-0.265106,-0.470127
1631024025718,-0.84119,-0.266448,-0.465674
1631024025728,-0.841373,-0.267119,-0.46543
1631024025738,-0.839665,-0.265716,-0.468175
1631024025747,-0.839909,-0.262971,-0.46341699999999997
1631024025757,-0.83875,-0.26108,-0.459513
1631024025766,-0.838506,-0.259799,-0.463783
1631024025776,-0.841556,-0.26004299999999997,-0.47360399999999997
1631024025786,-0.844118,-0.260897,-0.479948
1631024025795,-0.845155,-0.26291,-0.47641
1631024025805,-0.844484,-0.266509,-0.467138
1631024025814,-0.843752,-0.268156,-0.46250199999999997
1631024025824,-0.843447,-0.269986,-0.463295
1631024025834,-0.843813,-0.270901,-0.466711
1631024025843,-0.843935,-0.269559,-0.468724
1631024025853,-0.842532,-0.268888,-0.46921199999999996
1631024025862,-0.840702,-0.268156,-0.46890699999999996
1631024025872,-0.841129,-0.266936,-0.466833
1631024025882,-0.839726,-0.266936,-0.46707699999999996
1631024025891,-0.840214,-0.267241,-0.468175
1631024025901,-0.839116,-0.267241,-0.468724
1631024025910,-0.839726,-0.267668,-0.468663
1631024025920,-0.838262,-0.268278,-0.467016
1631024025930,-0.838262,-0.268339,-0.465796
1631024025939,-0.8377129999999999,-0.26870499999999997,-0.466284
1631024025949,-0.837286,-0.267851,-0.466894
1631024025958,-0.837591,-0.268034,-0.466223
1631024025968,-0.83875,-0.268827,-0.467138
1631024025978,-0.839604,-0.26870499999999997,-0.467138
1631024025987,-0.839604,-0.269559,-0.46787
1631024025997,-0.840031,-0.26900999999999997,-0.470127
1631024026006,-0.838689,-0.269742,-0.466284
1631024026016,-0.839299,-0.268339,-0.462868
1631024026026,-0.838872,-0.267607,-0.467504
1631024026035,-0.840275,-0.267607,-0.467748
1631024026045,-0.839787,-0.266326,-0.470676
1631024026054,-0.840824,-0.264862,-0.471103
1631024026064,-0.840641,-0.266326,-0.468419
1631024026074,-0.840336,-0.268827,-0.465491
1631024026083,-0.840092,-0.269132,-0.465186
1631024026093,-0.842105,-0.269132,-0.46707699999999996
1631024026102,-0.841739,-0.268278,-0.469822
1631024026112,-0.841007,-0.267302,-0.470066
1631024026122,-0.842593,-0.266814,-0.470188
1631024026131,-0.841861,-0.266814,-0.469456
1631024026141,-0.841312,-0.266997,-0.470188
1631024026150,-0.839909,-0.26718,-0.470432
1631024026160,-0.839482,-0.268278,-0.469517
1631024026170,-0.8386279999999999,-0.26992499999999997,-0.469273
1631024026179,-0.838811,-0.268949,-0.469578
1631024026189,-0.839482,-0.268949,-0.469578
1631024026198,-0.8407629999999999,-0.268766,-0.468846
1631024026208,-0.840946,-0.266936,-0.469761
1631024026218,-0.8407629999999999,-0.265411,-0.471103
1631024026227,-0.8407629999999999,-0.266387,-0.471042
1631024026237,-0.841861,-0.266265,-0.47214
1631024026246,-0.840702,-0.266692,-0.47153
1631024026256,-0.840824,-0.265777,-0.470127
1631024026266,-0.840519,-0.264496,-0.470371
1631024026275,-0.839787,-0.263215,-0.469944
1631024026285,-0.839299,-0.264374,-0.470432
1631024026294,-0.83814,-0.2623,-0.469578
1631024026304,-0.837591,-0.262666,-0.46848
1631024026314,-0.837347,-0.262361,-0.468846
1631024026323,-0.83814,-0.26095799999999997,-0.468846
1631024026333,-0.8383229999999999,-0.261385,-0.469883
1631024026342,-0.838201,-0.26108,-0.46890699999999996
1631024026352,-0.8380179999999999,-0.259921,-0.46829699999999996
1631024026362,-0.8380179999999999,-0.258884,-0.46848
1631024026371,-0.836554,-0.257786,-0.46726
1631024026381,-0.836676,-0.257786,-0.465918
1631024026390,-0.8361879999999999,-0.257725,-0.466528
1631024026400,-0.837042,-0.258335,-0.46738199999999996
1631024026410,-0.8367979999999999,-0.258152,-0.468419
1631024026419,-0.837042,-0.260287,-0.468724
1631024026429,-0.837042,-0.261934,-0.465674
1631024026438,-0.837469,-0.262605,-0.46421
1631024026448,-0.8383229999999999,-0.264313,-0.46421
1631024026458,-0.839787,-0.264618,-0.466589
1631024026467,-0.841556,-0.26352,-0.470127
1631024026477,-0.842715,-0.263642,-0.47092
1631024026486,-0.843691,-0.26413,-0.469395
1631024026496,-0.844606,-0.26596,-0.467626
1631024026506,-0.843996,-0.267729,-0.46921199999999996
1631024026515,-0.844423,-0.26870499999999997,-0.465979
1631024026525,-0.841983,-0.268888,-0.467931
1631024026534,-0.841922,-0.267668,-0.46341699999999997
1631024026544,-0.840275,-0.26596,-0.46006199999999997
1631024026554,-0.8389329999999999,-0.264618,-0.462868
1631024026563,-0.840885,-0.264801,-0.468785
1631024026573,-0.844728,-0.26352,-0.475495
1631024026582,-0.845643,-0.264923,-0.47543399999999997
1631024026592,-0.84485,-0.26657,-0.470798
1631024026602,-0.843081,-0.269376,-0.464088
1631024026611,-0.843813,-0.270962,-0.46128199999999997
1631024026621,-0.842471,-0.272487,-0.462746
1631024026630,-0.842715,-0.271572,-0.466101
1631024026640,-0.842898,-0.26900999999999997,-0.467565
1631024026650,-0.842044,-0.266753,-0.46848
1631024026659,-0.84119,-0.265777,-0.466955
1631024026669,-0.841434,-0.266326,-0.46768699999999996
1631024026678,-0.841251,-0.266387,-0.46768699999999996
1631024026688,-0.841251,-0.266326,-0.467504
1631024026698,-0.841251,-0.266692,-0.46848
1631024026707,-0.841068,-0.266387,-0.468724
1631024026717,-0.83997,-0.266753,-0.46768699999999996
1631024026726,-0.838384,-0.264984,-0.465979
1631024026736,-0.837774,-0.265411,-0.465979
1631024026746,-0.8374079999999999,-0.264679,-0.46677199999999996
1631024026755,-0.8364929999999999,-0.264923,-0.466711
1631024026765,-0.836615,-0.265899,-0.466528
1631024026774,-0.837774,-0.266204,-0.467626
1631024026784,-0.837286,-0.267363,-0.469334
1631024026794,-0.836981,-0.26870499999999997,-0.46738199999999996
1631024026803,-0.837652,-0.268827,-0.465674
1631024026813,-0.838079,-0.268888,-0.46707699999999996
1631024026822,-0.838811,-0.26870499999999997,-0.468846
1631024026832,-0.838506,-0.268034,-0.470981
1631024026842,-0.839482,-0.268217,-0.47092
1631024026851,-0.840641,-0.267668,-0.470493
1631024026861,-0.840092,-0.268949,-0.468419
1631024026870,-0.839604,-0.26900999999999997,-0.46604
1631024026880,-0.839726,-0.269498,-0.465674
1631024026890,-0.8395429999999999,-0.270352,-0.466711
1631024026899,-0.840031,-0.27053499999999997,-0.465918
1631024026909,-0.840824,-0.269742,-0.46707699999999996
1631024026918,-0.84241,-0.268766,-0.467504
1631024026928,-0.842654,-0.267729,-0.467138
1631024026938,-0.842227,-0.267546,-0.466589
1631024026947,-0.841129,-0.266692,-0.465918
1631024026957,-0.841678,-0.267729,-0.465186
1631024026966,-0.841434,-0.267912,-0.464393
1631024026976,-0.842044,-0.267424,-0.464088
1631024026986,-0.842227,-0.267302,-0.465369
1631024026995,-0.843081,-0.265777,-0.46524699999999997
1631024027005,-0.844362,-0.264374,-0.466894
1631024027014,-0.843569,-0.264496,-0.467565
1631024027024,-0.843569,-0.263703,-0.467809
1631024027034,-0.84363,-0.263825,-0.466284
1631024027043,-0.842349,-0.264679,-0.464576
1631024027053,-0.842471,-0.264801,-0.464576
1631024027062,-0.840519,-0.264557,-0.464271
1631024027072,-0.840946,-0.264191,-0.46543
1631024027082,-0.841434,-0.263093,-0.46585699999999997
1631024027091,-0.84119,-0.264618,-0.465613
1631024027101,-0.840946,-0.264923,-0.46677199999999996
1631024027110,-0.84119,-0.264618,-0.46616199999999997
1631024027120,-0.842349,-0.265289,-0.467138
1631024027130,-0.841983,-0.265228,-0.467626
1631024027139,-0.841373,-0.266143,-0.466589
1631024027149,-0.841312,-0.266936,-0.465186
1631024027158,-0.841556,-0.266448,-0.465491
1631024027168,-0.841434,-0.268034,-0.464576
1631024027178,-0.842166,-0.267241,-0.465491
1631024027187,-0.841922,-0.266448,-0.465918
1631024027197,-0.842288,-0.26596,-0.467016
1631024027206,-0.840946,-0.265106,-0.466345
1631024027216,-0.840519,-0.26535,-0.464149
1631024027226,-0.839665,-0.266387,-0.463295
1631024027235,-0.841007,-0.267241,-0.465674
1631024027245,-0.8404579999999999,-0.267668,-0.46738199999999996
1631024027254,-0.841739,-0.267302,-0.469334
1631024027264,-0.841495,-0.267607,-0.468785
1631024027274,-0.841739,-0.268156,-0.466955
1631024027283,-0.840641,-0.26718,-0.465979
1631024027293,-0.840336,-0.267607,-0.464149
1631024027302,-0.839482,-0.268278,-0.46555199999999997
1631024027312,-0.838445,-0.26870499999999997,-0.464271
1631024027322,-0.839299,-0.26779,-0.46055
1631024027331,-0.8389329999999999,-0.267119,-0.46055
1631024027341,-0.840519,-0.266448,-0.46433199999999997
1631024027350,-0.84241,-0.266326,-0.471591
1631024027360,-0.843264,-0.265655,-0.475068
1631024027370,-0.843325,-0.266265,-0.47207899999999997
1631024027379,-0.842654,-0.268949,-0.46555199999999997
1631024027389,-0.842776,-0.270779,-0.462014
1631024027398,-0.842654,-0.273158,-0.462868
1631024027408,-0.841556,-0.27388999999999997,-0.464454
1631024027418,-0.840336,-0.273097,-0.465064
1631024027427,-0.8407629999999999,-0.272487,-0.465979
1631024027437,-0.83997,-0.271572,-0.466955
1631024027446,-0.839421,-0.272243,-0.466589
1631024027456,-0.8383229999999999,-0.272426,-0.46555199999999997
1631024027466,-0.8383229999999999,-0.273036,-0.465735
1631024027475,-0.837957,-0.27297499999999997,-0.46707699999999996
1631024027485,-0.838079,-0.273463,-0.46524699999999997
1631024027494,-0.837347,-0.273524,-0.464698
1631024027504,-0.8377129999999999,-0.275049,-0.463905
1631024027514,-0.838872,-0.274805,-0.464149
1631024027523,-0.8392379999999999,-0.274439,-0.46543
1631024027533,-0.840214,-0.274683,-0.465796
1631024027542,-0.840702,-0.275842,-0.46585699999999997
1631024027552,-0.840946,-0.277123,-0.465735
1631024027562,-0.841251,-0.277977,-0.465918
1631024027571,-0.8407629999999999,-0.277611,-0.466711
1631024027581,-0.8407629999999999,-0.276818,-0.462746
1631024027590,-0.84119,-0.275964,-0.462319
1631024027600,-0.840092,-0.27511,-0.46433199999999997
1631024027610,-0.840824,-0.273768,-0.464698
1631024027619,-0.8404579999999999,-0.273036,-0.465369
1631024027629,-0.840946,-0.273646,-0.464515
1631024027638,-0.8407629999999999,-0.272731,-0.462929
1631024027648,-0.839787,-0.272121,-0.46250199999999997
1631024027658,-0.839421,-0.271511,-0.460916
1631024027667,-0.839787,-0.271328,-0.46238
1631024027677,-0.840336,-0.269803,-0.462563
1631024027686,-0.83997,-0.270352,-0.463478
1631024027696,-0.840275,-0.26961999999999997,-0.462868
1631024027706,-0.841373,-0.268766,-0.462441
1631024027715,-0.841983,-0.268522,-0.461709
1631024027725,-0.842593,-0.269071,-0.461709
1631024027734,-0.842227,-0.269986,-0.460733
1631024027744,-0.842288,-0.269803,-0.461099
1631024027754,-0.843325,-0.270108,-0.461709
1631024027763,-0.84424,-0.27022999999999997,-0.460184
1631024027773,-0.844606,-0.26961999999999997,-0.461221
1631024027782,-0.843813,-0.270108,-0.462685
1631024027792,-0.844362,-0.268949,-0.463661
1631024027802,-0.844728,-0.26870499999999997,-0.463478
1631024027811,-0.844545,-0.268888,-0.463783
1631024027821,-0.843569,-0.268583,-0.46128199999999997
1631024027830,-0.843996,-0.268827,-0.461221
1631024027840,-0.843752,-0.268461,-0.46116
1631024027850,-0.843569,-0.26809499999999997,-0.461648
1631024027859,-0.843935,-0.268827,-0.461404
1631024027869,-0.843752,-0.26900999999999997,-0.46219699999999997
1631024027878,-0.842471,-0.268583,-0.462441
1631024027888,-0.843691,-0.270047,-0.46341699999999997
1631024027898,-0.843203,-0.270108,-0.46238
1631024027907,-0.843325,-0.27144999999999997,-0.462441
1631024027917,-0.842776,-0.271572,-0.463234
1631024027926,-0.84363,-0.272243,-0.462441
1631024027936,-0.843386,-0.271328,-0.462929
1631024027946,-0.843386,-0.271389,-0.463478
1631024027955,-0.843447,-0.270413,-0.463905
1631024027965,-0.843142,-0.269437,-0.463173
1631024027974,-0.843203,-0.26900999999999997,-0.462319
1631024027984,-0.843447,-0.268888,-0.46238
1631024027994,-0.843996,-0.267668,-0.462868
1631024028003,-0.842593,-0.266509,-0.464454
1631024028013,-0.841373,-0.265228,-0.464088
1631024028022,-0.840702,-0.266326,-0.462624
1631024028032,-0.8395429999999999,-0.266387,-0.461648
1631024028042,-0.8392379999999999,-0.267241,-0.459208
