timestamp,ax,ay,az
1631024023312,-0.678198,0.724802,0.013054
1631024023322,-0.678503,0.726449,0.01342
1631024023332,-0.680272,0.728523,0.012505
1631024023341,-0.681065,0.7312069999999999,0.012627
1631024023351,-0.679845,0.730475,0.012505
1631024023360,-0.681126,0.7296819999999999,0.013297999999999999
1631024023370,-0.681065,0.728889,0.012565999999999999
1631024023380,-0.681248,0.729011,0.012688
1631024023389,-0.680821,0.729316,0.013481
1631024023399,-0.680638,0.728523,0.013663999999999999
1631024023408,-0.6803939999999999,0.726693,0.015189
1631024023418,-0.680821,0.7259,0.014274
1631024023428,-0.68015,0.724802,0.013542
1631024023437,-0.682041,0.725412,0.009637999999999999
1631024023447,-0.684847,0.726693,0.004331
1631024023456,-0.6871039999999999,0.730414,0.0013419999999999999
1631024023466,-0.6861889999999999,0.7312069999999999,0.0040869999999999995
1631024023476,-0.6849689999999999,0.733159,0.0070149999999999995
1631024023485,-0.68503,0.733891,0.011285
1631024023495,-0.68381,0.7354769999999999,0.016653
1631024023504,-0.6846639999999999,0.73688,0.020557
1631024023514,-0.683017,0.737856,0.024766
1631024023524,-0.680333,0.736026,0.026962
1631024023533,-0.677222,0.732671,0.024766
1631024023543,-0.675819,0.728035,0.020739999999999998
1631024023552,-0.67405,0.725046,0.017079999999999998
1631024023562,-0.674233,0.721996,0.013725
1631024023572,-0.674904,0.721325,0.011041
1631024023581,-0.675941,0.7187629999999999,0.009028
1631024023591,-0.677527,0.718824,0.00732
1631024023600,-0.678564,0.718275,0.00793
1631024004549,-0.679296,0.720837,0.008235
1631024004558,-0.680821,0.721142,0.006344
1631024004568,-0.681126,0.723826,0.00549
1631024004577,-0.682285,0.726998,0.002196
1631024004587,-0.6831389999999999,0.729926,-0.001098
1631024004597,-0.68198,0.732854,-0.001952
1631024004606,-0.683505,0.7293769999999999,0.002074
1631024004616,-0.682346,0.727974,0.006405
1631024004625,-0.6822239999999999,0.725778,0.01159
1631024004635,-0.681492,0.723277,0.015006
1631024004645,-0.681248,0.725961,0.014274
1631024004654,-0.682041,0.727608,0.014152
1631024004664,-0.680882,0.726754,0.014152
1631024004673,-0.6813089999999999,0.723643,0.013115
1631024004683,-0.681858,0.721874,0.011285
1631024004693,-0.683017,0.721508,0.010248
1631024004702,-0.684115,0.724497,0.008052
1631024004712,-0.685091,0.725107,0.007076
1631024004721,-0.684298,0.724741,0.006344
1631024004731,-0.685335,0.722667,0.007503
1631024004741,-0.6846639999999999,0.72102,0.007625
1631024004750,-0.6834439999999999,0.720654,0.0073809999999999995
1631024004760,-0.68381,0.720837,0.00671
1631024004769,-0.684481,0.72102,0.005856
1631024004779,-0.683871,0.721142,0.006222
1631024004789,-0.683078,0.720715,0.007076
1631024004798,-0.6834439999999999,0.721752,0.008113
1631024004808,-0.6816139999999999,0.721386,0.009637999999999999
1631024004817,-0.6806989999999999,0.723155,0.009699
1631024004827,-0.681492,0.722301,0.010614
1631024004837,-0.680577,0.72407,0.008967
1631024004846,-0.680882,0.723948,0.009821
1631024004856,-0.680333,0.724314,0.009882
1631024004865,-0.678442,0.723765,0.010492
1631024004875,-0.678259,0.724802,0.010919
1631024004885,-0.677832,0.725168,0.010492
1631024004894,-0.676368,0.724558,0.012261
1631024004904,-0.676063,0.722423,0.014091
1631024004913,-0.676673,0.723643,0.014152
1631024004923,-0.677527,0.724375,0.014761999999999999
1631024004933,-0.678259,0.725778,0.017141
1631024004942,-0.678747,0.727791,0.017263
1631024004952,-0.678076,0.729743,0.016287
1631024004961,-0.6791739999999999,0.73017,0.016226
1631024004971,-0.680272,0.730353,0.016592
1631024004981,-0.680333,0.729316,0.017873
1631024004990,-0.679357,0.72773,0.018605
1631024005000,-0.679906,0.7272419999999999,0.020618
1631024005009,-0.679906,0.726876,0.022753
1631024005019,-0.679723,0.728096,0.02318
1631024005029,-0.679418,0.727974,0.02379
1631024005038,-0.680516,0.728828,0.021471999999999998
1631024005048,-0.681431,0.730048,0.019764
1631024005057,-0.681248,0.7284619999999999,0.021106
1631024005067,-0.68137,0.728035,0.02318
1631024005077,-0.680028,0.72956,0.02501
1631024005086,-0.678686,0.731085,0.027572
1631024005096,-0.676673,0.732854,0.031171
1631024005105,-0.677954,0.732488,0.034648
1631024005115,-0.678503,0.732,0.036295
1631024005125,-0.679906,0.731695,0.037087999999999996
1631024005134,-0.6810039999999999,0.731939,0.03538
1631024005144,-0.68198,0.733586,0.031964
1631024005153,-0.682041,0.7339519999999999,0.029341
1631024005163,-0.6828339999999999,0.734501,0.026535
1631024005173,-0.680455,0.734745,0.02196
1631024005182,-0.677588,0.735599,0.017568
1631024005192,-0.676063,0.7339519999999999,0.016714
1631024005201,-0.677161,0.728035,0.02196
1631024005211,-0.675148,0.723521,0.027389
1631024005221,-0.674477,0.721203,0.031781
1631024005230,-0.67405,0.725046,0.033184
1631024005240,-0.674599,0.729743,0.03172
1631024005249,-0.673623,0.7339519999999999,0.030622
1631024005259,-0.674782,0.732793,0.030866
1631024005269,-0.674904,0.7302919999999999,0.029585
1631024005278,-0.673745,0.7293769999999999,0.028791999999999998
1631024005288,-0.671854,0.728706,0.028304
1631024005297,-0.672464,0.730536,0.028121
1631024005307,-0.671,0.730414,0.029036
1631024005317,-0.671732,0.732366,0.030622
1631024005326,-0.671915,0.732061,0.031842
1631024005336,-0.672403,0.733098,0.032208
1631024005345,-0.672891,0.734928,0.03172
1631024005355,-0.670512,0.735965,0.030012
1631024005365,-0.67039,0.7348669999999999,0.030866
1631024005374,-0.670451,0.734806,0.033123
1631024005384,-0.670573,0.7351719999999999,0.034404
1631024005393,-0.668438,0.733708,0.036905
1631024005403,-0.667218,0.7339519999999999,0.036844
1631024005413,-0.667889,0.7351719999999999,0.036417
1631024005422,-0.667584,0.736331,0.034648
1631024005432,-0.668743,0.737429,0.034038
1631024005441,-0.670207,0.7363919999999999,0.034404
1631024005451,-0.670268,0.736148,0.033245
1631024005461,-0.67039,0.73627,0.032757
1631024005470,-0.669902,0.7391369999999999,0.033854999999999996
1631024005480,-0.67039,0.739808,0.034038
1631024005489,-0.669719,0.739564,0.033672
1631024005499,-0.6694749999999999,0.736209,0.035929
1631024005509,-0.668621,0.734684,0.037332
1631024005518,-0.668682,0.734074,0.037087999999999996
1631024005528,-0.670878,0.735355,0.035623999999999996
1631024005537,-0.670268,0.735538,0.034648
1631024005547,-0.673318,0.73749,0.034159999999999996
1631024005557,-0.675514,0.73993,0.033489
1631024005566,-0.676002,0.742614,0.032147
1631024005576,-0.677954,0.746457,0.034099
1631024005585,-0.678381,0.746762,0.037942
1631024005595,-0.677466,0.745176,0.040748
1631024005605,-0.676978,0.743712,0.043737
1631024005614,-0.675331,0.743041,0.044042
1631024005624,-0.676002,0.741821,0.043248999999999996
1631024005633,-0.675636,0.7409669999999999,0.040626
1631024005643,-0.674965,0.7385269999999999,0.03782
1631024005653,-0.673928,0.735965,0.035136
1631024005662,-0.671366,0.732915,0.034587
1631024005672,-0.669841,0.729804,0.034038
1631024005681,-0.668804,0.729133,0.032513
1631024005691,-0.669292,0.729621,0.030378
1631024005701,-0.670146,0.730658,0.030012
1631024005710,-0.669902,0.730658,0.029463
1631024005720,-0.669841,0.730475,0.028914
1631024005729,-0.670329,0.728523,0.02684
1631024005739,-0.671854,0.728645,0.025803
1631024005749,-0.671854,0.72834,0.024278
1631024005758,-0.670329,0.726083,0.022875
1631024005768,-0.6691699999999999,0.725656,0.019764
1631024005777,-0.669353,0.728828,0.011285
1631024005787,-0.672403,0.734379,0.008662
1631024005797,-0.673989,0.732976,0.012383
1631024005806,-0.674721,0.727364,0.020191
1631024005816,-0.674233,0.730414,0.023424
1631024005825,-0.672464,0.732488,0.026595999999999998
1631024005835,-0.670451,0.735721,0.026962
1631024005845,-0.669536,0.737429,0.02745
1631024005854,-0.670024,0.737063,0.028121
1631024005864,-0.667157,0.736331,0.029219
1631024005873,-0.666059,0.736209,0.030987999999999998
1631024005883,-0.665693,0.736514,0.029951
1631024005893,-0.6667299999999999,0.73932,0.030560999999999998
1631024005902,-0.668011,0.741211,0.030805
1631024005912,-0.668438,0.74176,0.033001
1631024005921,-0.668743,0.7412719999999999,0.033184
1631024005931,-0.669414,0.740479,0.032757
1631024005941,-0.669902,0.740113,0.032574
1631024005950,-0.670207,0.7406619999999999,0.030622
1631024005960,-0.671122,0.739991,0.028914
1631024005969,-0.672586,0.739686,0.027632999999999998
1631024005979,-0.672037,0.737368,0.028059999999999998
1631024005989,-0.672342,0.7342569999999999,0.02745
1631024005998,-0.670207,0.7336469999999999,0.025376
1631024006008,-0.67161,0.733708,0.024461
1631024006017,-0.671488,0.7333419999999999,0.022448
1631024006027,-0.671305,0.7315119999999999,0.022997
1631024006037,-0.671793,0.731878,0.024522
1631024006046,-0.671305,0.73383,0.023607
1631024006056,-0.670268,0.735294,0.022875
1631024006065,-0.670024,0.735904,0.022448
1631024006075,-0.669414,0.735965,0.023607
1631024006085,-0.6688649999999999,0.7345619999999999,0.025071
1631024006094,-0.668133,0.73261,0.026900999999999998
1631024006104,-0.667706,0.7330369999999999,0.026535
1631024006113,-0.668438,0.734135,0.02684
1631024006123,-0.668499,0.736148,0.027145
1631024006133,-0.668438,0.736819,0.026779
1631024006142,-0.670024,0.736819,0.026779
1631024006152,-0.6688649999999999,0.7370019999999999,0.026718
1631024006161,-0.668987,0.736331,0.025863999999999998
1631024006171,-0.669963,0.736026,0.024522
1631024006181,-0.67039,0.7366969999999999,0.024522
1631024006190,-0.670024,0.736636,0.025254
1631024006200,-0.670207,0.736514,0.025193
1631024006209,-0.670024,0.7363919999999999,0.025742
1631024006219,-0.670878,0.736636,0.025071
1631024006229,-0.671793,0.735233,0.024949
1631024006238,-0.670329,0.734745,0.026413
1631024006248,-0.670939,0.733281,0.026352
1631024006257,-0.669414,0.7336469999999999,0.026352
1631024006267,-0.669353,0.734196,0.025925
1631024006277,-0.669597,0.735111,0.026962
1631024006286,-0.671183,0.734623,0.027511
1631024006296,-0.672586,0.735721,0.027816
1631024006305,-0.672769,0.735111,0.027938
1631024006315,-0.67283,0.734013,0.028975
1631024006325,-0.673196,0.734745,0.028975
1631024006334,-0.673318,0.7357819999999999,0.028121
1631024006344,-0.67161,0.73444,0.026718
1631024006353,-0.671793,0.737063,0.01952
1631024006363,-0.671732,0.739625,0.016531
1631024006373,-0.672464,0.7388319999999999,0.017263
1631024006382,-0.673379,0.733159,0.024522
1631024006392,-0.671427,0.730658,0.028975
1631024006401,-0.671793,0.7327319999999999,0.030317
1631024006411,-0.671305,0.736331,0.029768
1631024006421,-0.671732,0.73993,0.027084
1631024006430,-0.671854,0.7400519999999999,0.025315
1631024006440,-0.671183,0.736209,0.026718
1631024006449,-0.669597,0.7330369999999999,0.027999
1631024006459,-0.669292,0.73322,0.027877
1631024006469,-0.6691699999999999,0.733464,0.027694
1631024006478,-0.6679499999999999,0.7357819999999999,0.027999
1631024006488,-0.6694749999999999,0.737429,0.028121
1631024006497,-0.67039,0.736819,0.028914
1631024006507,-0.670573,0.737368,0.029828999999999998
1631024006517,-0.670329,0.737673,0.029828999999999998
1631024006526,-0.670512,0.737551,0.029768
1631024006536,-0.671671,0.738649,0.028487
1631024006545,-0.670939,0.7394419999999999,0.029707
1631024006555,-0.669292,0.738039,0.029341
1631024006565,-0.6700849999999999,0.7366969999999999,0.030378
1631024006574,-0.668743,0.735843,0.030866
1631024006584,-0.667828,0.736758,0.029402
1631024006593,-0.668194,0.7370019999999999,0.028059999999999998
1631024006603,-0.6685599999999999,0.738405,0.02745
1631024006613,-0.668438,0.7373069999999999,0.028059999999999998
1631024006622,-0.668133,0.735904,0.029341
1631024006632,-0.669658,0.736514,0.02989
1631024006641,-0.669658,0.73932,0.031476
1631024006651,-0.670451,0.741638,0.034221
1631024006661,-0.670573,0.7434069999999999,0.036051
1631024006670,-0.672342,0.74237,0.03782
1631024006680,-0.672586,0.7415769999999999,0.038796
1631024006689,-0.673257,0.742065,0.038613
1631024006699,-0.675453,0.7434069999999999,0.035868
1631024006709,-0.675819,0.743773,0.034709
1631024006718,-0.676734,0.744688,0.031964
1631024006728,-0.6771,0.74481,0.03111
1631024006737,-0.676795,0.74603,0.029402
1631024006747,-0.675453,0.7434069999999999,0.028853
1631024006757,-0.673806,0.741699,0.028791999999999998
1631024006766,-0.672647,0.738893,0.028059999999999998
1631024006776,-0.671305,0.7366969999999999,0.026168999999999998
1631024006785,-0.669658,0.7345619999999999,0.023729
1631024006795,-0.669414,0.734013,0.02135
1631024006805,-0.669658,0.7336469999999999,0.018239
1631024006814,-0.669841,0.732366,0.01647
1631024006824,-0.668743,0.7318169999999999,0.014029999999999999
1631024006833,-0.668621,0.730658,0.013237
1631024006843,-0.667401,0.7321219999999999,0.012993
1631024006853,-0.665876,0.734074,0.013481
1631024006862,-0.664046,0.734074,0.014152
1631024006872,-0.664534,0.73383,0.016653
1631024006881,-0.663436,0.734318,0.018361
1631024006891,-0.6630699999999999,0.734745,0.019703
1631024006901,-0.663558,0.737795,0.020739999999999998
1631024006910,-0.663253,0.739015,0.020679
1631024006920,-0.662887,0.742126,0.019825
1631024006929,-0.6642899999999999,0.744261,0.016958
1631024006939,-0.662887,0.747189,0.012688
1631024006949,-0.661423,0.747799,0.010369999999999999
1631024006958,-0.662826,0.74542,0.011773
1631024006968,-0.660264,0.740906,0.01647
1631024006977,-0.659349,0.7373069999999999,0.018178
1631024006987,-0.660813,0.73566,0.019642
1631024006997,-0.660508,0.737978,0.020007999999999998
1631024007006,-0.6603249999999999,0.740296,0.018727
1631024007016,-0.6606299999999999,0.740113,0.017324
1631024007025,-0.661362,0.73871,0.017263
1631024007035,-0.661484,0.737978,0.015372
1631024007045,-0.6624599999999999,0.737429,0.013481
1631024007054,-0.664351,0.73932,0.013481
1631024007064,-0.664656,0.741394,0.014029999999999999
1631024007073,-0.664961,0.74237,0.016409
1631024007083,-0.664961,0.742431,0.01769
1631024007093,-0.665876,0.744322,0.020862
1631024007102,-0.667218,0.744871,0.020862
1631024007112,-0.667218,0.745359,0.020496
1631024007121,-0.6667299999999999,0.745725,0.020557
1631024007131,-0.667767,0.744932,0.020374
1631024007141,-0.667096,0.744932,0.021533
1631024007150,-0.668316,0.744139,0.022387
1631024007160,-0.668072,0.742553,0.022082
1631024007169,-0.667706,0.74176,0.02013
1631024007179,-0.667889,0.741943,0.019032
1631024007189,-0.667218,0.742004,0.017934
1631024007198,-0.667462,0.740174,0.017995
1631024007208,-0.666608,0.7397469999999999,0.018666
1631024007217,-0.666974,0.739625,0.017019
1631024007227,-0.6670349999999999,0.7400519999999999,0.015738
1631024007237,-0.666364,0.739686,0.016958
1631024007246,-0.666059,0.738344,0.016714
1631024007256,-0.665388,0.73688,0.017446
1631024007265,-0.664778,0.73383,0.017811999999999998
1631024007275,-0.6642899999999999,0.734684,0.017873
1631024007285,-0.664351,0.7345619999999999,0.018422
1631024007294,-0.664961,0.735843,0.019093
1631024007304,-0.665388,0.737856,0.018788
1631024007313,-0.667462,0.739564,0.018117
1631024007323,-0.667157,0.741211,0.019886
1631024007333,-0.666547,0.7418819999999999,0.021716
1631024007342,-0.667584,0.74176,0.022509
1631024007352,-0.667584,0.742431,0.022997
1631024007361,-0.666913,0.742065,0.024644
1631024007371,-0.667523,0.74115,0.025498
1631024007381,-0.668316,0.741821,0.026108
1631024007390,-0.6676449999999999,0.742309,0.025863999999999998
1631024007400,-0.668804,0.7418819999999999,0.024339
1631024007409,-0.669292,0.7409669999999999,0.023729
1631024007419,-0.670024,0.738039,0.022265
1631024007429,-0.670146,0.737429,0.020313
1631024007438,-0.6697799999999999,0.735355,0.020069
1631024007448,-0.669048,0.734989,0.019459
1631024007457,-0.6676449999999999,0.735599,0.018422
1631024007467,-0.6664249999999999,0.7351719999999999,0.019642
1631024007477,-0.668133,0.735538,0.019764
1631024007486,-0.667462,0.73505,0.022203999999999998
1631024007496,-0.667889,0.73444,0.02318
1631024007505,-0.668682,0.7357819999999999,0.023912
1631024007515,-0.6694749999999999,0.737368,0.023363
1631024007525,-0.670695,0.7388319999999999,0.023424
1631024007534,-0.67039,0.739015,0.023363
1631024007544,-0.671427,0.739991,0.022387
1631024007553,-0.670207,0.74237,0.017995
1631024007563,-0.668377,0.746579,0.015677
1631024007573,-0.669048,0.743773,0.018178
1631024007582,-0.668011,0.738283,0.022143
1631024007592,-0.666669,0.734684,0.023972999999999998
1631024007601,-0.667828,0.731695,0.026108
1631024007611,-0.667523,0.734013,0.026779
1631024007621,-0.668987,0.73688,0.023058
1631024007630,-0.6685599999999999,0.737246,0.02257
1631024007640,-0.6685599999999999,0.7339519999999999,0.023241
1631024007649,-0.6700849999999999,0.7327319999999999,0.022143
1631024007659,-0.670024,0.7327319999999999,0.020252
1631024007669,-0.671,0.7357819999999999,0.020801
1631024007678,-0.670573,0.737368,0.021289
1631024007688,-0.670573,0.738649,0.024156
1631024007697,-0.6700849999999999,0.7381,0.026352
1631024007707,-0.671427,0.737734,0.027877
1631024007717,-0.670939,0.736636,0.028487
1631024007726,-0.67161,0.7381,0.027694
1631024007736,-0.671732,0.7403569999999999,0.025863999999999998
1631024007745,-0.672769,0.739625,0.025254
1631024007755,-0.672952,0.73993,0.025254
1631024007765,-0.672098,0.738466,0.02623
1631024007774,-0.671549,0.736941,0.02745
1631024007784,-0.669597,0.7336469999999999,0.027023
1631024007793,-0.669719,0.73383,0.025863999999999998
1631024007803,-0.6697799999999999,0.7363919999999999,0.02318
1631024007813,-0.6694749999999999,0.736148,0.020435
1631024007822,-0.6694749999999999,0.736331,0.019459
1631024007832,-0.669048,0.73505,0.020984
1631024007841,-0.6685599999999999,0.7342569999999999,0.022021
1631024007851,-0.667523,0.7342569999999999,0.022935999999999998
1631024007861,-0.667157,0.733464,0.024704999999999998
1631024007870,-0.667462,0.734379,0.024704999999999998
1631024007880,-0.667767,0.735843,0.026352
1631024007889,-0.6685599999999999,0.736453,0.026535
1631024007899,-0.669353,0.738893,0.02562
1631024007909,-0.669902,0.7415769999999999,0.024644
1631024007918,-0.669231,0.741699,0.025376
1631024007928,-0.668621,0.7424919999999999,0.027327999999999998
1631024007937,-0.668133,0.742736,0.030195
1631024007947,-0.669109,0.743834,0.031354
1631024007957,-0.668438,0.744444,0.032574
1631024007966,-0.668438,0.744688,0.032635
1631024007976,-0.669109,0.743224,0.033549999999999996
1631024007985,-0.6679499999999999,0.740601,0.032818
1631024007995,-0.668621,0.738954,0.031903
1631024008005,-0.669414,0.738161,0.029219
1631024008014,-0.669658,0.7370019999999999,0.026168999999999998
1631024008024,-0.670268,0.736331,0.024034
1631024008033,-0.670939,0.734135,0.022509
1631024008043,-0.670329,0.733159,0.020435
1631024008053,-0.670207,0.732671,0.01952
1631024008062,-0.669414,0.731695,0.020252
1631024008072,-0.669414,0.731939,0.022143
1631024008081,-0.668499,0.7324269999999999,0.023972999999999998
1631024008091,-0.666059,0.733464,0.025254
1631024008101,-0.664717,0.7351719999999999,0.026108
1631024008110,-0.6642899999999999,0.737124,0.02867
1631024008120,-0.664839,0.738893,0.029646
1631024008129,-0.665022,0.73932,0.031537
1631024008139,-0.665754,0.7382219999999999,0.033916
1631024008149,-0.667218,0.738649,0.033245
1631024008158,-0.668438,0.741394,0.032695999999999996
1631024008168,-0.667767,0.7406619999999999,0.030683
1631024008177,-0.668926,0.742614,0.027755
1631024008187,-0.668438,0.74237,0.023485
1631024008197,-0.668072,0.743895,0.014761999999999999
1631024008206,-0.667096,0.7442,0.012444
1631024008216,-0.668438,0.738588,0.016165
1631024008225,-0.669292,0.732,0.023119
1631024008235,-0.668377,0.732,0.025436999999999998
1631024008245,-0.668072,0.734013,0.02684
1631024008254,-0.666974,0.7391369999999999,0.025803
1631024008264,-0.667401,0.74115,0.024095
1631024008273,-0.6673399999999999,0.74054,0.023729
1631024008283,-0.666547,0.735355,0.024278
1631024008293,-0.665449,0.734806,0.024278
1631024008302,-0.666364,0.737368,0.023546
1631024008312,-0.666791,0.74054,0.024399999999999998
1631024008321,-0.666547,0.74481,0.025681
1631024008331,-0.666852,0.747006,0.026595999999999998
1631024008341,-0.666913,0.74725,0.028975
1631024008350,-0.665327,0.745969,0.030805
1631024008360,-0.665022,0.747006,0.031049
1631024008369,-0.664656,0.746274,0.031476
1631024008379,-0.664351,0.744627,0.0305
1631024008389,-0.663009,0.743468,0.030012
1631024008398,-0.662216,0.7397469999999999,0.030439
1631024008408,-0.661789,0.735904,0.03111
1631024008417,-0.661057,0.733281,0.02989
1631024008427,-0.6597149999999999,0.733464,0.027145
1631024008437,-0.6603249999999999,0.734623,0.024034
1631024008446,-0.661423,0.7370019999999999,0.019947
1631024008456,-0.662338,0.737124,0.020007999999999998
1631024008465,-0.663863,0.739564,0.022753
1631024008475,-0.663314,0.741028,0.024888
1631024008485,-0.6627649999999999,0.743834,0.027999
1631024008494,-0.6624599999999999,0.745054,0.032208
1631024008504,-0.661728,0.746396,0.036234
1631024008513,-0.661484,0.74725,0.04087
1631024008523,-0.661301,0.747921,0.044102999999999996
1631024008533,-0.6618499999999999,0.748714,0.044957
1631024008542,-0.662216,0.750239,0.04331
1631024008552,-0.6645949999999999,0.749934,0.041236
1631024008561,-0.665632,0.747982,0.04026
1631024008571,-0.667584,0.744871,0.038551999999999996
1631024008581,-0.667279,0.742248,0.035807
1631024008590,-0.668926,0.7388319999999999,0.033611
1631024008600,-0.670207,0.736453,0.031537
1631024008609,-0.670146,0.7333419999999999,0.029646
1631024008619,-0.671305,0.733769,0.025986
1631024008629,-0.669658,0.732183,0.024156
1631024008638,-0.670268,0.734196,0.023912
1631024008648,-0.670329,0.73505,0.024217
1631024008657,-0.669719,0.736148,0.024888
1631024008667,-0.6685599999999999,0.737856,0.026535
1631024008677,-0.6682549999999999,0.738588,0.029768
1631024008686,-0.665388,0.738649,0.032818
1631024008696,-0.663314,0.7385269999999999,0.037087999999999996
1631024008705,-0.662521,0.740601,0.039284
1631024008715,-0.661911,0.742736,0.040199
1631024008725,-0.662643,0.744078,0.039710999999999996
1631024008734,-0.663314,0.745054,0.040320999999999996
1631024008744,-0.663314,0.743163,0.040504
1631024008753,-0.664168,0.74176,0.037759
1631024008763,-0.664229,0.741821,0.035868
1631024008773,-0.665266,0.741455,0.033184
1631024008782,-0.664473,0.74115,0.031598
1631024008792,-0.6636799999999999,0.7391369999999999,0.031842
1631024008801,-0.6615449999999999,0.736636,0.028304
1631024008811,-0.660447,0.738344,0.021655
1631024008821,-0.6612399999999999,0.739686,0.020069
1631024008830,-0.662033,0.736453,0.021838
1631024008840,-0.664778,0.732976,0.027877
1631024008849,-0.665327,0.735721,0.031598
1631024008859,-0.664961,0.741028,0.033611
1631024008869,-0.665022,0.745908,0.034831
1631024008878,-0.665083,0.74969,0.034709
1631024008888,-0.667096,0.750056,0.034709
1631024008897,-0.665754,0.747006,0.035746
1631024008907,-0.6658149999999999,0.745481,0.036173
1631024008917,-0.6645949999999999,0.746518,0.036539
1631024008926,-0.664168,0.747189,0.037271
1631024008936,-0.6648999999999999,0.750788,0.037759
1631024008945,-0.665327,0.75335,0.039406
1631024008955,-0.664778,0.754204,0.039955
1631024008965,-0.663863,0.752984,0.041236
1631024008974,-0.6624599999999999,0.7518859999999999,0.039710999999999996
1631024008984,-0.6609349999999999,0.75152,0.039223
1631024008993,-0.660142,0.750483,0.038674
1631024009003,-0.6587999999999999,0.749751,0.041236
1631024009013,-0.658922,0.748653,0.043127
1631024009022,-0.657946,0.748958,0.044469
1631024009032,-0.655994,0.748104,0.045201
1631024009041,-0.654774,0.748592,0.044164
1631024009051,-0.656909,0.749324,0.043005
1631024009061,-0.6563599999999999,0.749019,0.043981
1631024009070,-0.656726,0.74603,0.044407999999999996
1631024009080,-0.6575799999999999,0.744932,0.046238
1631024009089,-0.6597149999999999,0.745176,0.04453
1631024009099,-0.661301,0.74847,0.044652
1631024009109,-0.660264,0.748592,0.045262
1631024009118,-0.661728,0.74603,0.045384
1631024009128,-0.662338,0.745298,0.046116
1631024009137,-0.662216,0.745481,0.044469
1631024009147,-0.663192,0.743773,0.043981
1631024009157,-0.664107,0.7424919999999999,0.042943999999999996
1631024009166,-0.6636799999999999,0.740845,0.041236
1631024009176,-0.663619,0.739503,0.040687
1631024009185,-0.664656,0.73871,0.039710999999999996
1631024009195,-0.6627649999999999,0.73871,0.038491
1631024009205,-0.664107,0.739381,0.037149
1631024009214,-0.665022,0.74054,0.038186
1631024009224,-0.6648999999999999,0.741638,0.039284
1631024009233,-0.665388,0.743468,0.041663
1631024009243,-0.665876,0.745664,0.04392
1631024009253,-0.665693,0.74725,0.047030999999999996
1631024009262,-0.664717,0.748592,0.048251
1631024009272,-0.662948,0.752008,0.049958999999999996
1631024009281,-0.662033,0.752923,0.052826
1631024009291,-0.660081,0.754814,0.057096
1631024009301,-0.657336,0.756705,0.064355
1631024009310,-0.655262,0.759633,0.07033299999999999
1631024009320,-0.651724,0.762317,0.07710399999999999
1631024009329,-0.651907,0.764574,0.078446
1631024009339,-0.650809,0.7650009999999999,0.07808
1631024009349,-0.650748,0.764757,0.07808
1631024009358,-0.651175,0.7650009999999999,0.077226
1631024009368,-0.650199,0.7625,0.074542
1631024009377,-0.649467,0.7616459999999999,0.071431
1631024009387,-0.648552,0.760487,0.068076
1631024009397,-0.648186,0.757315,0.06405
1631024009406,-0.647881,0.758352,0.060695
1631024009416,-0.648613,0.760243,0.056547
1631024009425,-0.649528,0.7643909999999999,0.05124
1631024009435,-0.64782,0.767319,0.04758
1631024009445,-0.649284,0.765733,0.04819
1631024009454,-0.648064,0.763232,0.050752
1631024009464,-0.646966,0.761402,0.052337999999999996
1631024009473,-0.646112,0.7604259999999999,0.05124
1631024009483,-0.645014,0.762805,0.050447
1631024009493,-0.641842,0.7653059999999999,0.047092
1631024009502,-0.640988,0.765367,0.042761
1631024009512,-0.639158,0.762988,0.037698
1631024009521,-0.642818,0.760304,0.032085999999999996
1631024009531,-0.63379,0.759267,0.025559
1631024009541,-0.6442209999999999,0.7592059999999999,0.025376
1631024009550,-0.6341559999999999,0.760914,0.020801
1631024009560,-0.6390359999999999,0.763293,0.01952
1631024009569,-0.642208,0.764147,0.019764
1631024009579,-0.630618,0.762378,0.016165
1631024009589,-0.6405609999999999,0.7634759999999999,0.014945
1631024009598,-0.635254,0.763049,0.012199999999999999
1631024009608,-0.6396459999999999,0.764574,0.010248
1631024009617,-0.636962,0.763842,0.009211
1631024009627,-0.636962,0.763903,0.006161
1631024009637,-0.636962,0.761524,0.006161
1631024009646,-0.636169,0.7616459999999999,0.0064659999999999995
1631024009656,-0.6353759999999999,0.759633,0.004941
1631024009665,-0.634644,0.7579859999999999,0.003477
1631024009675,-0.635254,0.758535,0.0023179999999999997
1631024009685,-0.6335459999999999,0.7567659999999999,0.002074
1631024009694,-0.633363,0.755058,0.000976
1631024009704,-0.633424,0.7537159999999999,-0.001098
1631024009713,-0.632692,0.7540209999999999,-0.000915
1631024009723,-0.6329359999999999,0.754265,-0.002257
1631024009733,-0.632997,0.753838,-0.00183
1631024009742,-0.632143,0.75274,-0.001952
1631024009752,-0.632814,0.751825,-0.001037
1631024009761,-0.632509,0.752008,-0.000793
1631024009771,-0.6320209999999999,0.753045,0.0008539999999999999
1631024009781,-0.631594,0.754448,0.00122
1631024009790,-0.6323259999999999,0.7537159999999999,0.001769
1631024009800,-0.633485,0.754509,0.0023179999999999997
1631024009809,-0.634888,0.755485,0.005246
1631024009819,-0.635742,0.7570709999999999,0.0071979999999999995
1631024009829,-0.636962,0.7567659999999999,0.009699
1631024009838,-0.637572,0.757925,0.011346
1631024009848,-0.639524,0.758047,0.014457
1631024009857,-0.6411709999999999,0.758718,0.016897
1631024009867,-0.641842,0.759267,0.018543999999999998
1631024009877,-0.642818,0.759938,0.020191
1631024009886,-0.645258,0.761463,0.020679
1631024009896,-0.647088,0.762073,0.021106
1631024009905,-0.648918,0.7628659999999999,0.021106
1631024009915,-0.648979,0.7625609999999999,0.021716
1631024009925,-0.65026,0.762378,0.02318
1631024009934,-0.651419,0.7634759999999999,0.022935999999999998
1631024009944,-0.651968,0.76311,0.023363
1631024009953,-0.652883,0.762439,0.024399999999999998
1631024009963,-0.654286,0.760792,0.026657
1631024009973,-0.653859,0.7601209999999999,0.028914
1631024009982,-0.652273,0.760182,0.030134
1631024009992,-0.652029,0.76067,0.030805
1631024010001,-0.652761,0.760182,0.031781
1631024010011,-0.653798,0.760182,0.032269
1631024010021,-0.654286,0.759755,0.033428
1631024010030,-0.655689,0.760304,0.033611
1631024010040,-0.6569699999999999,0.76067,0.033184
1631024010049,-0.655079,0.758474,0.034587
1631024010059,-0.654774,0.756095,0.033916
1631024010069,-0.655079,0.755424,0.031171
1631024010078,-0.654774,0.7555459999999999,0.025863999999999998
1631024010088,-0.65453,0.755424,0.021106
1631024010097,-0.654225,0.75213,0.01647
1631024010107,-0.656238,0.74542,0.019275999999999998
1631024010117,-0.657458,0.739381,0.019703
1631024010126,-0.658983,0.733525,0.021045
1631024010136,-0.656909,0.7315119999999999,0.019337
1631024010145,-0.659044,0.731939,0.014274
1631024010155,-0.658617,0.732,0.009943
1631024010165,-0.659532,0.7305969999999999,0.004514
1631024010174,-0.657824,0.7284619999999999,0.00122
1631024010184,-0.658739,0.729743,-0.002562
1631024010193,-0.658312,0.73322,-0.0048189999999999995
1631024010203,-0.6569699999999999,0.736575,-0.004026
1631024010213,-0.6554449999999999,0.740174,-0.0011589999999999999
1631024010222,-0.654347,0.7424919999999999,0.0023179999999999997
1631024010232,-0.6527,0.745603,0.006527
1631024010241,-0.651663,0.744993,0.010797
1631024010251,-0.651724,0.748226,0.012444
1631024010261,-0.65087,0.7546309999999999,0.013663999999999999
1631024010270,-0.649162,0.757803,0.018543999999999998
1631024010280,-0.649223,0.761524,0.02318
1631024010289,-0.645502,0.763415,0.02684
1631024010299,-0.648125,0.765123,0.034648
1631024010309,-0.6426959999999999,0.76494,0.038551999999999996
1631024010318,-0.641537,0.762683,0.040809
1631024010328,-0.64233,0.763232,0.040443
1631024010337,-0.643672,0.7650009999999999,0.039955
1631024010347,-0.643123,0.7640859999999999,0.039894
1631024010357,-0.643489,0.762134,0.039284
1631024010366,-0.643367,0.7622559999999999,0.041174999999999996
1631024010376,-0.6442209999999999,0.762805,0.043859
1631024010385,-0.64477,0.7640859999999999,0.045994
1631024010395,-0.64416,0.764208,0.047824
1631024010405,-0.64477,0.763842,0.048861
1631024010414,-0.645685,0.761402,0.048251
1631024010424,-0.648003,0.7567659999999999,0.046176999999999996
1631024010433,-0.652212,0.75213,0.041602
1631024010443,-0.654835,0.748226,0.03721
1631024010453,-0.658678,0.744871,0.031171
1631024010462,-0.6612399999999999,0.743834,0.025131999999999998
1631024010472,-0.662338,0.743285,0.022509
1631024010481,-0.663253,0.74359,0.021471999999999998
1631024010491,-0.663131,0.745115,0.022265
1631024010501,-0.6636799999999999,0.746884,0.025925
1631024010510,-0.663619,0.748775,0.033062
1631024010520,-0.662887,0.751337,0.0427
1631024010529,-0.661301,0.752557,0.05185
1631024010539,-0.662338,0.754082,0.058682
1631024010549,-0.661423,0.7558509999999999,0.062891
1631024010558,-0.659471,0.75579,0.064416
1631024010568,-0.661606,0.7561559999999999,0.064904
1631024010577,-0.661301,0.755668,0.064416
1631024010587,-0.6621549999999999,0.756583,0.06344
1631024010597,-0.661972,0.757925,0.062403
1631024010606,-0.660447,0.757315,0.063318
1631024010616,-0.659349,0.756644,0.066917
1631024010625,-0.655872,0.759328,0.069845
1631024010635,-0.653798,0.7595109999999999,0.07326099999999999
1631024010645,-0.652883,0.760182,0.074237
1631024010654,-0.652029,0.76189,0.075945
1631024010664,-0.648674,0.76128,0.078629
1631024010673,-0.647088,0.760548,0.08064199999999999
1631024010683,-0.645563,0.759267,0.081801
1631024010693,-0.645868,0.7585959999999999,0.07991
1631024010702,-0.648064,0.75762,0.07649399999999999
1631024010712,-0.649833,0.7592059999999999,0.074542
1631024010721,-0.650809,0.7592059999999999,0.072712
1631024010731,-0.648003,0.757925,0.071187
1631024010741,-0.646173,0.75457,0.07063799999999999
1631024010750,-0.645197,0.753045,0.06161
1631024010760,-0.646051,0.756888,0.050691
1631024010769,-0.648735,0.758718,0.043737
1631024010779,-0.653127,0.755668,0.038186
1631024010789,-0.652212,0.754143,0.034648
1631024010798,-0.651297,0.752313,0.030439
1631024010808,-0.652151,0.750605,0.026474
1631024010817,-0.650748,0.750056,0.024217
1631024010827,-0.6451359999999999,0.746518,0.022203999999999998
1631024010837,-0.65148,0.74298,0.024766
1631024010846,-0.642757,0.744017,0.027694
1631024010856,-0.648979,0.746701,0.032574
1631024010865,-0.646661,0.752618,0.037149
1631024010875,-0.648979,0.754814,0.044042
1631024010885,-0.647393,0.756522,0.05246
1631024010894,-0.64599,0.756034,0.055632
1631024010904,-0.645624,0.759023,0.058438
1631024010913,-0.645685,0.75884,0.060939
1631024010923,-0.64782,0.756644,0.061975999999999996
1631024010933,-0.652151,0.757925,0.060756
1631024010942,-0.654164,0.7589009999999999,0.059475
1631024010952,-0.656482,0.759572,0.06161
1631024010961,-0.659959,0.7601209999999999,0.061975999999999996
1631024010971,-0.662643,0.758413,0.062891
1631024010981,-0.662948,0.7561559999999999,0.065514
1631024010990,-0.667462,0.755973,0.064538
1631024011000,-0.671732,0.7582909999999999,0.063623
1631024011009,-0.674965,0.759694,0.061
1631024011019,-0.676795,0.75701,0.059292
1631024011029,-0.679723,0.754509,0.057888999999999996
1631024011038,-0.679418,0.751947,0.056242
1631024011048,-0.68015,0.7521909999999999,0.054839
1631024011057,-0.6810039999999999,0.751398,0.05368
1631024011067,-0.68198,0.752984,0.048861
1631024011077,-0.682468,0.753899,0.046116
1631024011086,-0.6825289999999999,0.754204,0.041419
1631024011096,-0.6810039999999999,0.755363,0.036782999999999996
1631024011105,-0.677222,0.756034,0.032452
1631024011115,-0.673684,0.753838,0.029219
1631024011125,-0.671,0.748287,0.027572
1631024011134,-0.667584,0.743895,0.025986
1631024011144,-0.67039,0.744566,0.026962
1631024011153,-0.6664249999999999,0.747616,0.02928
1631024011163,-0.666913,0.745542,0.032025
1631024011173,-0.667828,0.746945,0.0305
1631024011182,-0.665998,0.745603,0.029402
1631024011192,-0.663314,0.743346,0.028548
1631024011201,-0.663558,0.738161,0.02623
1631024011211,-0.662216,0.738405,0.020618
1631024011221,-0.669536,0.737551,0.019398
1631024011230,-0.661972,0.739381,0.017446
1631024011240,-0.663619,0.736453,0.020069
1631024011249,-0.669658,0.7381,0.021899
1631024011259,-0.6661199999999999,0.730414,0.027084
1631024011269,-0.670512,0.729926,0.030439
1631024011278,-0.668072,0.724924,0.03294
1631024011288,-0.670634,0.723704,0.032574
1631024011297,-0.668926,0.716567,0.032695999999999996
1631024011307,-0.672464,0.714981,0.02684
1631024011317,-0.674782,0.712236,0.023607
1631024011326,-0.679662,0.705709,0.025071
1631024011336,-0.681675,0.699487,0.022692
1631024011345,-0.6816139999999999,0.690581,0.022814
1631024011355,-0.682956,0.682895,0.019886
1631024011365,-0.685396,0.677222,0.014518
1631024011374,-0.691313,0.677405,0.006222
1631024011384,-0.694912,0.681492,0.0034159999999999998
1631024011393,-0.698877,0.682712,0.006405
1631024011403,-0.703086,0.680577,0.014884
1631024011413,-0.702354,0.681736,0.02196
1631024011422,-0.700341,0.678747,0.024339
1631024011432,-0.697779,0.673257,0.025193
1631024011441,-0.696071,0.665083,0.026413
1631024011451,-0.695705,0.657214,0.025863999999999998
1631024011461,-0.694607,0.654042,0.023485
1631024011470,-0.699731,0.656482,0.0305
1631024011480,-0.69296,0.663131,0.037271
1631024011489,-0.702293,0.674721,0.049288
1631024011499,-0.696071,0.68015,0.065941
1631024011509,-0.688812,0.687836,0.078934
1631024011518,-0.700402,0.702903,0.088145
1631024011528,-0.689971,0.705526,0.099857
1631024011537,-0.699121,0.715591,0.10699399999999999
1631024011547,-0.69418,0.721569,0.113399
1631024011557,-0.698755,0.726388,0.11547299999999999
1631024011566,-0.696986,0.727303,0.1159
1631024011576,-0.699914,0.726998,0.115839
1631024011585,-0.700524,0.72773,0.11699799999999999
1631024011595,-0.70516,0.731573,0.119865
1631024011605,-0.702964,0.733159,0.120658
1631024011614,-0.703574,0.732366,0.115839
1631024011624,-0.701378,0.728096,0.11529
1631024011633,-0.701805,0.725961,0.111508
1631024011643,-0.699426,0.726876,0.10638399999999999
1631024011653,-0.697596,0.726449,0.100772
1631024011662,-0.696071,0.728279,0.09455
1631024011672,-0.695278,0.728035,0.09265899999999999
1631024011681,-0.6925939999999999,0.725412,0.090646
1631024011691,-0.6935089999999999,0.722789,0.085827
1631024011701,-0.6910689999999999,0.718885,0.082472
1631024011710,-0.691801,0.71431,0.07972699999999999
1631024011720,-0.694485,0.710162,0.075945
1631024011729,-0.69296,0.706807,0.073932
1631024011739,-0.697108,0.7062579999999999,0.069967
1631024011749,-0.696376,0.703574,0.066368
1631024011758,-0.69845,0.701073,0.061732
1631024011768,-0.698267,0.700219,0.057096
1631024011777,-0.701073,0.70394,0.051545
1631024011787,-0.703025,0.708332,0.044835
1631024011797,-0.7062579999999999,0.709979,0.038796
1631024011806,-0.7041229999999999,0.706929,0.036051
1631024011816,-0.700524,0.703452,0.040931
1631024011825,-0.695705,0.702354,0.044835
1631024011835,-0.6910689999999999,0.69967,0.049044
1631024011845,-0.685823,0.699914,0.050935
1631024011854,-0.681675,0.699182,0.055388
1631024011864,-0.678198,0.701622,0.059719
1631024011873,-0.676185,0.70577,0.062708
1631024011883,-0.6791739999999999,0.709857,0.065209
1631024011893,-0.684115,0.7137,0.06770999999999999
1631024011902,-0.686555,0.713822,0.067527
1631024011912,-0.689056,0.712602,0.069845
1631024011921,-0.687775,0.710467,0.07137
1631024011931,-0.685091,0.706746,0.07387099999999999
1631024011941,-0.684542,0.704062,0.074725
1631024011950,-0.680943,0.701805,0.074786
1631024011960,-0.684786,0.702781,0.07710399999999999
1631024011969,-0.682041,0.703635,0.08295999999999999
1631024011979,-0.6846639999999999,0.700951,0.09089
1631024011989,-0.682956,0.698694,0.107482
1631024011998,-0.67832,0.697596,0.11956
1631024012008,-0.675026,0.69601,0.131028
1631024012017,-0.670634,0.69418,0.142252
1631024012027,-0.668499,0.694546,0.146095
1631024012037,-0.662826,0.6895439999999999,0.146583
1631024012046,-0.654469,0.680211,0.141154
1631024012056,-0.652334,0.670939,0.138714
1631024012065,-0.654286,0.671915,0.138165
1631024012075,-0.661118,0.681248,0.134322
1631024012085,-0.667767,0.687836,0.136518
1631024012094,-0.673318,0.6928989999999999,0.14005599999999999
1631024012104,-0.676917,0.698389,0.140483
1631024012113,-0.677466,0.702415,0.141032
1631024012123,-0.677283,0.7056479999999999,0.140483
1631024012133,-0.678076,0.704001,0.14188599999999998
1631024012142,-0.6813089999999999,0.7015,0.140788
1631024012152,-0.686555,0.7032079999999999,0.138104
1631024012161,-0.6919839999999999,0.705831,0.135908
1631024012171,-0.697169,0.7102229999999999,0.131394
1631024012181,-0.699182,0.714676,0.13078399999999998
1631024012190,-0.698206,0.714737,0.130967
1631024012200,-0.699121,0.71736,0.131516
1631024012209,-0.699792,0.718397,0.132736
1631024012219,-0.695156,0.715347,0.137067
1631024012229,-0.692838,0.710589,0.142313
1631024012238,-0.690276,0.710406,0.147498
1631024012248,-0.686616,0.7117479999999999,0.15420799999999998
1631024012257,-0.6877139999999999,0.7157129999999999,0.15853899999999999
1631024012267,-0.6867989999999999,0.718214,0.163968
1631024012277,-0.6816139999999999,0.714371,0.16994599999999999
1631024012286,-0.680455,0.711687,0.17732699999999998
1631024012296,-0.68137,0.710345,0.182756
1631024012305,-0.680821,0.710345,0.186782
1631024012315,-0.680943,0.7099179999999999,0.193004
1631024012325,-0.684847,0.708637,0.19702999999999998
1631024012334,-0.686677,0.711077,0.197701
1631024012344,-0.687043,0.7138829999999999,0.198372
1631024012353,-0.68503,0.719007,0.198677
1631024012363,-0.684237,0.723033,0.198616
1631024012373,-0.683871,0.729804,0.199592
1631024012382,-0.686067,0.7357819999999999,0.20191
1631024012392,-0.6819189999999999,0.736148,0.211426
1631024012401,-0.677832,0.731268,0.222589
1631024012411,-0.67588,0.728645,0.231678
1631024012421,-0.674233,0.7305969999999999,0.236863
1631024012430,-0.673074,0.7312069999999999,0.240767
1631024012440,-0.668682,0.731878,0.241987
1631024012449,-0.669658,0.7336469999999999,0.243329
1631024012459,-0.668377,0.735904,0.244244
1631024012469,-0.667218,0.736453,0.244
1631024012478,-0.6639849999999999,0.735233,0.241255
1631024012488,-0.665144,0.734684,0.238693
1631024012497,-0.667279,0.741089,0.23338599999999998
1631024012507,-0.662399,0.741028,0.227896
1631024012517,-0.655201,0.7348669999999999,0.22136899999999998
1631024012526,-0.643489,0.725107,0.209596
1631024012536,-0.628239,0.709491,0.200812
1631024012545,-0.619028,0.692472,0.19947
1631024012555,-0.6085969999999999,0.676551,0.19947
1631024012565,-0.592432,0.6591049999999999,0.208986
1631024012574,-0.5955429999999999,0.658983,0.213256
1631024012584,-0.604266,0.673867,0.20935199999999998
1631024012593,-0.608353,0.690215,0.20660699999999999
1631024012603,-0.614026,0.701683,0.206668
1631024012613,-0.615185,0.7032079999999999,0.209474
1631024012622,-0.616954,0.700524,0.21337799999999998
1631024012632,-0.616954,0.699182,0.215147
1631024012641,-0.613904,0.699792,0.216611
1631024012651,-0.6204919999999999,0.7047329999999999,0.218258
1631024012661,-0.630191,0.719434,0.216245
1631024012670,-0.636108,0.732,0.213622
1631024012680,-0.6423909999999999,0.74176,0.209596
1631024012689,-0.64721,0.747006,0.208864
1631024012699,-0.649101,0.7503,0.212341
1631024012709,-0.647759,0.756217,0.218258
1631024012718,-0.645624,0.759572,0.226188
1631024012728,-0.6436109999999999,0.76372,0.233325
1631024012737,-0.638243,0.768173,0.240889
1631024012747,-0.633912,0.772809,0.247233
1631024012757,-0.630374,0.778726,0.256017
1631024012766,-0.625311,0.786473,0.262971
1631024012776,-0.626348,0.796233,0.268156
1631024012785,-0.6150019999999999,0.8036139999999999,0.269254
1631024012795,-0.614819,0.812093,0.271267
1631024012805,-0.609146,0.822951,0.273158
1631024012814,-0.6092069999999999,0.830576,0.279746
1631024012824,-0.607926,0.842349,0.287066
1631024012833,-0.599752,0.853146,0.295911
1631024012843,-0.598532,0.86437,0.304573
1631024012853,-0.588101,0.877607,0.311283
1631024012862,-0.585966,0.881877,0.32195799999999997
1631024012872,-0.58316,0.8885259999999999,0.326472
1631024012881,-0.585539,0.895663,0.327936
1631024012891,-0.579561,0.897554,0.326472
1631024012901,-0.58133,0.898774,0.321897
1631024012910,-0.578829,0.901458,0.315797
1631024012920,-0.571692,0.8991399999999999,0.313845
1631024012929,-0.567117,0.899689,0.310856
1631024012939,-0.5635789999999999,0.905301,0.30689099999999997
1631024012949,-0.553209,0.9092049999999999,0.305488
1631024012958,-0.551013,0.91439,0.302133
1631024012968,-0.538142,0.912438,0.303658
1631024012977,-0.529358,0.905484,0.30561
1631024012987,-0.522892,0.902739,0.300242
1631024012997,-0.513925,0.898042,0.289018
1631024013006,-0.510448,0.895236,0.275476
1631024013016,-0.506422,0.889197,0.266753
1631024013025,-0.49233099999999996,0.875533,0.264252
1631024013035,-0.48714599999999997,0.8623569999999999,0.257115
1631024013045,-0.479338,0.8486319999999999,0.249551
1631024013054,-0.471103,0.8346629999999999,0.241865
1631024013064,-0.465003,0.82167,0.236131
1631024013073,-0.450363,0.808311,0.235094
1631024013083,-0.439566,0.796843,0.23680199999999998
1631024013093,-0.432856,0.796538,0.234362
1631024013102,-0.422791,0.796355,0.232593
1631024013112,-0.412665,0.791719,0.234362
1631024013121,-0.412726,0.795623,0.23863199999999998
1631024013131,-0.409188,0.8063589999999999,0.246684
1631024013141,-0.406443,0.811727,0.24973399999999998
1631024013150,-0.40321,0.814228,0.244915
1631024013160,-0.397476,0.813313,0.242841
1631024013169,-0.393572,0.811788,0.243634
1631024013179,-0.398452,0.809348,0.250405
1631024013189,-0.393816,0.798002,0.260836
1631024013198,-0.399733,0.795135,0.26900999999999997
1631024013208,-0.395341,0.796599,0.279929
1631024013217,-0.39466999999999997,0.802455,0.28438199999999997
1631024013227,-0.394304,0.807091,0.282308
1631024013237,-0.39344999999999997,0.80825,0.28163699999999997
1631024013246,-0.396317,0.806603,0.282186
1631024013256,-0.394731,0.803553,0.283589
1631024013265,-0.39833,0.798124,0.288225
1631024013275,-0.401258,0.799588,0.291031
1631024013285,-0.399855,0.801967,0.288469
1631024013294,-0.40809,0.797636,0.286151
1631024013304,-0.41053,0.794159,0.283589
1631024013313,-0.411506,0.786534,0.28194199999999997
1631024013323,-0.416203,0.7814099999999999,0.278465
1631024013333,-0.415898,0.775066,0.275415
1631024013342,-0.416752,0.771711,0.273158
1631024013352,-0.418765,0.771284,0.273646
1631024013361,-0.427732,0.77287,0.277001
1631024013371,-0.43694299999999997,0.779519,0.280356
1631024013381,-0.440054,0.781471,0.283406
1631024013390,-0.442555,0.784094,0.285968
1631024013400,-0.445422,0.783789,0.290482
1631024013409,-0.460123,0.781776,0.291763
1631024013419,-0.46116,0.779946,0.293166
1631024013429,-0.481656,0.780739,0.289994
1631024013438,-0.490379,0.783911,0.286456
1631024013448,-0.509899,0.790072,0.27816
1631024013457,-0.520513,0.796416,0.270047
1631024013467,-0.526064,0.798246,0.265716
1631024013477,-0.533933,0.795318,0.261141
1631024013486,-0.5419849999999999,0.790743,0.25851799999999997
1631024013496,-0.546926,0.787571,0.25821299999999997
1631024013505,-0.551806,0.783301,0.25882299999999997
1631024013515,-0.55937,0.778909,0.254492
1631024013525,-0.5663239999999999,0.7753099999999999,0.248941
1631024013534,-0.578158,0.7746999999999999,0.24034
1631024013544,-0.587979,0.773541,0.232654
1631024013553,-0.588589,0.769942,0.227591
1631024013563,-0.5931029999999999,0.768539,0.219295
1631024013573,-0.593042,0.768661,0.210511
1631024013582,-0.591639,0.764879,0.204838
1631024013592,-0.59048,0.7607309999999999,0.194773
1631024013601,-0.5940179999999999,0.75579,0.184525
1631024013611,-0.592737,0.7534109999999999,0.171654
1631024013621,-0.5955429999999999,0.752435,0.161711
1631024013630,-0.597617,0.75396,0.148901
1631024013640,-0.591212,0.749873,0.138104
1631024013649,-0.5860879999999999,0.742553,0.12986899999999998
1631024013659,-0.58011,0.742614,0.124928
1631024013669,-0.5693739999999999,0.73871,0.126026
1631024013678,-0.563518,0.735355,0.12456199999999999
1631024013688,-0.561871,0.739015,0.123342
1631024013697,-0.551989,0.739625,0.123525
1631024013707,-0.550403,0.739625,0.127551
1631024013717,-0.5441199999999999,0.742858,0.129808
1631024013726,-0.544608,0.744444,0.137555
1631024013736,-0.544791,0.755485,0.144021
1631024013745,-0.548329,0.770308,0.145424
1631024013755,-0.556198,0.789828,0.142252
1631024013765,-0.566446,0.806725,0.13786
1631024013774,-0.574864,0.818803,0.13480999999999999
1631024013784,-0.576511,0.827404,0.134383
1631024013793,-0.5860879999999999,0.842471,0.130601
1631024013803,-0.593225,0.860161,0.131089
1631024013813,-0.599325,0.8723609999999999,0.134688
1631024013822,-0.604449,0.882182,0.144936
1631024013832,-0.609268,0.885659,0.156465
1631024013841,-0.615185,0.888038,0.165493
1631024013851,-0.614575,0.89243,0.172203
1631024013861,-0.6198819999999999,0.897981,0.175924
1631024013870,-0.614941,0.896273,0.18287799999999999
1631024013880,-0.61732,0.896273,0.18849
1631024013889,-0.610305,0.893833,0.194773
1631024013899,-0.606401,0.890234,0.19947
1631024013909,-0.60573,0.889014,0.20191
1631024013918,-0.602314,0.8857809999999999,0.203252
1631024013928,-0.595604,0.8790709999999999,0.205326
1631024013937,-0.590907,0.870958,0.203862
1631024013947,-0.587735,0.8617469999999999,0.20069
1631024013957,-0.581147,0.850584,0.200019
1631024013966,-0.573034,0.84058,0.200324
1631024013976,-0.5681539999999999,0.830759,0.198128
1631024013985,-0.56608,0.821792,0.19519999999999998
1631024013995,-0.55998,0.811971,0.193736
1631024014005,-0.556503,0.799527,0.191906
1631024014014,-0.556015,0.791841,0.18605
1631024014024,-0.555832,0.7838499999999999,0.179584
1631024014033,-0.555588,0.777994,0.17086099999999999
1631024014043,-0.5608339999999999,0.776713,0.160552
1631024014053,-0.565043,0.773297,0.149511
1631024014062,-0.571143,0.770186,0.13602999999999998
1631024014072,-0.578402,0.767197,0.124623
1631024014081,-0.585051,0.766587,0.116022
1631024014091,-0.591334,0.76616,0.11254499999999999
1631024014101,-0.598044,0.768234,0.109373
1631024014110,-0.605608,0.772565,0.10437099999999999
1631024014120,-0.610976,0.778604,0.098332
1631024014129,-0.6174419999999999,0.783728,0.093086
1631024014139,-0.621224,0.787632,0.09089
1631024014149,-0.624152,0.787571,0.088572
1631024014158,-0.62647,0.788608,0.086925
1631024014168,-0.627629,0.792268,0.083753
1631024014177,-0.628117,0.795745,0.084363
1631024014187,-0.627141,0.798368,0.085827
1631024014197,-0.626836,0.803126,0.086925
1631024014206,-0.627385,0.806298,0.088328
1631024014216,-0.626714,0.808982,0.090646
1631024014225,-0.623908,0.806542,0.092415
1631024014235,-0.621651,0.8051389999999999,0.091866
1631024014245,-0.619028,0.8042239999999999,0.09174399999999999
1631024014254,-0.616405,0.8030039999999999,0.09089
1631024014264,-0.614453,0.803248,0.089975
1631024014273,-0.611586,0.802333,0.08723
1631024014283,-0.609024,0.800686,0.086681
1631024014293,-0.605913,0.7987339999999999,0.086742
1631024014302,-0.603656,0.795013,0.08784
1631024014312,-0.600606,0.789706,0.087779
1631024014321,-0.5978,0.783972,0.087718
1631024014331,-0.596275,0.779397,0.087108
1631024014341,-0.595055,0.777384,0.084302
1631024014350,-0.594262,0.774334,0.082472
1631024014360,-0.595726,0.772809,0.07991
1631024014369,-0.5964579999999999,0.768966,0.07808
1631024014379,-0.598593,0.766892,0.076128
1631024014389,-0.601887,0.765794,0.074969
1631024014398,-0.607011,0.762927,0.07356599999999999
1631024014408,-0.611403,0.762439,0.073688
1631024014417,-0.61427,0.761585,0.07679899999999999
1631024014427,-0.617015,0.761707,0.076555
1631024014437,-0.618418,0.7585959999999999,0.075396
1631024014446,-0.62159,0.757559,0.070089
1631024014456,-0.624274,0.757742,0.061244
1631024014465,-0.627751,0.753472,0.060511999999999996
1631024014475,-0.629703,0.746274,0.065148
1631024014485,-0.6335459999999999,0.7415769999999999,0.070272
1631024014494,-0.632875,0.7415769999999999,0.074786
1631024014504,-0.632692,0.745054,0.080764
1631024014513,-0.635132,0.753533,0.087047
1631024014523,-0.63745,0.761402,0.093452
1631024014533,-0.637633,0.765245,0.099186
1631024014542,-0.636047,0.7653059999999999,0.105957
1631024014552,-0.6326309999999999,0.764025,0.115351
1631024014561,-0.628727,0.766038,0.120536
1631024014571,-0.626836,0.767624,0.125782
1631024014581,-0.624335,0.769393,0.130357
1631024014590,-0.621224,0.771406,0.13480999999999999
1631024014600,-0.618723,0.770308,0.139324
1631024014609,-0.616405,0.771162,0.14280099999999998
1631024014619,-0.614453,0.771528,0.146095
1631024014629,-0.611586,0.772565,0.151768
1631024014638,-0.609695,0.771711,0.15738
1631024014648,-0.606584,0.771772,0.16165
1631024014657,-0.604754,0.773114,0.163663
1631024014667,-0.602802,0.773724,0.165432
1631024014677,-0.601155,0.77409,0.16622499999999998
1631024014686,-0.59841,0.776652,0.166164
1631024014696,-0.5978,0.7789699999999999,0.164212
1631024014705,-0.596519,0.782081,0.163053
1631024014715,-0.5964579999999999,0.782508,0.161345
1631024014725,-0.595726,0.783118,0.163846
1631024014734,-0.594811,0.785436,0.16500499999999999
1631024014744,-0.5924929999999999,0.7887299999999999,0.165737
1631024014753,-0.590785,0.790499,0.165676
1631024014763,-0.5870029999999999,0.791048,0.16683499999999998
1631024014773,-0.58499,0.792939,0.166103
1631024014782,-0.586637,0.795196,0.164151
1631024014792,-0.586576,0.797026,0.161467
1631024014801,-0.587125,0.7991,0.160613
1631024014811,-0.587796,0.800808,0.159515
1631024014821,-0.585112,0.8033089999999999,0.159332
1631024014830,-0.582977,0.803431,0.16006399999999998
1631024014840,-0.579378,0.8039189999999999,0.162199
1631024014849,-0.576572,0.806786,0.162565
1631024014859,-0.573034,0.805566,0.165066
1631024014869,-0.57035,0.804407,0.166164
1631024014878,-0.5690689999999999,0.8054439999999999,0.168482
1631024014888,-0.567788,0.806725,0.170129
1631024014897,-0.565958,0.80581,0.17055599999999999
1631024014907,-0.563945,0.804468,0.170922
1631024014917,-0.562908,0.8045289999999999,0.169641
1631024014926,-0.56242,0.8042239999999999,0.168116
1631024014936,-0.5612,0.804285,0.16713999999999998
1631024014945,-0.559797,0.8039189999999999,0.166347
1631024014955,-0.558943,0.804285,0.164883
1631024014965,-0.558272,0.805322,0.163175
1631024014974,-0.557784,0.807945,0.162016
1631024014984,-0.557418,0.810263,0.161162
1631024014993,-0.558394,0.8130689999999999,0.16067399999999998
1631024015003,-0.559675,0.816058,0.160125
1631024015013,-0.560956,0.81679,0.158722
1631024015022,-0.56181,0.816241,0.156221
1631024015032,-0.562481,0.817522,0.153415
1631024015041,-0.564433,0.818315,0.148413
1631024015051,-0.563701,0.821853,0.146278
1631024015061,-0.562908,0.821182,0.142069
1631024015070,-0.562237,0.8221579999999999,0.135237
1631024015080,-0.561688,0.82594,0.129076
1631024015089,-0.559736,0.82594,0.128893
1631024015099,-0.556076,0.821304,0.134078
1631024015109,-0.552965,0.818864,0.138165
1631024015118,-0.550769,0.818681,0.144692
1631024015128,-0.547963,0.820938,0.146766
1631024015137,-0.5462549999999999,0.8233779999999999,0.147315
1631024015147,-0.545096,0.825086,0.146278
1631024015157,-0.543876,0.823805,0.14335
1631024015166,-0.542168,0.8227679999999999,0.141825
1631024015176,-0.539911,0.82167,0.14066599999999999
1631024015185,-0.537776,0.821304,0.139141
1631024015195,-0.536312,0.8230729999999999,0.139385
1631024015205,-0.536312,0.8245979999999999,0.139202
1631024015214,-0.534848,0.825635,0.141825
1631024015224,-0.535336,0.826306,0.142618
1631024015233,-0.535397,0.826977,0.144631
1631024015243,-0.535214,0.82838,0.146461
1631024015253,-0.534055,0.828319,0.149328
1631024015262,-0.534909,0.831552,0.15128
1631024015272,-0.534482,0.833016,0.153171
1631024015281,-0.533994,0.83448,0.156404
1631024015291,-0.53497,0.8371029999999999,0.15884399999999999
1631024015301,-0.534421,0.8401529999999999,0.160613
1631024015310,-0.533933,0.843203,0.161772
1631024015320,-0.534665,0.847778,0.161955
1631024015329,-0.534238,0.850401,0.163663
1631024015339,-0.534055,0.852536,0.166774
1631024015349,-0.532774,0.853268,0.169641
1631024015358,-0.530883,0.8525969999999999,0.169153
1631024015368,-0.52887,0.851926,0.168848
1631024015377,-0.525637,0.849974,0.167262
1631024015387,-0.5225259999999999,0.847534,0.166408
1631024015397,-0.519964,0.843142,0.166164
1631024015406,-0.518622,0.8392379999999999,0.164517
1631024015416,-0.5164259999999999,0.8371029999999999,0.161894
1631024015425,-0.514779,0.833504,0.16043
1631024015435,-0.5133759999999999,0.830576,0.158966
1631024015445,-0.513132,0.827587,0.157563
1631024015454,-0.513132,0.82716,0.155062
1631024015464,-0.514108,0.827526,0.152012
1631024015473,-0.5152059999999999,0.828441,0.149816
1631024015483,-0.5161209999999999,0.828136,0.14823
1631024015493,-0.5164259999999999,0.826062,0.146766
1631024015502,-0.51789,0.826001,0.147986
1631024015512,-0.51789,0.825696,0.14762
1631024015521,-0.517463,0.8264279999999999,0.147254
1631024015531,-0.518927,0.8285629999999999,0.148596
1631024015541,-0.5194759999999999,0.830454,0.150609
1631024015550,-0.519354,0.832162,0.153476
1631024015560,-0.518927,0.833565,0.157258
1631024015569,-0.52094,0.836005,0.16128399999999998
1631024015579,-0.521489,0.83875,0.16469999999999999
1631024015589,-0.522038,0.842837,0.166103
1631024015598,-0.5222209999999999,0.844423,0.16836
1631024015608,-0.5203909999999999,0.845704,0.171654
1631024015617,-0.520025,0.84607,0.175924
1631024015627,-0.519232,0.84546,0.17812
1631024015637,-0.519293,0.84424,0.179401
1631024015646,-0.521184,0.8468019999999999,0.17995
1631024015656,-0.522404,0.8483269999999999,0.179035
1631024015665,-0.524478,0.847595,0.177876
1631024015675,-0.526003,0.847351,0.177205
1631024015685,-0.52704,0.846924,0.174887
1631024015694,-0.528687,0.846863,0.170007
1631024015704,-0.531615,0.849364,0.163785
1631024015713,-0.530761,0.848876,0.15945399999999998
1631024015723,-0.530761,0.844667,0.159942
1631024015733,-0.528565,0.837591,0.164883
1631024015742,-0.528138,0.83021,0.165493
1631024015752,-0.530578,0.830759,0.163114
1631024015761,-0.53009,0.832894,0.159942
1631024015771,-0.52948,0.833016,0.156892
1631024015781,-0.52826,0.832284,0.155062
1631024015790,-0.526186,0.8270379999999999,0.155062
1631024015800,-0.525149,0.824171,0.156038
1631024015809,-0.524966,0.824049,0.155367
1631024015819,-0.524417,0.825269,0.156526
1631024015829,-0.524478,0.825391,0.157746
1631024015838,-0.525332,0.8270379999999999,0.156465
1631024015848,-0.524112,0.824781,0.156892
1631024015857,-0.524539,0.821914,0.157563
1631024015867,-0.525698,0.821365,0.157624
1631024015877,-0.526125,0.82106,0.158356
1631024015886,-0.529968,0.821426,0.160247
1631024015896,-0.532591,0.8235,0.16128399999999998
1631024015905,-0.534787,0.823866,0.163175
1631024015915,-0.5361899999999999,0.820938,0.16469999999999999
1631024015925,-0.539179,0.821548,0.168055
1631024015934,-0.539667,0.822524,0.17086099999999999
1631024015944,-0.542412,0.823195,0.173911
1631024015953,-0.545584,0.82655,0.175558
1631024015963,-0.549427,0.828624,0.178486
1631024015973,-0.550769,0.8276479999999999,0.182085
1631024015982,-0.55388,0.82716,0.181841
1631024015992,-0.553026,0.8258179999999999,0.183427
1631024016001,-0.554856,0.82472,0.186904
1631024016011,-0.555466,0.826611,0.189832
1631024016021,-0.557052,0.82655,0.192394
1631024016030,-0.557479,0.825452,0.193492
1631024016040,-0.559309,0.823866,0.194651
1631024016049,-0.558638,0.821731,0.194468
1631024016059,-0.559553,0.818986,0.194224
1631024016069,-0.560895,0.815692,0.194712
1631024016078,-0.561871,0.815021,0.194041
1631024016088,-0.5632739999999999,0.815082,0.192028
1631024016097,-0.564616,0.813191,0.187758
1631024016107,-0.5666289999999999,0.813313,0.185562
1631024016117,-0.567788,0.809592,0.183732
1631024016126,-0.568276,0.805993,0.182939
1631024016136,-0.568947,0.802821,0.18239
1631024016145,-0.570045,0.800137,0.181719
1631024016155,-0.570838,0.798978,0.180316
1631024016165,-0.572607,0.797148,0.17873
1631024016174,-0.575718,0.795257,0.176046
1631024016184,-0.577121,0.793549,0.17324
1631024016193,-0.578158,0.791963,0.172508
1631024016203,-0.579622,0.788791,0.171959
1631024016213,-0.57889,0.787998,0.17147099999999998
1631024016222,-0.581818,0.787022,0.172142
1631024016232,-0.579317,0.786961,0.17330099999999998
1631024016241,-0.583282,0.785253,0.174155
1631024016251,-0.581208,0.785192,0.174033
1631024016261,-0.582062,0.7841549999999999,0.174826
1631024016270,-0.582794,0.785558,0.172813
1631024016280,-0.583282,0.786656,0.174094
1631024016289,-0.582184,0.7865949999999999,0.175009
1631024016299,-0.580354,0.7872049999999999,0.176778
1631024016309,-0.582611,0.787632,0.17873
1631024016318,-0.583282,0.7856799999999999,0.182634
1631024016328,-0.585661,0.782691,0.183
1631024016337,-0.5900529999999999,0.7826299999999999,0.183
1631024016347,-0.5931029999999999,0.7814099999999999,0.184891
1631024016357,-0.59414,0.7801899999999999,0.184464
1631024016366,-0.596214,0.778421,0.182207
1631024016376,-0.596824,0.779336,0.179828
1631024016385,-0.598959,0.779031,0.17507
1631024016395,-0.600484,0.7835449999999999,0.171715
1631024016405,-0.60085,0.784216,0.170068
1631024016414,-0.600789,0.778482,0.176473
1631024016424,-0.601033,0.771711,0.182329
1631024016433,-0.603046,0.768539,0.184891
1631024016443,-0.602375,0.769088,0.185135
1631024016453,-0.602558,0.772199,0.180682
1631024016462,-0.604327,0.774517,0.175497
1631024016472,-0.605303,0.772687,0.172935
1631024016481,-0.60573,0.768539,0.170739
1631024016491,-0.605486,0.767502,0.167018
1631024016501,-0.605242,0.766648,0.16530999999999998
1631024016510,-0.603412,0.7674409999999999,0.163663
1631024016520,-0.603046,0.768722,0.16287
1631024016529,-0.603046,0.773175,0.163358
1631024016539,-0.60268,0.776713,0.163785
1631024016549,-0.601277,0.778421,0.165127
1631024016558,-0.599874,0.781044,0.168055
1631024016568,-0.598959,0.783667,0.169092
1631024016577,-0.597617,0.7841549999999999,0.1708
1631024016587,-0.594994,0.783606,0.172508
1631024016597,-0.594262,0.783911,0.17330099999999998
1631024016606,-0.594445,0.785009,0.17385
1631024016616,-0.594445,0.785131,0.173484
1631024016625,-0.593347,0.784521,0.176351
1631024016635,-0.595299,0.784582,0.17812
1631024016645,-0.596336,0.788608,0.176229
1631024016654,-0.598349,0.789218,0.175619
1631024016664,-0.600789,0.789157,0.17629
1631024016673,-0.601216,0.787754,0.177205
1631024016683,-0.602619,0.785192,0.176473
1631024016693,-0.604144,0.785131,0.174948
1631024016702,-0.605425,0.7841549999999999,0.174277
1631024016712,-0.60695,0.781349,0.173545
1631024016721,-0.608963,0.778848,0.172203
1631024016731,-0.611281,0.778299,0.169275
1631024016741,-0.611159,0.778909,0.169153
1631024016750,-0.610915,0.776042,0.168055
1631024016760,-0.610366,0.776164,0.165432
1631024016769,-0.610854,0.777384,0.162138
1631024016779,-0.6095119999999999,0.777567,0.15982
1631024016789,-0.610244,0.777506,0.157868
1631024016798,-0.610366,0.777811,0.155916
1631024016808,-0.609695,0.779031,0.154879
1631024016817,-0.609268,0.7792749999999999,0.155794
1631024016827,-0.606218,0.780129,0.156343
1631024016837,-0.60512,0.779946,0.155794
1631024016846,-0.602741,0.780007,0.155062
1631024016856,-0.603168,0.781471,0.154452
1631024016865,-0.60268,0.783667,0.150365
1631024016875,-0.602314,0.785558,0.150304
1631024016885,-0.602619,0.7856799999999999,0.14926699999999998
1631024016894,-0.601338,0.786168,0.14762
1631024016904,-0.601155,0.784887,0.145851
1631024016913,-0.599752,0.783057,0.144387
1631024016923,-0.599752,0.782142,0.142374
1631024016933,-0.597922,0.779031,0.141703
1631024016942,-0.597922,0.775798,0.14066599999999999
1631024016952,-0.597129,0.774517,0.141215
1631024016961,-0.5978,0.771162,0.14091
1631024016971,-0.597129,0.767868,0.140849
1631024016981,-0.600545,0.7662209999999999,0.138287
1631024016990,-0.603839,0.765428,0.13572499999999998
1631024017000,-0.60573,0.762744,0.13298
1631024017009,-0.610061,0.760243,0.130723
1631024017019,-0.615063,0.758535,0.129625
1631024017029,-0.617503,0.757803,0.127734
1631024017038,-0.6195769999999999,0.755058,0.128039
1631024017048,-0.622017,0.753533,0.126148
1631024017057,-0.627446,0.755424,0.11962099999999999
1631024017067,-0.631106,0.757498,0.116205
1631024017077,-0.635132,0.755912,0.121146
1631024017086,-0.6378159999999999,0.752557,0.129442
1631024017096,-0.640012,0.753899,0.134688
1631024017105,-0.64233,0.7561559999999999,0.135786
1631024017115,-0.644038,0.7585959999999999,0.135664
1631024017125,-0.646356,0.762744,0.134566
1631024017134,-0.648674,0.76494,0.132248
1631024017144,-0.648308,0.765672,0.132614
1631024017153,-0.646905,0.762988,0.133285
1631024017163,-0.6451359999999999,0.760609,0.13176
1631024017173,-0.644343,0.758718,0.13078399999999998
1631024017182,-0.643184,0.757193,0.129198
1631024017192,-0.642269,0.755058,0.12749
1631024017201,-0.640683,0.7540209999999999,0.126575
1631024017211,-0.640927,0.755302,0.12566
1631024017221,-0.640195,0.754997,0.126026
1631024017230,-0.6390359999999999,0.755119,0.124135
1631024017240,-0.640988,0.756034,0.122366
1631024017249,-0.640378,0.756217,0.120048
1631024017259,-0.6411709999999999,0.75335,0.11895
1631024017269,-0.64111,0.750605,0.11809599999999999
1631024017278,-0.642025,0.749324,0.118828
1631024017288,-0.641903,0.748714,0.11809599999999999
1631024017297,-0.6420859999999999,0.748897,0.11577799999999999
1631024017307,-0.643184,0.7515809999999999,0.113643
1631024017317,-0.642879,0.751825,0.112606
1631024017326,-0.643794,0.749263,0.11345999999999999
1631024017336,-0.6426959999999999,0.750056,0.114192
1631024017345,-0.6439159999999999,0.751032,0.112972
1631024017355,-0.642574,0.752862,0.110654
1631024017365,-0.640988,0.753167,0.109129
1631024017374,-0.639463,0.7521909999999999,0.110593
1631024017384,-0.638914,0.7515809999999999,0.111203
1631024017393,-0.638365,0.752252,0.111813
1631024017403,-0.6378159999999999,0.753655,0.112118
1631024017413,-0.63745,0.754448,0.112301
1631024017422,-0.637145,0.754997,0.11284999999999999
1631024017432,-0.636413,0.7540209999999999,0.11315499999999999
1631024017441,-0.634827,0.7531059999999999,0.113948
1631024017451,-0.6344609999999999,0.753045,0.113948
1631024017461,-0.634217,0.754509,0.114314
1631024017470,-0.6350709999999999,0.75518,0.114314
1631024017480,-0.635498,0.755058,0.114253
1631024017489,-0.635254,0.7546309999999999,0.11577799999999999
1631024017499,-0.636169,0.7534109999999999,0.116754
1631024017509,-0.6372059999999999,0.75457,0.116876
1631024017518,-0.6372059999999999,0.7546309999999999,0.117364
1631024017528,-0.639402,0.7552409999999999,0.11712
1631024017537,-0.640927,0.7567659999999999,0.115046
1631024017547,-0.641537,0.755302,0.115595
1631024017557,-0.642208,0.752862,0.114009
1631024017566,-0.643489,0.750544,0.114009
1631024017576,-0.644099,0.75091,0.113826
1631024017585,-0.645258,0.7512759999999999,0.113582
1631024017595,-0.6457459999999999,0.751642,0.113338
1631024017605,-0.6457459999999999,0.751642,0.113826
1631024017614,-0.647027,0.7515809999999999,0.114375
1631024017624,-0.646844,0.751703,0.115839
1631024017633,-0.647576,0.752069,0.115046
1631024017643,-0.648491,0.752008,0.113643
1631024017653,-0.648552,0.751764,0.112423
1631024017662,-0.647576,0.7528009999999999,0.112057
1631024017672,-0.64782,0.75457,0.108702
1631024017681,-0.647698,0.757925,0.102724
1631024017691,-0.645929,0.75945,0.10144299999999999
1631024017701,-0.646112,0.759084,0.10248
1631024017710,-0.643855,0.755668,0.10699399999999999
1631024017720,-0.642818,0.75213,0.110349
1631024017729,-0.640988,0.7518859999999999,0.11053199999999999
1631024017739,-0.6399509999999999,0.756278,0.110776
1631024017749,-0.641049,0.762012,0.108458
1631024017758,-0.639829,0.764513,0.10760399999999999
1631024017768,-0.640622,0.765428,0.107116
1631024017777,-0.6390359999999999,0.764452,0.105713
1631024017787,-0.637755,0.762012,0.105286
1631024017797,-0.637023,0.761768,0.102968
1631024017806,-0.636718,0.762622,0.101504
1631024017816,-0.635498,0.763598,0.102541
1631024017825,-0.63562,0.762805,0.101626
1631024017835,-0.634217,0.762439,0.100894
1631024017845,-0.632082,0.7610359999999999,0.102541
1631024017854,-0.631777,0.7601209999999999,0.103273
1631024017864,-0.630618,0.758718,0.10248
1631024017873,-0.630862,0.756705,0.100406
1631024017883,-0.630008,0.7546309999999999,0.099796
1631024017893,-0.63013,0.7521909999999999,0.09851499999999999
1631024017902,-0.629886,0.750361,0.097722
1631024017912,-0.630618,0.748226,0.098271
1631024017921,-0.629886,0.747128,0.098759
1631024017931,-0.6320209999999999,0.74969,0.097478
1631024017941,-0.633424,0.749629,0.097173
1631024017950,-0.634888,0.749141,0.098454
1631024017960,-0.637572,0.749873,0.099552
1631024017969,-0.6405609999999999,0.75091,0.099186
1631024017979,-0.6433059999999999,0.753899,0.100345
1631024017989,-0.645258,0.758169,0.100345
1631024017998,-0.646722,0.759999,0.10113799999999999
1631024018008,-0.6466,0.760304,0.102541
1631024018017,-0.64782,0.7582909999999999,0.10345599999999999
1631024018027,-0.647637,0.7567659999999999,0.105164
1631024018037,-0.647881,0.7564,0.10577399999999999
1631024018046,-0.647088,0.755668,0.106201
1631024018056,-0.647759,0.7552409999999999,0.105286
1631024018065,-0.646966,0.7543259999999999,0.103944
1631024018075,-0.64721,0.75457,0.102663
1631024018085,-0.646844,0.75579,0.101504
1631024018094,-0.64538,0.7558509999999999,0.101199
1631024018104,-0.645502,0.755668,0.101626
1631024018113,-0.643855,0.753838,0.101382
1631024018123,-0.641903,0.752862,0.10126
1631024018133,-0.641354,0.751154,0.10144299999999999
1631024018142,-0.641842,0.752252,0.09943
1631024018152,-0.643428,0.752862,0.098576
1631024018161,-0.6439159999999999,0.75396,0.097478
1631024018171,-0.6442209999999999,0.754082,0.094428
1631024018181,-0.645075,0.753655,0.093635
1631024018190,-0.644343,0.7524959999999999,0.093086
1631024018200,-0.645197,0.751703,0.092903
1631024018209,-0.642452,0.750605,0.091866
1631024018219,-0.640744,0.75152,0.093025
1631024018229,-0.639158,0.752618,0.09516
1631024018238,-0.639097,0.7534109999999999,0.09729499999999999
1631024018248,-0.639158,0.755424,0.099003
1631024018257,-0.638975,0.755363,0.100162
1631024018267,-0.6405,0.7552409999999999,0.10144299999999999
1631024018277,-0.641537,0.756339,0.101626
1631024018286,-0.642269,0.75762,0.099491
1631024018296,-0.643489,0.758962,0.097783
1631024018305,-0.643672,0.759084,0.097356
1631024018315,-0.642879,0.75945,0.093818
1631024018325,-0.642757,0.7622559999999999,0.089975
1631024018334,-0.641964,0.763537,0.090951
1631024018344,-0.642452,0.75945,0.095221
1631024018353,-0.64111,0.755607,0.10022299999999999
1631024018363,-0.642574,0.750605,0.101565
1631024018373,-0.64355,0.752923,0.100406
1631024018382,-0.64294,0.756339,0.099552
1631024018392,-0.643184,0.75823,0.095953
1631024018401,-0.644282,0.7598159999999999,0.096258
1631024018411,-0.644404,0.758657,0.095709
1631024018421,-0.643184,0.757742,0.097234
1631024018430,-0.643367,0.756522,0.09698999999999999
1631024018440,-0.642879,0.757437,0.098149
1631024018449,-0.6414759999999999,0.759877,0.09943
1631024018459,-0.641232,0.760365,0.10052799999999999
1631024018469,-0.641232,0.7607309999999999,0.100772
1631024018478,-0.640439,0.759999,0.101565
1631024018488,-0.639524,0.7601209999999999,0.10187
1631024018497,-0.639402,0.7610359999999999,0.101565
1631024018507,-0.6384259999999999,0.760609,0.100894
1631024018517,-0.637755,0.7607309999999999,0.100162
1631024018526,-0.636047,0.758962,0.100162
1631024018536,-0.637572,0.7585959999999999,0.10052799999999999
1631024018545,-0.6372059999999999,0.758474,0.100589
1631024018555,-0.63501,0.758962,0.101321
1631024018565,-0.634583,0.7592059999999999,0.101077
1631024018574,-0.634339,0.760975,0.098454
1631024018584,-0.634217,0.7604259999999999,0.097539
1631024018593,-0.634827,0.758962,0.096258
1631024018603,-0.635559,0.758718,0.096014
1631024018613,-0.63684,0.7576809999999999,0.096136
1631024018622,-0.6381209999999999,0.7582909999999999,0.094916
1631024018632,-0.6378159999999999,0.758718,0.09455
1631024018641,-0.637938,0.759877,0.094733
1631024018651,-0.6384259999999999,0.758962,0.096197
1631024018661,-0.638182,0.759877,0.097051
1631024018670,-0.638548,0.760243,0.098454
1631024018680,-0.638975,0.759572,0.098149
1631024018689,-0.63867,0.7592059999999999,0.098393
1631024018699,-0.637877,0.7598159999999999,0.096746
1631024018709,-0.637877,0.7604259999999999,0.096258
1631024018718,-0.6384259999999999,0.759877,0.094855
1631024018728,-0.6378159999999999,0.759938,0.095465
1631024018737,-0.637328,0.760243,0.096746
1631024018747,-0.637694,0.760975,0.097112
1631024018757,-0.638914,0.761585,0.097356
1631024018766,-0.638853,0.760609,0.097539
1631024018776,-0.637023,0.760182,0.099308
1631024018785,-0.637328,0.7607309999999999,0.099552
1631024018795,-0.637938,0.761768,0.099064
1631024018805,-0.638792,0.763293,0.099003
1631024018814,-0.640622,0.764635,0.098027
1631024018824,-0.640927,0.763598,0.098149
1631024018833,-0.6396459999999999,0.7622559999999999,0.09943
1631024018843,-0.640134,0.7601209999999999,0.099674
1631024018853,-0.6414759999999999,0.761463,0.098332
1631024018862,-0.640744,0.760792,0.099613
1631024018872,-0.64111,0.758474,0.099003
1631024018881,-0.64172,0.7573759999999999,0.099308
1631024018891,-0.640805,0.754997,0.098332
1631024018901,-0.6405,0.755058,0.09558699999999999
1631024018910,-0.63989,0.7564,0.093574
1631024018920,-0.640744,0.757193,0.090951
1631024018929,-0.6405609999999999,0.756705,0.092476
1631024018939,-0.641598,0.753594,0.093696
1631024018949,-0.642269,0.7521909999999999,0.093696
1631024018958,-0.642025,0.7518859999999999,0.09235399999999999
1631024018968,-0.64111,0.753045,0.091622
1631024018977,-0.640134,0.7549359999999999,0.08820599999999999
1631024018987,-0.6405609999999999,0.757559,0.086132
1631024018997,-0.638914,0.756583,0.084119
1631024019006,-0.6390359999999999,0.759084,0.07625
1631024019016,-0.636108,0.760975,0.074542
1631024019025,-0.635254,0.758169,0.080215
1631024019035,-0.634339,0.756034,0.088023
1631024019045,-0.633485,0.7555459999999999,0.093635
1631024019054,-0.633668,0.757864,0.095648
1631024019064,-0.633485,0.76189,0.096746
1631024019073,-0.634339,0.765855,0.096746
1631024019083,-0.6344609999999999,0.768539,0.098271
1631024019093,-0.6338509999999999,0.767197,0.099003
1631024019102,-0.633058,0.76555,0.100467
1631024019112,-0.6320209999999999,0.764452,0.099186
1631024019121,-0.6335459999999999,0.763598,0.098881
1631024019131,-0.633729,0.764757,0.098271
1631024019141,-0.6344,0.765428,0.098698
1631024019150,-0.635498,0.766099,0.099247
1631024019160,-0.635925,0.765672,0.10052799999999999
1631024019169,-0.6365959999999999,0.764818,0.10083299999999999
1631024019179,-0.636352,0.763415,0.10205299999999999
1631024019189,-0.636779,0.761158,0.10083299999999999
1631024019198,-0.637084,0.760975,0.098454
1631024019208,-0.637877,0.760243,0.096197
1631024019217,-0.63806,0.760487,0.095526
1631024019227,-0.63989,0.760792,0.095343
1631024019237,-0.6420859999999999,0.76006,0.09497699999999999
1631024019246,-0.638792,0.75884,0.094001
1631024019256,-0.6393409999999999,0.759267,0.09235399999999999
1631024019265,-0.63806,0.7585959999999999,0.09113399999999999
1631024019275,-0.636657,0.757925,0.090341
1631024019285,-0.636718,0.75762,0.092781
1631024019294,-0.635559,0.758962,0.094794
1631024019304,-0.6344609999999999,0.759572,0.095343
1631024019313,-0.633302,0.762683,0.09638
1631024019323,-0.630984,0.7650009999999999,0.09851499999999999
1631024019333,-0.630801,0.767258,0.10065
1631024019342,-0.631838,0.76738,0.10113799999999999
1631024019352,-0.631045,0.76799,0.101504
1631024019361,-0.630618,0.7671359999999999,0.101077
1631024019371,-0.629093,0.7665259999999999,0.10248
1631024019381,-0.627873,0.76677,0.102663
1631024019390,-0.628239,0.767319,0.102724
1631024019400,-0.627873,0.768966,0.102175
1631024019409,-0.627812,0.770125,0.10205299999999999
1631024019419,-0.628117,0.770674,0.102175
1631024019429,-0.629703,0.771833,0.101565
1631024019438,-0.630069,0.77165,0.101809
1631024019448,-0.628422,0.770369,0.100894
1631024019457,-0.627995,0.766709,0.10083299999999999
1631024019467,-0.627934,0.766282,0.101321
1631024019477,-0.62769,0.766099,0.101504
1631024019486,-0.626836,0.766404,0.10174799999999999
1631024019496,-0.626958,0.766038,0.101626
1631024019505,-0.625677,0.765489,0.100284
1631024019515,-0.625921,0.763964,0.099796
1631024019525,-0.626531,0.763293,0.098149
1631024019534,-0.627141,0.76494,0.097722
1631024019544,-0.626592,0.764208,0.097966
1631024019553,-0.626653,0.762622,0.097661
1631024019563,-0.625616,0.761768,0.099857
1631024019573,-0.625372,0.76311,0.09991799999999999
1631024019582,-0.62525,0.766038,0.099552
1631024019592,-0.627263,0.769149,0.100162
1631024019601,-0.627934,0.770613,0.101565
1631024019611,-0.628666,0.771101,0.102663
1631024019621,-0.628849,0.771223,0.10406599999999999
1631024019630,-0.629642,0.772382,0.104554
1631024019640,-0.628788,0.773724,0.105835
1631024019649,-0.628361,0.774029,0.106262
1631024019659,-0.628239,0.774212,0.106567
1631024019669,-0.629276,0.776347,0.10553
1631024019678,-0.630008,0.778116,0.10004
1631024019688,-0.630557,0.780007,0.09790499999999999
1631024019697,-0.630008,0.780373,0.098881
1631024019707,-0.627995,0.773968,0.10406599999999999
1631024019717,-0.625982,0.767624,0.108946
1631024019726,-0.624213,0.764757,0.11254499999999999
1631024019736,-0.623664,0.7665259999999999,0.112423
1631024019745,-0.623054,0.768173,0.111569
1631024019755,-0.622505,0.769454,0.109129
1631024019765,-0.622932,0.7671359999999999,0.106323
1631024019774,-0.622444,0.763903,0.104432
1631024019784,-0.624152,0.761097,0.10248
1631024019793,-0.625921,0.7613409999999999,0.10004
1631024019803,-0.628056,0.762683,0.100162
1631024019813,-0.62952,0.764025,0.10022299999999999
1631024019822,-0.630496,0.765062,0.10004
1631024019832,-0.631899,0.766282,0.101931
1631024019841,-0.6335459999999999,0.7659159999999999,0.10309
1631024019851,-0.635742,0.7686,0.10174799999999999
1631024019861,-0.637755,0.771772,0.099369
1631024019870,-0.63928,0.775432,0.098698
1631024019880,-0.640988,0.7765299999999999,0.097173
1631024019889,-0.6423909999999999,0.777872,0.097783
1631024019899,-0.642757,0.778848,0.097661
1631024019909,-0.643977,0.780312,0.097539
1631024019918,-0.642208,0.7804949999999999,0.096929
1631024019928,-0.640744,0.780861,0.093696
1631024019937,-0.640683,0.782691,0.089487
1631024019947,-0.639829,0.7832399999999999,0.087474
1631024019957,-0.637084,0.779824,0.085644
1631024019966,-0.634339,0.776469,0.085705
1631024019976,-0.632753,0.772199,0.084668
1631024019985,-0.630557,0.77104,0.082167
1631024019995,-0.627995,0.768844,0.079788
1631024020005,-0.626409,0.765489,0.076921
1631024020014,-0.624945,0.7616459999999999,0.076433
1631024020024,-0.622566,0.757254,0.074298
1631024020033,-0.621346,0.75213,0.072956
1631024020043,-0.619821,0.7506659999999999,0.071858
1631024020053,-0.62098,0.748531,0.07076
1631024020062,-0.621956,0.748226,0.069113
1631024020072,-0.623176,0.747982,0.066246
1631024020081,-0.625677,0.747799,0.06649
1631024020091,-0.627202,0.745786,0.065636
1631024020101,-0.628178,0.746335,0.066429
1631024020110,-0.628788,0.746579,0.067222
1631024020120,-0.630862,0.746762,0.068564
1631024020129,-0.6323259999999999,0.748226,0.070516
1631024020139,-0.633729,0.748653,0.071126
1631024020149,-0.6350709999999999,0.749873,0.072895
1631024020158,-0.637389,0.7518859999999999,0.07259
1631024020168,-0.640378,0.752923,0.072163
1631024020177,-0.641842,0.755973,0.072834
1631024020187,-0.643367,0.75701,0.072468
1631024020197,-0.643489,0.757925,0.072163
1631024020206,-0.64355,0.757803,0.073078
1631024020216,-0.645502,0.75945,0.072651
1631024020225,-0.645563,0.762378,0.074603
1631024020235,-0.646539,0.763232,0.074664
1631024020245,-0.647698,0.7643909999999999,0.075091
1631024020254,-0.647332,0.763232,0.077714
1631024020264,-0.646356,0.763842,0.078507
1631024020273,-0.645258,0.76433,0.078324
1631024020283,-0.643123,0.764208,0.077348
1631024020293,-0.644099,0.765062,0.078995
1631024020302,-0.6439159999999999,0.767075,0.080825
1631024020312,-0.6442209999999999,0.76616,0.082106
1631024020321,-0.643428,0.766099,0.084119
1631024020331,-0.643245,0.765428,0.084485
1631024020341,-0.643489,0.76677,0.085766
1631024020350,-0.642208,0.767319,0.08601
1631024020360,-0.643855,0.769637,0.084912
1631024020369,-0.64416,0.770369,0.08326499999999999
1631024020379,-0.64416,0.77104,0.078507
1631024020389,-0.6439159999999999,0.771955,0.073078
1631024020398,-0.641354,0.768722,0.07259
1631024020408,-0.641232,0.7622559999999999,0.075396
1631024020417,-0.638487,0.756034,0.078324
1631024020427,-0.6396459999999999,0.752069,0.078812
1631024020437,-0.639463,0.753228,0.07625
1631024020446,-0.63867,0.756034,0.07387099999999999
1631024020456,-0.638548,0.75518,0.07124799999999999
1631024020465,-0.637633,0.752557,0.071004
1631024020475,-0.637145,0.747616,0.070394
1631024020485,-0.635559,0.743956,0.07063799999999999
1631024020494,-0.634705,0.742126,0.071065
1631024020504,-0.63623,0.743224,0.072102
1631024020513,-0.636962,0.744932,0.073688
1631024020523,-0.637633,0.745542,0.075396
1631024020533,-0.639524,0.748104,0.07747
1631024020542,-0.640134,0.750422,0.079483
1631024020552,-0.641964,0.752435,0.08234999999999999
1631024020561,-0.6454409999999999,0.755363,0.084912
1631024020571,-0.646966,0.758047,0.08649799999999999
1631024020581,-0.648369,0.7582909999999999,0.089365
1631024020590,-0.650382,0.759328,0.08942599999999999
1631024020600,-0.652151,0.7616459999999999,0.091195
1631024020609,-0.652639,0.762622,0.092537
1631024020619,-0.654408,0.762012,0.093757
1631024020629,-0.653371,0.761402,0.092537
1631024020638,-0.655323,0.762378,0.089792
1631024020648,-0.6554449999999999,0.763903,0.087962
1631024020657,-0.655506,0.762195,0.08588799999999999
1631024020667,-0.655506,0.759633,0.086376
1631024020677,-0.653127,0.757803,0.085766
1631024020686,-0.653066,0.757498,0.085095
1631024020696,-0.651175,0.757315,0.083509
1631024020705,-0.650016,0.7567659999999999,0.08234999999999999
1631024020715,-0.648064,0.754265,0.082594
1631024020725,-0.647271,0.752679,0.083875
1631024020734,-0.645807,0.751398,0.083997
1631024020744,-0.643367,0.7506659999999999,0.08295999999999999
1631024020753,-0.643855,0.748958,0.081862
1631024020763,-0.64355,0.749751,0.081435
1631024020773,-0.642574,0.74969,0.080886
1631024020782,-0.64233,0.750727,0.080764
1631024020792,-0.641659,0.749324,0.082411
1631024020801,-0.6408659999999999,0.749629,0.083082
1631024020811,-0.641293,0.750483,0.084424
1631024020821,-0.641903,0.751398,0.08418
1631024020830,-0.642757,0.7524959999999999,0.0854
1631024020840,-0.6423909999999999,0.753045,0.088023
1631024020849,-0.644038,0.7534109999999999,0.088572
1631024020859,-0.645563,0.754692,0.08680299999999999
1631024020869,-0.646234,0.753899,0.086559
1631024020878,-0.647515,0.753838,0.084668
1631024020888,-0.647454,0.753655,0.083997
1631024020897,-0.649101,0.752984,0.085522
1631024020907,-0.649284,0.753289,0.0854
1631024020917,-0.649406,0.7524959999999999,0.083631
1631024020926,-0.649528,0.754143,0.083448
1631024020936,-0.648491,0.754265,0.084058
1631024020945,-0.649284,0.753899,0.083082
1631024020955,-0.650382,0.7552409999999999,0.083082
1631024020965,-0.649589,0.75518,0.083753
1631024020974,-0.649528,0.75457,0.085095
1631024020984,-0.649284,0.7546309999999999,0.083936
1631024020993,-0.648796,0.754753,0.085095
1631024021003,-0.647698,0.756522,0.08527799999999999
1631024021013,-0.647637,0.757315,0.0854
1631024021022,-0.647698,0.756705,0.086559
1631024021032,-0.647271,0.755424,0.087535
1631024021041,-0.646722,0.755119,0.086864
1631024021051,-0.644587,0.756034,0.085949
1631024021061,-0.643794,0.757315,0.086254
1631024021070,-0.643489,0.757315,0.08601
1631024021080,-0.644282,0.756705,0.086132
1631024021089,-0.64355,0.7555459999999999,0.087718
1631024021099,-0.6439159999999999,0.754082,0.08649799999999999
1631024021109,-0.644404,0.754753,0.084668
1631024021118,-0.644282,0.7573759999999999,0.084119
1631024021128,-0.644038,0.758108,0.082228
1631024021137,-0.6439159999999999,0.7595109999999999,0.080947
1631024021147,-0.641842,0.75762,0.079666
1631024021157,-0.64294,0.758169,0.070211
1631024021166,-0.641598,0.759694,0.068747
1631024021176,-0.640622,0.756644,0.072773
1631024021185,-0.640378,0.7518859999999999,0.078446
1631024021195,-0.640683,0.751459,0.080154
1631024021205,-0.639707,0.755119,0.079666
1631024021214,-0.6405,0.759694,0.079605
1631024021224,-0.6399509999999999,0.762195,0.07942199999999999
1631024021233,-0.640988,0.761402,0.078507
1631024021243,-0.639463,0.76067,0.078141
1631024021253,-0.639768,0.75945,0.078568
1631024021262,-0.638853,0.757559,0.078141
1631024021272,-0.639768,0.7576809999999999,0.077348
1631024021281,-0.639097,0.759145,0.07740899999999999
1631024021291,-0.638914,0.760182,0.079483
1631024021301,-0.640073,0.760487,0.08003199999999999
1631024021310,-0.639707,0.7613409999999999,0.081374
1631024021320,-0.639585,0.760853,0.081008
1631024021329,-0.63928,0.7616459999999999,0.080764
1631024021339,-0.640073,0.759999,0.08064199999999999
1631024021349,-0.640622,0.760243,0.080764
1631024021358,-0.640622,0.760975,0.08033699999999999
1631024021368,-0.637938,0.760609,0.077836
1631024021377,-0.6454409999999999,0.757742,0.079544
1631024021387,-0.6439159999999999,0.7589009999999999,0.07808
1631024021397,-0.640378,0.7567659999999999,0.07625
1631024021406,-0.645319,0.75823,0.074725
1631024021416,-0.643184,0.758962,0.071797
1631024021425,-0.64599,0.756949,0.07002799999999999
1631024021435,-0.6448309999999999,0.753594,0.072407
1631024021445,-0.646234,0.7528009999999999,0.073139
1631024021454,-0.643672,0.752923,0.071736
1631024021464,-0.644038,0.75518,0.071004
1631024021473,-0.643489,0.756217,0.069906
1631024021483,-0.6433059999999999,0.7555459999999999,0.071309
1631024021493,-0.6420859999999999,0.7537159999999999,0.07259
1631024021502,-0.641537,0.751093,0.072895
1631024021512,-0.6402559999999999,0.752069,0.073627
1631024021521,-0.6396459999999999,0.751154,0.074115
1631024021531,-0.639158,0.7518859999999999,0.075518
1631024021541,-0.638792,0.752374,0.076067
1631024021550,-0.639158,0.753472,0.076433
1631024021560,-0.640134,0.754143,0.077714
1631024021569,-0.63989,0.755607,0.07740899999999999
1631024021579,-0.641232,0.757742,0.077958
1631024021589,-0.642757,0.759023,0.079178
1631024021598,-0.6423909999999999,0.759877,0.08003199999999999
1631024021608,-0.6433059999999999,0.759389,0.081801
1631024021617,-0.643245,0.75884,0.082533
1631024021627,-0.64294,0.759084,0.08418
1631024021637,-0.641964,0.759389,0.0854
1631024021646,-0.642879,0.759938,0.085827
1631024021656,-0.6423909999999999,0.761158,0.086254
1631024021665,-0.643367,0.759999,0.086376
1631024021675,-0.6439159999999999,0.76128,0.087047
1631024021685,-0.643672,0.7610359999999999,0.08588799999999999
1631024021694,-0.644343,0.760182,0.08662
1631024021704,-0.643794,0.76006,0.086864
1631024021713,-0.644038,0.759572,0.086742
1631024021723,-0.6433059999999999,0.759145,0.087596
1631024021733,-0.6439159999999999,0.75762,0.08649799999999999
1631024021742,-0.643062,0.756278,0.086681
1631024021752,-0.643855,0.756095,0.08619299999999999
1631024021761,-0.644587,0.756095,0.08601
1631024021771,-0.643184,0.75518,0.084607
1631024021781,-0.644099,0.75579,0.0854
1631024021790,-0.643489,0.755729,0.086925
1631024021800,-0.646295,0.755607,0.088938
1631024021809,-0.64782,0.75579,0.088267
1631024021819,-0.647759,0.7555459999999999,0.087047
1631024021829,-0.648125,0.755729,0.08680299999999999
1631024021838,-0.647088,0.75579,0.08558299999999999
1631024021848,-0.647698,0.755668,0.08558299999999999
1631024021857,-0.647332,0.756949,0.083204
1631024021867,-0.647393,0.7582909999999999,0.078263
1631024021877,-0.646722,0.7604259999999999,0.074908
1631024021886,-0.64538,0.759023,0.076311
1631024021896,-0.644465,0.754753,0.080581
1631024021905,-0.642147,0.7524959999999999,0.08558299999999999
1631024021915,-0.641293,0.7524959999999999,0.086986
1631024021925,-0.640927,0.754997,0.086437
1631024021934,-0.640378,0.757498,0.084912
1631024021944,-0.641659,0.7595109999999999,0.083814
1631024021953,-0.6408659999999999,0.759999,0.083204
1631024021963,-0.640317,0.75884,0.082472
1631024021973,-0.639829,0.758047,0.082594
1631024021982,-0.63989,0.757437,0.082777
1631024021992,-0.639219,0.759572,0.08356999999999999
1631024022001,-0.6387309999999999,0.760548,0.085034
1631024022011,-0.6387309999999999,0.760853,0.086925
1631024022021,-0.638914,0.7610359999999999,0.087718
1631024022030,-0.638304,0.7613409999999999,0.08820599999999999
1631024022040,-0.63867,0.761829,0.087962
1631024022049,-0.639463,0.761097,0.087108
1631024022059,-0.640744,0.762317,0.085644
1631024022069,-0.6414759999999999,0.7616459999999999,0.085034
1631024022078,-0.6420859999999999,0.759999,0.084912
1631024022088,-0.641598,0.759023,0.085217
1631024022097,-0.6417809999999999,0.75823,0.08558299999999999
1631024022107,-0.6423909999999999,0.756095,0.085522
1631024022117,-0.640927,0.755607,0.08497299999999999
1631024022126,-0.6420859999999999,0.7567659999999999,0.081618
1631024022136,-0.6426959999999999,0.757864,0.079971
1631024022145,-0.642513,0.7552409999999999,0.078446
1631024022155,-0.643062,0.753655,0.079483
1631024022165,-0.64233,0.751154,0.079971
1631024022174,-0.642574,0.752313,0.080398
1631024022184,-0.642208,0.7546309999999999,0.079971
1631024022193,-0.642818,0.7561559999999999,0.080886
1631024022203,-0.6423909999999999,0.7561559999999999,0.081069
1631024022213,-0.6426959999999999,0.756827,0.081435
1631024022222,-0.641598,0.7567659999999999,0.082289
1631024022232,-0.6420859999999999,0.7573759999999999,0.082777
1631024022241,-0.641903,0.7579859999999999,0.083387
1631024022251,-0.64172,0.75823,0.083448
1631024022261,-0.6417809999999999,0.7582909999999999,0.084058
1631024022270,-0.640439,0.757132,0.0854
1631024022280,-0.639402,0.7576809999999999,0.086986
1631024022289,-0.641293,0.759755,0.086559
1631024022299,-0.64355,0.762439,0.085827
1631024022309,-0.64477,0.763964,0.086071
1631024022318,-0.644404,0.7634759999999999,0.086315
1631024022328,-0.643062,0.761158,0.087535
1631024022337,-0.64355,0.760548,0.086864
1631024022347,-0.643367,0.76006,0.08619299999999999
1631024022357,-0.642635,0.759572,0.085156
1631024022366,-0.6420859999999999,0.760548,0.085339
1631024022376,-0.640317,0.7595109999999999,0.085522
1631024022385,-0.641537,0.758718,0.085644
1631024022395,-0.640988,0.758108,0.086132
1631024022405,-0.6405,0.758047,0.08588799999999999
1631024022414,-0.641232,0.758352,0.08527799999999999
1631024022424,-0.641293,0.7573759999999999,0.085339
1631024022433,-0.640195,0.7564,0.083814
1631024022443,-0.63989,0.755424,0.084363
1631024022453,-0.640378,0.755729,0.083326
1631024022462,-0.640378,0.756888,0.083631
1631024022472,-0.640622,0.7561559999999999,0.083326
1631024022481,-0.6411709999999999,0.7567659999999999,0.083082
1631024022491,-0.640988,0.756888,0.083631
1631024022501,-0.6408659999999999,0.757742,0.082411
1631024022510,-0.6402559999999999,0.756888,0.082289
1631024022520,-0.63989,0.756827,0.082594
1631024022529,-0.6399509999999999,0.757132,0.082472
1631024022539,-0.63806,0.75762,0.083509
1631024022549,-0.6378159999999999,0.758413,0.085827
1631024022558,-0.638243,0.75884,0.087474
1631024022568,-0.637267,0.758779,0.088938
1631024022577,-0.637084,0.759084,0.090951
1631024022587,-0.638548,0.76006,0.090707
1631024022597,-0.637267,0.760792,0.090219
1631024022606,-0.637877,0.760853,0.089853
1631024022616,-0.63867,0.7628659999999999,0.08851099999999999
1631024022625,-0.636962,0.7631709999999999,0.088389
1631024022635,-0.638548,0.7640859999999999,0.084302
1631024022645,-0.6375109999999999,0.767624,0.08052
1631024022654,-0.6378159999999999,0.765855,0.08295999999999999
1631024022664,-0.636535,0.7616459999999999,0.08784
1631024022673,-0.636474,0.758413,0.091378
1631024022683,-0.636169,0.7579859999999999,0.09235399999999999
1631024022693,-0.6359859999999999,0.760365,0.090768
1631024022702,-0.637023,0.763598,0.088145
1631024022712,-0.637145,0.7665259999999999,0.088755
1631024022721,-0.637084,0.766282,0.089365
1631024022731,-0.637267,0.7646959999999999,0.091073
1631024022741,-0.636962,0.763232,0.091073
1631024022750,-0.6381209999999999,0.763537,0.090768
1631024022760,-0.639097,0.765428,0.090036
1631024022769,-0.639829,0.765428,0.090402
1631024022779,-0.639768,0.765062,0.089792
1631024022789,-0.639829,0.765062,0.089792
1631024022798,-0.640012,0.763537,0.089182
1631024022808,-0.640073,0.763049,0.08942599999999999
1631024022817,-0.639463,0.760914,0.08851099999999999
1631024022827,-0.640378,0.7598159999999999,0.087474
1631024022837,-0.63989,0.758779,0.08662
1631024022846,-0.640378,0.758962,0.085522
1631024022856,-0.640927,0.758657,0.086559
1631024022865,-0.640744,0.757498,0.086864
1631024022875,-0.6423909999999999,0.756583,0.086681
1631024022885,-0.640805,0.755485,0.085522
1631024022894,-0.639402,0.755729,0.08204499999999999
1631024022904,-0.640378,0.75701,0.080276
1631024022913,-0.639829,0.756949,0.078507
1631024022923,-0.640012,0.7564,0.080398
1631024022933,-0.638182,0.754204,0.08265499999999999
1631024022942,-0.638487,0.754509,0.084485
1631024022952,-0.637694,0.75701,0.083936
1631024022961,-0.637328,0.759389,0.083143
1631024022971,-0.6365959999999999,0.759999,0.085156
1631024022981,-0.63562,0.759145,0.086376
1631024022990,-0.635498,0.757437,0.087596
1631024023000,-0.635803,0.759267,0.088999
1631024023009,-0.63623,0.76006,0.088755
1631024023019,-0.63562,0.760609,0.08912099999999999
1631024023029,-0.636169,0.76189,0.08845
1631024023038,-0.636535,0.761829,0.088572
1631024023048,-0.636352,0.762378,0.08912099999999999
1631024023057,-0.6356809999999999,0.762439,0.089609
1631024023067,-0.635193,0.762439,0.091073
1631024023077,-0.635498,0.7625,0.090951
1631024023086,-0.636047,0.7637809999999999,0.091073
1631024023096,-0.636169,0.763415,0.091073
1631024023105,-0.636779,0.762744,0.092293
1631024023115,-0.636474,0.7631709999999999,0.09113399999999999
1631024023125,-0.636962,0.764513,0.092415
1631024023134,-0.637938,0.7640859999999999,0.09204899999999999
1631024023144,-0.638182,0.764452,0.091561
1631024023153,-0.638975,0.7650009999999999,0.091988
1631024023163,-0.638548,0.764025,0.092232
1631024023173,-0.63806,0.763537,0.093086
1631024023182,-0.63867,0.763232,0.092842
1631024023192,-0.638609,0.762622,0.092232
1631024023201,-0.63806,0.761829,0.09204899999999999
1631024023211,-0.637084,0.761829,0.090768
1631024023221,-0.637694,0.76067,0.089914
1631024023230,-0.637572,0.759877,0.090402
1631024023240,-0.636962,0.760548,0.089243
1631024023249,-0.63745,0.760243,0.090158
1631024023259,-0.636779,0.7607309999999999,0.091317
1631024023269,-0.637572,0.760914,0.090402
1631024023278,-0.63684,0.762378,0.089243
1631024023288,-0.637389,0.7622559999999999,0.089365
1631024023297,-0.636474,0.7607309999999999,0.090097
1631024023307,-0.637633,0.75945,0.091317
1631024023317,-0.6369009999999999,0.758962,0.091073
1631024023326,-0.6372059999999999,0.760182,0.091012
1631024023336,-0.637389,0.762073,0.090707
1631024023345,-0.637328,0.763964,0.090219
1631024023355,-0.6375109999999999,0.764513,0.092293
1631024023365,-0.638182,0.763049,0.092964
1631024023374,-0.637633,0.762134,0.09333
1631024023384,-0.638365,0.762317,0.094184
1631024023393,-0.638243,0.76372,0.09333
1631024023403,-0.638548,0.764513,0.090524
1631024023413,-0.638548,0.7653059999999999,0.090158
1631024023422,-0.637877,0.7619509999999999,0.087352
1631024023432,-0.63684,0.762195,0.079971
1631024023441,-0.635437,0.7622559999999999,0.08003199999999999
1631024023451,-0.635742,0.760243,0.081374
1631024023461,-0.635925,0.75701,0.087291
1631024023470,-0.6365959999999999,0.7564609999999999,0.090707
1631024023480,-0.636718,0.7595109999999999,0.0915
1631024023489,-0.637023,0.760853,0.090829
1631024023499,-0.6381209999999999,0.7616459999999999,0.088572
1631024023509,-0.639524,0.764818,0.086437
1631024023518,-0.639829,0.762622,0.086376
1631024023528,-0.638487,0.759999,0.085644
1631024023537,-0.63867,0.758108,0.085217
1631024023547,-0.638914,0.758169,0.084912
1631024023557,-0.639402,0.76067,0.084912
1631024023566,-0.639768,0.7619509999999999,0.087474
1631024023576,-0.6396459999999999,0.762073,0.088145
1631024023585,-0.6402559999999999,0.763232,0.08912099999999999
1631024023595,-0.6399509999999999,0.763049,0.08973099999999999
1631024023605,-0.640378,0.762195,0.088633
1631024023614,-0.640805,0.762378,0.088023
1631024023624,-0.640744,0.762012,0.08662
1631024023633,-0.640439,0.760609,0.087169
1631024023643,-0.639158,0.758657,0.08662
1631024023653,-0.6390359999999999,0.75823,0.086132
1631024023662,-0.639524,0.758657,0.08649799999999999
1631024023672,-0.639768,0.7576809999999999,0.087169
1631024023681,-0.638243,0.756034,0.085766
1631024023691,-0.639219,0.758413,0.08234999999999999
1631024023701,-0.640134,0.7589009999999999,0.08113
1631024023710,-0.638914,0.755607,0.081862
1631024023720,-0.640012,0.7531059999999999,0.08479
1631024023729,-0.639402,0.754204,0.084607
1631024023739,-0.639829,0.755912,0.083204
1631024023749,-0.639219,0.75823,0.082228
1631024023758,-0.640439,0.760792,0.08265499999999999
1631024023768,-0.640012,0.7592059999999999,0.083204
1631024023777,-0.6405,0.7585959999999999,0.08326499999999999
1631024023787,-0.63928,0.757559,0.083753
1631024023797,-0.638609,0.756888,0.083143
1631024023806,-0.638548,0.756705,0.082899
1631024023816,-0.638609,0.756522,0.082472
1631024023825,-0.638365,0.7576809999999999,0.083936
1631024023835,-0.6378159999999999,0.75823,0.084729
1631024023845,-0.638548,0.758474,0.086437
1631024023854,-0.638243,0.759389,0.085766
1631024023864,-0.638975,0.7598159999999999,0.08649799999999999
1631024023873,-0.639707,0.76067,0.085766
1631024023883,-0.63989,0.7604259999999999,0.0854
1631024023893,-0.639768,0.760792,0.08601
1631024023902,-0.6381209999999999,0.760609,0.087962
1631024023912,-0.638975,0.759877,0.089487
1631024023921,-0.638914,0.759938,0.088938
1631024023931,-0.639097,0.760365,0.08820599999999999
1631024023941,-0.639219,0.7598159999999999,0.088328
1631024023950,-0.639829,0.759145,0.08784
1631024023960,-0.639829,0.758535,0.088572
1631024023969,-0.639097,0.758169,0.088023
1631024023979,-0.640073,0.758962,0.088328
1631024023989,-0.6405,0.759328,0.087962
1631024023998,-0.640317,0.759572,0.086986
1631024024008,-0.640439,0.758047,0.087291
1631024024017,-0.640683,0.757864,0.086437
1631024024027,-0.640378,0.757864,0.086376
1631024024037,-0.640134,0.757864,0.085766
1631024024046,-0.639402,0.7582909999999999,0.08662
1631024024056,-0.638914,0.758779,0.087535
1631024024065,-0.639463,0.759694,0.088938
1631024024075,-0.639585,0.759389,0.091073
1631024024085,-0.639524,0.759694,0.09272
1631024024094,-0.6399509999999999,0.759938,0.092476
1631024024104,-0.640073,0.759633,0.091561
1631024024113,-0.639768,0.760914,0.091378
1631024024123,-0.639219,0.7628659999999999,0.090829
1631024024133,-0.641598,0.7640859999999999,0.090097
1631024024142,-0.6405609999999999,0.7625609999999999,0.086925
1631024024152,-0.640683,0.762134,0.08234999999999999
1631024024161,-0.640378,0.762744,0.081618
1631024024171,-0.63928,0.7598159999999999,0.08295999999999999
1631024024181,-0.638609,0.75701,0.087413
1631024024190,-0.638304,0.75518,0.090219
1631024024200,-0.639219,0.756827,0.089792
1631024024209,-0.638548,0.75884,0.08845
1631024024219,-0.638487,0.7601209999999999,0.08680299999999999
1631024024229,-0.637267,0.761402,0.086864
1631024024238,-0.637328,0.7610359999999999,0.08851099999999999
1631024024248,-0.6365959999999999,0.760487,0.08790099999999999
1631024024257,-0.637694,0.761829,0.088938
1631024024267,-0.637328,0.7625609999999999,0.089792
1631024024277,-0.6375109999999999,0.763293,0.090097
1631024024286,-0.6362909999999999,0.764635,0.091988
1631024024296,-0.6378159999999999,0.764025,0.092842
1631024024305,-0.637389,0.764452,0.093818
1631024024315,-0.637145,0.765428,0.09467199999999999
1631024024325,-0.63684,0.76494,0.093513
1631024024334,-0.637084,0.765062,0.094733
1631024024344,-0.637145,0.763415,0.093757
1631024024353,-0.637328,0.762744,0.091988
1631024024363,-0.637694,0.76189,0.091195
1631024024373,-0.6387309999999999,0.760304,0.091012
1631024024382,-0.639524,0.76128,0.090097
1631024024392,-0.6402559999999999,0.7595109999999999,0.090768
1631024024401,-0.639707,0.75945,0.08942599999999999
1631024024411,-0.639707,0.759755,0.086681
1631024024421,-0.639768,0.761768,0.08479
1631024024430,-0.63928,0.76006,0.08497299999999999
1631024024440,-0.639768,0.75701,0.08649799999999999
1631024024449,-0.63989,0.756095,0.08723
1631024024459,-0.6396459999999999,0.756827,0.086254
1631024024469,-0.639402,0.758962,0.086925
1631024024478,-0.637999,0.759145,0.086742
1631024024488,-0.638365,0.759328,0.08662
1631024024497,-0.638304,0.7589009999999999,0.08723
1631024024507,-0.6378159999999999,0.7585959999999999,0.088267
1631024024517,-0.638243,0.7589009999999999,0.08967
1631024024526,-0.637938,0.758779,0.088755
1631024024536,-0.63806,0.759145,0.08851099999999999
1631024024545,-0.637328,0.759389,0.088572
1631024024555,-0.638914,0.760304,0.08906
1631024024565,-0.638304,0.761219,0.08845
1631024024574,-0.63745,0.760914,0.08790099999999999
1631024024584,-0.638609,0.762195,0.087413
1631024024593,-0.638609,0.76189,0.08784
1631024024603,-0.638365,0.761707,0.08912099999999999
1631024024613,-0.63806,0.761158,0.089609
1631024024622,-0.63684,0.760914,0.090951
1631024024632,-0.638365,0.761707,0.090768
1631024024641,-0.6378159999999999,0.7613409999999999,0.090585
1631024024651,-0.6378159999999999,0.762805,0.089243
1631024024661,-0.638182,0.763293,0.087962
1631024024670,-0.6384259999999999,0.763049,0.08906
1631024024680,-0.638304,0.762439,0.089792
1631024024689,-0.637328,0.762317,0.089243
1631024024699,-0.637633,0.762195,0.089853
1631024024709,-0.637999,0.761768,0.088999
1631024024718,-0.637633,0.761524,0.089609
1631024024728,-0.637572,0.760548,0.088877
1631024024737,-0.637267,0.760304,0.088633
1631024024747,-0.636962,0.760975,0.088084
1631024024757,-0.637389,0.760609,0.086437
1631024024766,-0.637023,0.760914,0.087108
1631024024776,-0.636413,0.761524,0.086132
1631024024785,-0.637084,0.762073,0.086254
1631024024795,-0.637267,0.761524,0.08619299999999999
1631024024805,-0.6372059999999999,0.760548,0.08558299999999999
1631024024814,-0.637389,0.760609,0.08601
1631024024824,-0.635254,0.761097,0.08558299999999999
1631024024833,-0.635803,0.761768,0.087352
1631024024843,-0.634949,0.76189,0.089304
1631024024853,-0.635315,0.76189,0.090402
1631024024862,-0.63562,0.762073,0.091988
1631024024872,-0.635315,0.7622559999999999,0.092476
1631024024881,-0.637389,0.762622,0.091927
1631024024891,-0.638304,0.764025,0.089304
1631024024901,-0.637999,0.7637809999999999,0.088145
1631024024910,-0.637877,0.763598,0.087413
1631024024920,-0.6365959999999999,0.762012,0.087962
1631024024929,-0.637755,0.7640859999999999,0.084485
1631024024939,-0.638609,0.7677459999999999,0.08003199999999999
1631024024949,-0.636535,0.766038,0.08064199999999999
1631024024958,-0.636718,0.7625609999999999,0.084241
1631024024968,-0.634705,0.758352,0.088572
1631024024977,-0.634522,0.755302,0.089243
1631024024987,-0.634522,0.756644,0.08790099999999999
1631024024997,-0.634339,0.76189,0.085461
1631024025006,-0.634339,0.76433,0.084302
1631024025016,-0.635254,0.7640859999999999,0.08418
1631024025025,-0.633424,0.762744,0.085339
1631024025035,-0.633119,0.760548,0.08588799999999999
1631024025045,-0.63257,0.761768,0.086437
1631024025054,-0.63257,0.762439,0.087474
1631024025064,-0.633729,0.76494,0.088633
1631024025073,-0.63318,0.766648,0.0915
1631024025083,-0.633485,0.767319,0.092598
1631024025093,-0.634583,0.767807,0.092415
1631024025102,-0.6344,0.768295,0.090951
1631024025112,-0.634644,0.766709,0.090158
1631024025121,-0.634888,0.766892,0.090158
1631024025131,-0.634522,0.76555,0.089792
1631024025141,-0.634339,0.76494,0.089792
1631024025150,-0.6347659999999999,0.763964,0.089609
1631024025160,-0.63379,0.763659,0.089853
1631024025169,-0.635254,0.7634759999999999,0.089365
1631024025179,-0.634827,0.7628659999999999,0.087962
1631024025189,-0.632997,0.761768,0.08680299999999999
1631024025198,-0.633424,0.762317,0.084668
1631024025208,-0.632204,0.7613409999999999,0.08356999999999999
1631024025217,-0.632814,0.760487,0.083448
1631024025227,-0.632753,0.759023,0.086254
1631024025237,-0.6332409999999999,0.759023,0.08558299999999999
1631024025246,-0.632875,0.761768,0.08680299999999999
1631024025256,-0.6329359999999999,0.7643909999999999,0.086925
1631024025265,-0.633302,0.76555,0.088023
1631024025275,-0.632204,0.764574,0.089792
1631024025285,-0.6332409999999999,0.7653059999999999,0.090646
1631024025294,-0.632997,0.765062,0.09235399999999999
1631024025304,-0.633302,0.765672,0.091317
1631024025313,-0.633058,0.766343,0.090463
1631024025323,-0.63379,0.765855,0.09113399999999999
1631024025333,-0.633729,0.765184,0.09265899999999999
1631024025342,-0.634217,0.765367,0.092964
1631024025352,-0.634888,0.766648,0.093269
1631024025361,-0.6347659999999999,0.768722,0.092964
1631024025371,-0.635559,0.7686,0.093696
1631024025381,-0.63623,0.768844,0.093513
1631024025390,-0.63623,0.767319,0.093818
1631024025400,-0.636413,0.764879,0.093391
1631024025409,-0.635864,0.763598,0.093757
1631024025419,-0.635742,0.763354,0.093025
1631024025429,-0.636108,0.7640859999999999,0.09174399999999999
1631024025438,-0.636779,0.762683,0.0915
1631024025448,-0.637572,0.763842,0.090524
1631024025457,-0.637084,0.763659,0.090463
1631024025467,-0.638304,0.761768,0.089792
1631024025477,-0.638548,0.761219,0.090097
1631024025486,-0.6381209999999999,0.76067,0.089548
1631024025496,-0.638609,0.759999,0.088999
1631024025505,-0.637755,0.760609,0.08820599999999999
1631024025515,-0.637572,0.759633,0.087962
1631024025525,-0.637328,0.76067,0.08820599999999999
1631024025534,-0.636169,0.7592059999999999,0.087718
1631024025544,-0.6372059999999999,0.759938,0.087718
1631024025553,-0.6359859999999999,0.760548,0.087474
1631024025563,-0.635254,0.759999,0.08851099999999999
1631024025573,-0.6359859999999999,0.7610359999999999,0.08912099999999999
1631024025582,-0.6356809999999999,0.761463,0.088328
1631024025592,-0.635803,0.760792,0.08845
1631024025601,-0.6353759999999999,0.762012,0.08851099999999999
1631024025611,-0.635193,0.762683,0.089365
1631024025621,-0.636108,0.7613409999999999,0.089792
1631024025630,-0.6344609999999999,0.760609,0.090768
1631024025640,-0.633058,0.761768,0.091073
1631024025649,-0.6335459999999999,0.763049,0.090402
1631024025659,-0.632753,0.76311,0.091317
1631024025669,-0.632814,0.763354,0.092476
1631024025678,-0.633912,0.7634759999999999,0.092903
1631024025688,-0.634034,0.7625,0.093147
1631024025697,-0.635132,0.762683,0.092537
1631024025707,-0.635803,0.764757,0.092781
1631024025717,-0.636352,0.7665259999999999,0.091012
1631024025726,-0.63745,0.767258,0.089304
1631024025736,-0.636962,0.767075,0.090463
1631024025745,-0.636535,0.7650009999999999,0.08662
1631024025755,-0.636535,0.7653059999999999,0.081984
1631024025765,-0.633302,0.764574,0.08174
1631024025774,-0.633363,0.761097,0.086315
1631024025784,-0.633485,0.75823,0.09235399999999999
1631024025793,-0.633302,0.759084,0.093452
1631024025803,-0.633607,0.763293,0.092476
1631024025813,-0.6338509999999999,0.765062,0.091683
1631024025822,-0.635254,0.767258,0.090402
1631024025832,-0.634217,0.7665259999999999,0.089975
1631024025841,-0.634583,0.765184,0.090219
1631024025851,-0.63501,0.76433,0.090646
1631024025861,-0.6338509999999999,0.762988,0.091195
1631024025870,-0.63379,0.7637809999999999,0.090646
1631024025880,-0.633363,0.7653059999999999,0.09089
1631024025889,-0.633119,0.7659159999999999,0.093086
1631024025899,-0.633668,0.76738,0.09436699999999999
1631024025909,-0.633668,0.766404,0.095038
1631024025918,-0.631838,0.766648,0.095526
1631024025928,-0.632814,0.7668309999999999,0.09455
1631024025937,-0.6323259999999999,0.76677,0.094794
1631024025947,-0.632997,0.766587,0.094306
1631024025957,-0.633668,0.765794,0.094123
1631024025966,-0.633363,0.765245,0.093696
1631024025976,-0.632692,0.764635,0.094489
1631024025985,-0.633668,0.764147,0.094001
1631024025995,-0.6341559999999999,0.76372,0.094001
1631024026005,-0.6329359999999999,0.762134,0.092232
1631024026014,-0.633119,0.763903,0.089548
1631024026024,-0.6335459999999999,0.764757,0.089243
1631024026033,-0.632692,0.762988,0.088694
1631024026043,-0.6338509999999999,0.762988,0.090158
1631024026053,-0.633607,0.762195,0.0915
1631024026062,-0.632448,0.763232,0.091866
1631024026072,-0.631411,0.766099,0.09265899999999999
1631024026081,-0.632204,0.767258,0.093757
1631024026091,-0.632448,0.768661,0.093574
1631024026101,-0.6323259999999999,0.766404,0.09528199999999999
1631024026110,-0.63257,0.76494,0.09577
1631024026120,-0.632082,0.765367,0.096319
1631024026129,-0.632875,0.765672,0.095953
1631024026139,-0.632448,0.766099,0.095709
1631024026149,-0.633058,0.76616,0.096319
1631024026158,-0.6332409999999999,0.765855,0.095038
1631024026168,-0.633485,0.764757,0.095709
1631024026177,-0.633302,0.764757,0.094916
1631024026187,-0.634339,0.764513,0.09333
1631024026197,-0.635498,0.765489,0.09204899999999999
1631024026206,-0.637084,0.764513,0.091012
1631024026216,-0.636962,0.76372,0.089914
1631024026225,-0.637023,0.7640859999999999,0.091561
1631024026235,-0.637694,0.76311,0.091622
1631024026245,-0.637145,0.7640859999999999,0.09174399999999999
1631024026254,-0.637572,0.763842,0.090219
1631024026264,-0.637328,0.7628659999999999,0.08967
1631024026273,-0.6378159999999999,0.762744,0.089182
1631024026283,-0.637145,0.76189,0.087962
1631024026293,-0.6362909999999999,0.760975,0.088023
1631024026302,-0.63623,0.7604259999999999,0.088389
1631024026312,-0.635437,0.759633,0.086986
1631024026321,-0.63501,0.759633,0.088572
1631024026331,-0.6347659999999999,0.759633,0.088389
1631024026341,-0.634583,0.75945,0.088389
1631024026350,-0.635132,0.759938,0.087474
1631024026360,-0.634522,0.7598159999999999,0.087291
1631024026369,-0.6344609999999999,0.7595109999999999,0.085827
1631024026379,-0.634522,0.759084,0.085339
1631024026389,-0.634278,0.759755,0.085156
1631024026398,-0.633668,0.759084,0.086559
1631024026408,-0.632082,0.7585959999999999,0.086986
1631024026417,-0.6320209999999999,0.759023,0.088023
1631024026427,-0.632204,0.7601209999999999,0.088877
1631024026437,-0.631777,0.761768,0.088572
1631024026446,-0.632082,0.7628659999999999,0.08881599999999999
1631024026456,-0.632814,0.76494,0.090402
1631024026465,-0.633607,0.765062,0.091683
1631024026475,-0.633912,0.764757,0.09143899999999999
1631024026485,-0.6344609999999999,0.765184,0.0915
1631024026494,-0.634949,0.767197,0.090829
1631024026504,-0.634644,0.769332,0.091683
1631024026513,-0.633302,0.769271,0.091561
1631024026523,-0.633729,0.768112,0.093147
1631024026533,-0.633668,0.768295,0.089548
1631024026542,-0.632814,0.7686,0.08558299999999999
1631024026552,-0.631228,0.767868,0.085339
1631024026561,-0.630557,0.765245,0.087718
1631024026571,-0.630374,0.762683,0.091622
1631024026581,-0.631777,0.763232,0.093574
1631024026590,-0.631838,0.765245,0.092964
1631024026600,-0.631838,0.76677,0.092842
1631024026609,-0.632387,0.768234,0.0915
1631024026619,-0.63257,0.769759,0.09028
1631024026629,-0.631838,0.76921,0.089609
1631024026638,-0.632204,0.766343,0.08967
1631024026648,-0.6317159999999999,0.764208,0.089609
1631024026657,-0.63196,0.763354,0.089243
1631024026667,-0.631167,0.7656109999999999,0.08881599999999999
1631024026677,-0.631411,0.765367,0.08967
1631024026686,-0.631838,0.766282,0.09089
1631024026696,-0.630984,0.76555,0.09174399999999999
1631024026705,-0.6326309999999999,0.7668309999999999,0.092232
1631024026715,-0.631472,0.766587,0.09211
1631024026725,-0.632265,0.7665259999999999,0.091927
1631024026734,-0.631472,0.76616,0.090036
1631024026744,-0.631594,0.7656109999999999,0.091378
1631024026753,-0.632753,0.764208,0.091378
1631024026763,-0.631289,0.764025,0.092476
1631024026773,-0.632692,0.762988,0.09265899999999999
1631024026782,-0.632875,0.763537,0.093147
1631024026792,-0.633119,0.76311,0.09272
1631024026801,-0.6341559999999999,0.764879,0.09113399999999999
1631024026811,-0.634278,0.7671359999999999,0.088572
1631024026821,-0.63318,0.766038,0.088938
1631024026830,-0.6335459999999999,0.7631709999999999,0.091378
1631024026840,-0.634278,0.762744,0.092476
1631024026849,-0.635315,0.763964,0.091317
1631024026859,-0.634522,0.764818,0.090463
1631024026869,-0.633912,0.766892,0.089182
1631024026878,-0.6338509999999999,0.767197,0.089304
1631024026888,-0.633607,0.766709,0.08973099999999999
1631024026897,-0.632204,0.766099,0.090646
1631024026907,-0.632509,0.7653059999999999,0.090707
1631024026917,-0.6323259999999999,0.766282,0.089975
1631024026926,-0.632204,0.76616,0.08912099999999999
1631024026936,-0.631167,0.766343,0.089243
1631024026945,-0.631228,0.765977,0.089182
1631024026955,-0.630862,0.765977,0.088938
1631024026965,-0.629886,0.7668309999999999,0.089853
1631024026974,-0.630557,0.767014,0.089609
1631024026984,-0.63013,0.768112,0.08906
1631024026993,-0.630618,0.767502,0.088938
1631024027003,-0.630862,0.7665259999999999,0.089975
1631024027013,-0.630252,0.766587,0.090524
1631024027022,-0.630984,0.765794,0.090097
1631024027032,-0.630374,0.767014,0.090036
1631024027041,-0.631777,0.767685,0.089609
1631024027051,-0.632265,0.769027,0.089243
1631024027061,-0.631594,0.768722,0.089304
1631024027070,-0.63196,0.7674409999999999,0.089365
1631024027080,-0.63196,0.76555,0.089182
1631024027089,-0.6317159999999999,0.7653059999999999,0.08881599999999999
1631024027099,-0.631533,0.7653059999999999,0.08912099999999999
1631024027109,-0.63135,0.764513,0.08973099999999999
1631024027118,-0.632692,0.765184,0.089304
1631024027128,-0.63257,0.764879,0.089487
1631024027137,-0.632204,0.76555,0.088694
1631024027147,-0.632448,0.7653059999999999,0.08973099999999999
1631024027157,-0.632082,0.765977,0.08845
1631024027166,-0.632875,0.766099,0.08820599999999999
1631024027176,-0.632387,0.765489,0.087718
1631024027185,-0.632814,0.764879,0.087474
1631024027195,-0.6329359999999999,0.764818,0.086986
1631024027205,-0.632753,0.7643909999999999,0.087657
1631024027214,-0.631228,0.76372,0.087291
1631024027224,-0.630374,0.764147,0.088633
1631024027233,-0.630801,0.7643909999999999,0.09028
1631024027243,-0.63074,0.7643909999999999,0.091561
1631024027253,-0.630862,0.763903,0.093696
1631024027262,-0.631472,0.7656109999999999,0.093635
1631024027272,-0.632204,0.766404,0.091927
1631024027281,-0.632509,0.7668309999999999,0.092415
1631024027291,-0.6332409999999999,0.767502,0.091378
1631024027301,-0.633607,0.768234,0.09143899999999999
1631024027310,-0.632143,0.766892,0.091378
1631024027320,-0.6335459999999999,0.769759,0.088267
1631024027329,-0.633729,0.772992,0.085827
1631024027339,-0.63257,0.770186,0.086559
1631024027349,-0.630496,0.765855,0.091683
1631024027358,-0.629276,0.7619509999999999,0.095953
1631024027368,-0.629886,0.759877,0.095709
1631024027377,-0.630069,0.762439,0.094428
1631024027387,-0.63135,0.766648,0.09211
1631024027397,-0.631594,0.768051,0.091317
1631024027406,-0.631045,0.76799,0.090097
1631024027416,-0.630496,0.766465,0.091866
1631024027425,-0.629276,0.766099,0.093696
1631024027435,-0.62952,0.766282,0.09455
1631024027445,-0.629886,0.76738,0.095709
1631024027454,-0.628971,0.768356,0.097478
1631024027464,-0.630069,0.770613,0.09790499999999999
1631024027473,-0.629093,0.77043,0.099796
1631024027483,-0.629154,0.770308,0.09943
1631024027493,-0.629886,0.769515,0.098332
1631024027502,-0.629581,0.770308,0.098088
1631024027512,-0.629032,0.77043,0.097417
1631024027521,-0.63013,0.76921,0.096868
1631024027531,-0.629459,0.768539,0.096929
1631024027541,-0.629398,0.768478,0.096624
1631024027550,-0.629398,0.767258,0.095099
1631024027560,-0.629764,0.7671359999999999,0.09467199999999999
1631024027569,-0.629154,0.765672,0.09467199999999999
1631024027579,-0.627568,0.7643909999999999,0.09265899999999999
1631024027589,-0.628666,0.766465,0.090524
1631024027598,-0.628422,0.766709,0.090402
1631024027608,-0.628788,0.765184,0.088938
1631024027617,-0.629276,0.765428,0.090402
1631024027627,-0.629276,0.765123,0.091866
1631024027637,-0.629215,0.767075,0.091927
1631024027646,-0.629642,0.768905,0.091866
1631024027656,-0.629337,0.769332,0.09235399999999999
1631024027665,-0.629398,0.767868,0.092232
1631024027675,-0.62891,0.767502,0.093025
1631024027685,-0.628483,0.768783,0.09394
1631024027694,-0.628666,0.768722,0.093086
1631024027704,-0.627568,0.76982,0.09211
1631024027713,-0.627751,0.770186,0.091622
1631024027723,-0.629154,0.769637,0.09113399999999999
1631024027733,-0.628239,0.770308,0.091622
1631024027742,-0.627446,0.770064,0.09089
1631024027752,-0.625921,0.769393,0.091622
1631024027761,-0.626104,0.769149,0.091195
1631024027771,-0.626653,0.770552,0.091378
1631024027781,-0.626409,0.770674,0.09204899999999999
1631024027790,-0.62708,0.770674,0.092964
1631024027800,-0.626592,0.770796,0.09455
1631024027809,-0.627019,0.770552,0.093513
1631024027819,-0.627141,0.770796,0.093086
1631024027829,-0.627934,0.77226,0.092232
1631024027838,-0.628727,0.771894,0.091805
1631024027848,-0.628117,0.770125,0.090585
1631024027857,-0.629215,0.770552,0.090524
1631024027867,-0.629764,0.769637,0.09113399999999999
1631024027877,-0.630008,0.770064,0.091012
1631024027886,-0.629337,0.770003,0.091622
1631024027896,-0.629154,0.768295,0.091195
1631024027905,-0.628849,0.767014,0.0915
1631024027915,-0.630069,0.767563,0.090463
1631024027925,-0.629398,0.766282,0.090036
1631024027934,-0.63013,0.765428,0.089304
1631024027944,-0.630923,0.766465,0.089304
1631024027953,-0.631106,0.766709,0.088938
1631024027963,-0.631838,0.7671359999999999,0.08790099999999999
1631024027973,-0.631777,0.766038,0.08790099999999999
1631024027982,-0.630984,0.767258,0.087291
1631024027992,-0.63135,0.767197,0.08845
1631024028001,-0.630557,0.765428,0.088938
1631024028011,-0.630679,0.765428,0.089243
1631024028021,-0.629642,0.764818,0.090341
1631024028030,-0.628605,0.764818,0.089853
1631024028040,-0.627934,0.766038,0.091195
1631024028049,-0.6283,0.767014,0.091317
1631024028059,-0.628788,0.767197,0.09265899999999999
1631024028069,-0.629337,0.765733,0.093696
1631024028078,-0.63074,0.76433,0.091988
1631024028088,-0.63013,0.764818,0.092293
1631024028097,-0.631289,0.766404,0.092476
1631024028107,-0.632265,0.767563,0.09174399999999999
1631024028117,-0.632448,0.769515,0.090768
1631024028126,-0.631838,0.768356,0.090768
1631024028136,-0.6323259999999999,0.767624,0.085461
1631024028145,-0.63074,0.769942,0.08234999999999999
1631024028155,-0.630008,0.769027,0.082899
1631024028165,-0.630252,0.765672,0.089975
1631024028174,-0.629581,0.76372,0.09436699999999999
1631024028184,-0.629398,0.76372,0.096014
1631024028193,-0.629398,0.766892,0.094184
1631024028203,-0.629886,0.770369,0.093757
1631024028213,-0.630435,0.77104,0.091866
1631024028222,-0.630191,0.770369,0.09235399999999999
1631024028232,-0.629947,0.768173,0.093757
1631024028241,-0.628788,0.767258,0.093147
1631024028251,-0.629642,0.767319,0.09333
1631024028261,-0.629886,0.768783,0.094184
1631024028270,-0.629703,0.769271,0.09528199999999999
1631024028280,-0.630801,0.769576,0.096258
1631024028289,-0.631167,0.770857,0.09638
1631024028299,-0.631472,0.771101,0.097234
1631024028309,-0.631472,0.770918,0.096258
1631024028318,-0.63135,0.770308,0.095709
1631024028328,-0.631411,0.769332,0.094184
1631024028337,-0.630984,0.768661,0.09455
1631024028347,-0.630069,0.767319,0.09436699999999999
1631024028357,-0.630374,0.7668309999999999,0.09455
1631024028366,-0.630557,0.7668309999999999,0.093391
1631024028376,-0.631899,0.768051,0.093513
1631024028385,-0.631106,0.7665259999999999,0.093635
1631024028395,-0.629032,0.765428,0.09333
1631024028405,-0.63013,0.766404,0.089914
1631024028414,-0.62952,0.767563,0.08784
1631024028424,-0.62891,0.7653059999999999,0.088084
1631024028433,-0.62891,0.763598,0.08851099999999999
1631024028443,-0.628361,0.763232,0.089304
1631024028453,-0.627324,0.7653059999999999,0.090097
1631024028462,-0.626165,0.767563,0.090524
1631024028472,-0.626592,0.76921,0.090463
1631024028481,-0.62647,0.770613,0.091378
1631024028491,-0.626836,0.770003,0.093086
1631024028501,-0.627385,0.768539,0.09333
1631024028510,-0.62708,0.769637,0.092415
1631024028520,-0.628117,0.769881,0.092598
1631024028529,-0.627812,0.769881,0.092476
1631024028539,-0.62769,0.769698,0.091805
1631024028549,-0.628056,0.769271,0.09089
1631024028558,-0.62769,0.768783,0.092171
1631024028568,-0.6283,0.768905,0.091866
1631024028577,-0.629703,0.769088,0.09089
1631024028587,-0.629459,0.769576,0.089792
1631024028597,-0.630801,0.770613,0.08942599999999999
1631024028606,-0.63013,0.769454,0.089914
1631024028616,-0.63013,0.768966,0.089853
1631024028625,-0.629764,0.768295,0.090097
1631024028635,-0.630679,0.768234,0.091195
1631024028645,-0.628971,0.768966,0.090341
1631024028654,-0.630801,0.7677459999999999,0.089792
1631024028664,-0.631106,0.767929,0.089304
1631024028673,-0.630435,0.7665259999999999,0.090219
1631024028683,-0.629093,0.7656109999999999,0.090219
1631024028693,-0.629642,0.76555,0.089365
1631024028702,-0.629947,0.765062,0.08820599999999999
1631024028712,-0.629764,0.7653059999999999,0.087779
1631024028721,-0.630374,0.765184,0.087596
1631024028731,-0.63135,0.763354,0.08784
1631024028741,-0.631594,0.7631709999999999,0.087474
1631024028750,-0.631106,0.763964,0.087779
1631024028760,-0.631655,0.763659,0.08784
1631024028769,-0.631655,0.762988,0.08784
1631024028779,-0.631838,0.763415,0.087657
1631024028789,-0.630923,0.762744,0.088023
1631024028798,-0.631594,0.764269,0.087596
1631024028808,-0.631228,0.764574,0.089548
1631024028817,-0.631594,0.7634759999999999,0.090219
1631024028827,-0.63257,0.764025,0.089792
1631024028837,-0.632204,0.765977,0.089365
1631024028846,-0.632692,0.766648,0.088938
1631024028856,-0.631655,0.766343,0.089548
1631024028865,-0.630618,0.766587,0.08967
1631024028875,-0.630984,0.7659159999999999,0.08851099999999999
1631024028885,-0.63135,0.766038,0.083509
1631024028894,-0.629581,0.765794,0.084424
1631024028904,-0.628361,0.76555,0.085705
1631024028913,-0.628666,0.7671359999999999,0.089365
1631024028923,-0.629032,0.767868,0.09235399999999999
1631024028933,-0.630435,0.768661,0.09455
1631024028942,-0.629276,0.770674,0.09467199999999999
1631024028952,-0.629398,0.771772,0.09333
1631024028961,-0.62891,0.773358,0.093818
1631024028971,-0.629764,0.773236,0.093879
1631024028981,-0.629093,0.772016,0.093513
1631024028990,-0.627995,0.770186,0.093696
1631024029000,-0.628239,0.768783,0.093452
1631024029009,-0.628361,0.768722,0.09467199999999999
1631024029019,-0.628727,0.76921,0.095038
1631024029029,-0.628422,0.769393,0.094306
1631024029038,-0.628971,0.770064,0.09528199999999999
1631024029048,-0.629215,0.77043,0.095526
1631024029057,-0.629642,0.769393,0.09589199999999999
1631024029067,-0.629703,0.767502,0.094428
1631024029077,-0.630008,0.767197,0.09406199999999999
1631024029086,-0.629764,0.766648,0.093452
1631024029096,-0.630374,0.766343,0.09272
1631024029105,-0.630679,0.766404,0.092842
1631024029115,-0.629764,0.766038,0.092598
1631024029125,-0.631655,0.765245,0.093086
1631024029134,-0.63257,0.76494,0.094123
1631024029144,-0.630191,0.7640859999999999,0.09265899999999999
1631024029153,-0.631472,0.765672,0.089914
1631024029163,-0.631594,0.7665259999999999,0.088572
