timestamp,ax,ay,az
1630415911994,-0.2327880859375,0.09423828125,0.96087646484375
1630415911994,-0.23602294921875,0.09442138671875,0.96697998046875
1630415911994,-0.23126220703125,0.0982666015625,0.96142578125
1630415912120,-0.232666015625,0.09759521484375,0.96484375
1630415912120,-0.23077392578125,0.09930419921875,0.9639892578125
1630415912120,-0.2320556640625,0.0989990234375,0.96136474609375
1630415912136,-0.22882080078125,0.1048583984375,0.96221923828125
1630415912136,-0.2286376953125,0.1014404296875,0.96221923828125
1630415912136,-0.2313232421875,0.09930419921875,0.96112060546875
1630415912183,-0.23046875,0.10626220703125,0.96746826171875
1630415912183,-0.2291259765625,0.10589599609375,0.96759033203125
1630415912183,-0.22711181640625,0.1009521484375,0.9638671875
1630415912245,-0.2249755859375,0.10113525390625,0.96405029296875
1630415912261,-0.22369384765625,0.1009521484375,0.9652099609375
1630415912261,-0.2191162109375,0.09954833984375,0.97528076171875
1630415912292,-0.2149658203125,0.10162353515625,0.97979736328125
1630415912292,-0.2171630859375,0.10137939453125,0.97723388671875
1630415912307,-0.2142333984375,0.09893798828125,0.97509765625
1630415912323,-0.21435546875,0.09515380859375,0.9735107421875
1630415912323,-0.2159423828125,0.10003662109375,0.9725341796875
1630415912339,-0.21893310546875,0.1014404296875,0.97210693359375
1630415912432,-0.21746826171875,0.09814453125,0.970458984375
1630415912448,-0.21942138671875,0.098388671875,0.97125244140625
1630415912448,-0.21429443359375,0.0972900390625,0.97039794921875
1630415912464,-0.21820068359375,0.10028076171875,0.97027587890625
1630415912464,-0.21868896484375,0.0941162109375,0.96771240234375
1630415912464,-0.21923828125,0.0963134765625,0.9732666015625
1630415912561,-0.2218017578125,0.0972900390625,0.97015380859375
1630415912561,-0.2178955078125,0.093994140625,0.9656982421875
1630415912561,-0.21722412109375,0.09405517578125,0.96490478515625
1630415912561,-0.21923828125,0.09503173828125,0.96563720703125
1630415912576,-0.21673583984375,0.09271240234375,0.96795654296875
1630415912576,-0.21624755859375,0.09161376953125,0.96844482421875
1630415912639,-0.21002197265625,0.08740234375,0.97607421875
1630415912655,-0.21453857421875,0.08453369140625,0.9705810546875
1630415912655,-0.2174072265625,0.09033203125,0.96875
1630415912686,-0.2064208984375,0.0950927734375,0.9796142578125
1630415912686,-0.2041015625,0.09185791015625,0.983154296875
1630415912686,-0.2073974609375,0.094970703125,0.98101806640625
1630415912826,-0.2099609375,0.09222412109375,0.97320556640625
1630415912826,-0.2066650390625,0.09747314453125,0.97509765625
1630415912826,-0.20721435546875,0.09356689453125,0.976318359375
1630415912873,-0.20660400390625,0.0941162109375,0.9725341796875
1630415912873,-0.2064208984375,0.0926513671875,0.9713134765625
1630415912873,-0.20458984375,0.09375,0.9781494140625
1630415912889,-0.207763671875,0.09332275390625,0.9766845703125
1630415912889,-0.2098388671875,0.0906982421875,0.97576904296875
1630415912889,-0.21063232421875,0.08819580078125,0.97186279296875
1630415912936,-0.2127685546875,0.08984375,0.964111328125
1630415912951,-0.20892333984375,0.08935546875,0.9635009765625
1630415912951,-0.21270751953125,0.092041015625,0.96392822265625
1630415912983,-0.2135009765625,0.09100341796875,0.9725341796875
1630415912998,-0.2109375,0.09228515625,0.9674072265625
1630415912998,-0.21124267578125,0.093505859375,0.9688720703125
1630415913108,-0.207275390625,0.09381103515625,0.97540283203125
1630415913108,-0.208984375,0.09124755859375,0.97503662109375
1630415913123,-0.20635986328125,0.0911865234375,0.97808837890625
1630415913123,-0.20611572265625,0.09088134765625,0.9759521484375
1630415913123,-0.20697021484375,0.090087890625,0.97821044921875
1630415913186,-0.20623779296875,0.08355712890625,0.97528076171875
1630415913186,-0.20733642578125,0.09326171875,0.97796630859375
1630415913186,-0.2032470703125,0.0902099609375,0.97747802734375
1630415913217,-0.20758056640625,0.08575439453125,0.97650146484375
1630415913233,-0.2088623046875,0.07958984375,0.9771728515625
1630415913233,-0.2076416015625,0.0841064453125,0.97216796875
1630415913248,-0.20721435546875,0.0823974609375,0.9725341796875
1630415913264,-0.2093505859375,0.08050537109375,0.97418212890625
1630415913264,-0.2059326171875,0.083740234375,0.97772216796875
1630415913342,-0.21331787109375,0.07861328125,0.97021484375
1630415913342,-0.21337890625,0.0745849609375,0.96514892578125
1630415913358,-0.214111328125,0.0833740234375,0.974609375
1630415913373,-0.206787109375,0.07879638671875,0.97076416015625
1630415913373,-0.20904541015625,0.0816650390625,0.97381591796875
1630415913389,-0.20489501953125,0.0772705078125,0.97296142578125
1630415913451,-0.20941162109375,0.080078125,0.96771240234375
1630415913451,-0.21026611328125,0.08111572265625,0.9676513671875
1630415913467,-0.20806884765625,0.07958984375,0.9700927734375
1630415913561,-0.2095947265625,0.0821533203125,0.96856689453125
1630415913561,-0.2120361328125,0.08062744140625,0.9666748046875
1630415913561,-0.2117919921875,0.0819091796875,0.9744873046875
1630415913576,-0.2115478515625,0.085205078125,0.974853515625
1630415913576,-0.21209716796875,0.0826416015625,0.97479248046875
1630415913576,-0.2109375,0.0826416015625,0.96832275390625
1630415913654,-0.21148681640625,0.0782470703125,0.95904541015625
1630415913654,-0.21221923828125,0.0791015625,0.96148681640625
1630415913654,-0.212158203125,0.0750732421875,0.963134765625
1630415913686,-0.20782470703125,0.07684326171875,0.96917724609375
1630415913701,-0.203125,0.07476806640625,0.98516845703125
1630415913701,-0.20404052734375,0.07647705078125,0.97686767578125
1630415913748,-0.19732666015625,0.07147216796875,0.98602294921875
1630415913748,-0.1981201171875,0.07763671875,0.98382568359375
1630415913748,-0.20062255859375,0.06982421875,0.9813232421875
1630415913811,-0.19964599609375,0.07025146484375,0.988037109375
1630415913811,-0.197509765625,0.07098388671875,0.99139404296875
1630415913811,-0.19732666015625,0.071044921875,0.98773193359375
1630415913904,-0.1961669921875,0.07049560546875,0.97998046875
1630415913904,-0.20361328125,0.07305908203125,0.9736328125
1630415913904,-0.20758056640625,0.07171630859375,0.9749755859375
1630415913967,-0.20745849609375,0.07574462890625,0.9759521484375
1630415913967,-0.20709228515625,0.0745849609375,0.9735107421875
1630415913967,-0.2122802734375,0.08270263671875,0.97137451171875
1630415913998,-0.218505859375,0.08251953125,0.9627685546875
1630415913998,-0.21435546875,0.083251953125,0.95751953125
1630415914014,-0.2186279296875,0.078125,0.95928955078125
1630415914045,-0.2213134765625,0.080810546875,0.967529296875
1630415914045,-0.21466064453125,0.070068359375,0.97247314453125
1630415914045,-0.21783447265625,0.07049560546875,0.970458984375
1630415914076,-0.21307373046875,0.073486328125,0.96636962890625
1630415914076,-0.21527099609375,0.0709228515625,0.9732666015625
1630415914076,-0.21319580078125,0.07452392578125,0.96954345703125
1630415914201,-0.2088623046875,0.07916259765625,0.97967529296875
1630415914201,-0.2086181640625,0.0771484375,0.97723388671875
1630415914201,-0.21221923828125,0.07440185546875,0.97509765625
1630415914232,-0.2137451171875,0.083251953125,0.98004150390625
1630415914232,-0.2115478515625,0.0810546875,0.98175048828125
1630415914232,-0.21337890625,0.08074951171875,0.97515869140625
1630415914279,-0.2176513671875,0.0794677734375,0.97515869140625
1630415914279,-0.21258544921875,0.08251953125,0.9757080078125
1630415914295,-0.212646484375,0.08306884765625,0.97650146484375
1630415914326,-0.22442626953125,0.078125,0.96112060546875
1630415914342,-0.2235107421875,0.0794677734375,0.96343994140625
1630415914342,-0.2164306640625,0.0755615234375,0.967041015625
1630415914420,-0.22406005859375,0.0802001953125,0.95989990234375
1630415914420,-0.22467041015625,0.08026123046875,0.9586181640625
1630415914420,-0.224365234375,0.08367919921875,0.95867919921875
1630415914514,-0.22320556640625,0.0831298828125,0.96246337890625
1630415914514,-0.21917724609375,0.07891845703125,0.96954345703125
1630415914514,-0.21331787109375,0.0836181640625,0.9754638671875
1630415914532,-0.21484375,0.0806884765625,0.98101806640625
1630415914548,-0.2178955078125,0.0770263671875,0.97772216796875
1630415914548,-0.2156982421875,0.08331298828125,0.97760009765625
1630415914626,-0.219970703125,0.0770263671875,0.967041015625
1630415914626,-0.2205810546875,0.0771484375,0.96978759765625
1630415914626,-0.216064453125,0.07611083984375,0.97528076171875
1630415914673,-0.22174072265625,0.084716796875,0.960693359375
1630415914673,-0.2215576171875,0.07696533203125,0.9638671875
1630415914673,-0.22406005859375,0.08050537109375,0.96258544921875
1630415914720,-0.221923828125,0.08551025390625,0.9630126953125
1630415914720,-0.22509765625,0.08624267578125,0.9703369140625
1630415914720,-0.22491455078125,0.08575439453125,0.96270751953125
1630415914751,-0.22113037109375,0.08355712890625,0.970947265625
1630415914767,-0.2230224609375,0.07891845703125,0.9703369140625
1630415914767,-0.21697998046875,0.076171875,0.9674072265625
1630415914798,-0.2174072265625,0.07720947265625,0.97021484375
1630415914798,-0.22064208984375,0.077392578125,0.97320556640625
1630415914798,-0.21832275390625,0.0787353515625,0.97528076171875
1630415914860,-0.2132568359375,0.08221435546875,0.97344970703125
1630415914876,-0.2147216796875,0.0802001953125,0.970703125
1630415914876,-0.2120361328125,0.08087158203125,0.9716796875
1630415914892,-0.21160888671875,0.087646484375,0.97857666015625
1630415914892,-0.2137451171875,0.08782958984375,0.978759765625
1630415914907,-0.2105712890625,0.0909423828125,0.97406005859375
1630415915032,-0.21453857421875,0.08587646484375,0.9691162109375
1630415915032,-0.2147216796875,0.0845947265625,0.97265625
1630415915048,-0.2142333984375,0.0863037109375,0.9736328125
1630415915079,-0.2149658203125,0.0789794921875,0.96722412109375
1630415915079,-0.22076416015625,0.07684326171875,0.96685791015625
1630415915079,-0.21600341796875,0.07830810546875,0.96978759765625
1630415915110,-0.21466064453125,0.0848388671875,0.97088623046875
1630415915110,-0.21624755859375,0.0831298828125,0.9708251953125
1630415915110,-0.2130126953125,0.07879638671875,0.9708251953125
1630415915204,-0.21575927734375,0.08642578125,0.9752197265625
1630415915204,-0.2200927734375,0.07965087890625,0.96728515625
1630415915204,-0.21612548828125,0.081298828125,0.96917724609375
1630415915204,-0.21917724609375,0.08612060546875,0.97259521484375
1630415915204,-0.2139892578125,0.0784912109375,0.97601318359375
1630415915204,-0.2183837890625,0.08709716796875,0.97308349609375
1630415915345,-0.2152099609375,0.07525634765625,0.97509765625
1630415915345,-0.21990966796875,0.08135986328125,0.96478271484375
1630415915345,-0.22113037109375,0.07611083984375,0.9693603515625
1630415915391,-0.218994140625,0.075927734375,0.96966552734375
1630415915391,-0.21954345703125,0.07293701171875,0.97198486328125
1630415915391,-0.218505859375,0.0755615234375,0.97003173828125
1630415915407,-0.21429443359375,0.08380126953125,0.97113037109375
1630415915423,-0.21875,0.0810546875,0.97552490234375
1630415915423,-0.21710205078125,0.080810546875,0.96807861328125
1630415915454,-0.21240234375,0.08062744140625,0.97283935546875
1630415915454,-0.21630859375,0.08544921875,0.9779052734375
1630415915454,-0.21331787109375,0.07940673828125,0.9783935546875
1630415915565,-0.2127685546875,0.0771484375,0.981201171875
1630415915565,-0.21331787109375,0.09014892578125,0.97711181640625
1630415915565,-0.21380615234375,0.08184814453125,0.974853515625
1630415915597,-0.22283935546875,0.097900390625,0.97662353515625
1630415915597,-0.2276611328125,0.09600830078125,0.97314453125
1630415915597,-0.2279052734375,0.09820556640625,0.97528076171875
1630415915612,-0.227783203125,0.09393310546875,0.95672607421875
1630415915612,-0.22711181640625,0.0970458984375,0.96600341796875
1630415915612,-0.227294921875,0.10003662109375,0.97320556640625
1630415915690,-0.232177734375,0.0797119140625,0.947998046875
1630415915690,-0.22955322265625,0.06488037109375,0.93316650390625
1630415915690,-0.22216796875,0.05169677734375,0.94671630859375
1630415915768,-0.2130126953125,0.0560302734375,0.9749755859375
1630415915768,-0.21234130859375,0.0457763671875,0.96051025390625
1630415915768,-0.2110595703125,0.0509033203125,0.971923828125
1630415915815,-0.2034912109375,0.04705810546875,0.9722900390625
1630415915815,-0.2001953125,0.063720703125,0.978515625
1630415915815,-0.2012939453125,0.05609130859375,0.9786376953125
1630415915878,-0.19281005859375,0.06494140625,0.9912109375
1630415915878,-0.19415283203125,0.0704345703125,0.98211669921875
1630415915878,-0.19195556640625,0.0703125,0.98626708984375
1630415915925,-0.19134521484375,0.072265625,0.99298095703125
1630415915925,-0.19256591796875,0.069580078125,0.98675537109375
1630415915940,-0.19415283203125,0.06695556640625,0.9873046875
1630415915987,-0.21185302734375,0.072021484375,0.980224609375
1630415915987,-0.19586181640625,0.077392578125,0.997802734375
1630415915987,-0.2000732421875,0.0718994140625,0.99755859375
1630415916065,-0.21044921875,0.06573486328125,0.97979736328125
1630415916065,-0.21490478515625,0.0596923828125,0.9652099609375
1630415916065,-0.2110595703125,0.0557861328125,0.9683837890625
1630415916096,-0.208251953125,0.06536865234375,0.97137451171875
1630415916096,-0.21295166015625,0.067626953125,0.97930908203125
1630415916112,-0.2088623046875,0.0614013671875,0.972412109375
1630415916206,-0.22607421875,0.0606689453125,0.970703125
1630415916221,-0.2188720703125,0.0621337890625,0.973876953125
1630415916221,-0.22198486328125,0.0626220703125,0.9722900390625
1630415916268,-0.23486328125,0.043701171875,0.95672607421875
1630415916268,-0.23699951171875,0.049560546875,0.96942138671875
1630415916268,-0.22747802734375,0.0550537109375,0.97003173828125
1630415916315,-0.23760986328125,0.0499267578125,0.95074462890625
1630415916315,-0.23126220703125,0.055908203125,0.94610595703125
1630415916315,-0.22882080078125,0.05157470703125,0.946533203125
1630415916346,-0.21875,0.06201171875,0.9700927734375
1630415916346,-0.2183837890625,0.05712890625,0.96112060546875
1630415916346,-0.2177734375,0.0484619140625,0.95062255859375
1630415916393,-0.21331787109375,0.069580078125,0.972900390625
1630415916409,-0.21759033203125,0.07244873046875,0.97955322265625
1630415916409,-0.21807861328125,0.0753173828125,0.97412109375
1630415916424,-0.210693359375,0.06353759765625,0.97467041015625
1630415916424,-0.20623779296875,0.057373046875,0.97943115234375
1630415916424,-0.20843505859375,0.0623779296875,0.98052978515625
1630415916549,-0.2015380859375,0.051513671875,0.976318359375
1630415916549,-0.205322265625,0.04681396484375,0.9739990234375
1630415916549,-0.20355224609375,0.0506591796875,0.982421875
1630415916581,-0.2021484375,0.04400634765625,0.9708251953125
1630415916581,-0.20367431640625,0.04888916015625,0.97235107421875
1630415916581,-0.2012939453125,0.044921875,0.971435546875
1630415916690,-0.19964599609375,0.0592041015625,0.97698974609375
1630415916690,-0.1954345703125,0.072021484375,0.98944091796875
1630415916706,-0.19964599609375,0.07916259765625,0.9820556640625
1630415916706,-0.199951171875,0.06414794921875,0.985107421875
1630415916706,-0.2000732421875,0.087646484375,0.98468017578125
1630415916706,-0.19500732421875,0.077880859375,0.987548828125
1630415916784,-0.19903564453125,0.09002685546875,0.98199462890625
1630415916784,-0.20648193359375,0.08746337890625,0.97894287109375
1630415916784,-0.20098876953125,0.090576171875,0.9825439453125
1630415916846,-0.211181640625,0.08673095703125,0.968994140625
1630415916846,-0.21075439453125,0.0784912109375,0.9681396484375
1630415916846,-0.20831298828125,0.0758056640625,0.9676513671875
1630415916893,-0.2098388671875,0.069091796875,0.96875
1630415916893,-0.20166015625,0.06011962890625,0.970458984375
1630415916893,-0.2076416015625,0.065185546875,0.97161865234375
1630415916971,-0.208740234375,0.06378173828125,0.978515625
1630415916971,-0.2061767578125,0.064208984375,0.9779052734375
1630415916971,-0.2069091796875,0.06378173828125,0.97174072265625
1630415917002,-0.2088623046875,0.0599365234375,0.97845458984375
1630415917002,-0.20672607421875,0.05609130859375,0.97601318359375
1630415917002,-0.20404052734375,0.066162109375,0.9781494140625
1630415917065,-0.20172119140625,0.0736083984375,0.9786376953125
1630415917065,-0.20184326171875,0.07635498046875,0.977783203125
1630415917065,-0.202880859375,0.06964111328125,0.97625732421875
1630415917127,-0.20196533203125,0.0784912109375,0.9820556640625
1630415917127,-0.203369140625,0.0784912109375,0.97711181640625
1630415917127,-0.200927734375,0.07733154296875,0.97808837890625
1630415917190,-0.20849609375,0.0731201171875,0.978271484375
1630415917206,-0.21026611328125,0.0648193359375,0.97454833984375
1630415917206,-0.2081298828125,0.06292724609375,0.97357177734375
1630415917237,-0.20416259765625,0.05706787109375,0.97088623046875
1630415917237,-0.20477294921875,0.05718994140625,0.96954345703125
1630415917237,-0.20123291015625,0.05865478515625,0.96514892578125
1630415917284,-0.199951171875,0.06878662109375,0.98651123046875
1630415917284,-0.20050048828125,0.06182861328125,0.968505859375
1630415917284,-0.2003173828125,0.06805419921875,0.9796142578125
1630415917362,-0.20074462890625,0.07122802734375,0.9854736328125
1630415917362,-0.19793701171875,0.0721435546875,0.9810791015625
1630415917377,-0.2008056640625,0.0718994140625,0.97705078125
1630415917409,-0.196533203125,0.0579833984375,0.9752197265625
1630415917409,-0.2042236328125,0.06182861328125,0.97509765625
1630415917424,-0.19573974609375,0.05908203125,0.97601318359375
1630415917440,-0.19879150390625,0.06488037109375,0.986572265625
1630415917440,-0.2037353515625,0.06365966796875,0.981201171875
1630415917455,-0.2017822265625,0.0609130859375,0.97491455078125
1630415917534,-0.19744873046875,0.0667724609375,0.98126220703125
1630415917534,-0.20538330078125,0.0755615234375,0.990478515625
1630415917534,-0.2015380859375,0.06103515625,0.977783203125
1630415917596,-0.21795654296875,0.083984375,0.9837646484375
1630415917596,-0.21142578125,0.08612060546875,0.99102783203125
1630415917596,-0.224365234375,0.087158203125,0.9737548828125
1630415917643,-0.2274169921875,0.0872802734375,0.9638671875
1630415917643,-0.23187255859375,0.07489013671875,0.94873046875
1630415917643,-0.23577880859375,0.08538818359375,0.95782470703125
1630415917752,-0.21612548828125,0.051025390625,0.9639892578125
1630415917752,-0.21148681640625,0.04901123046875,0.962890625
1630415917752,-0.22021484375,0.0556640625,0.950927734375
1630415917752,-0.2183837890625,0.04998779296875,0.95806884765625
1630415917752,-0.215087890625,0.05609130859375,0.96282958984375
1630415917752,-0.2288818359375,0.06988525390625,0.9500732421875
1630415917815,-0.20587158203125,0.0574951171875,0.96539306640625
1630415917815,-0.19915771484375,0.06005859375,0.97271728515625
1630415917815,-0.2103271484375,0.05548095703125,0.96533203125
1630415917893,-0.19879150390625,0.0650634765625,0.984130859375
1630415917893,-0.19873046875,0.06805419921875,0.98614501953125
1630415917893,-0.198486328125,0.064208984375,0.98297119140625
1630415917924,-0.20068359375,0.07000732421875,0.9837646484375
1630415917924,-0.199462890625,0.0732421875,0.9805908203125
1630415917924,-0.1990966796875,0.07177734375,0.98291015625
1630415918065,-0.199951171875,0.0750732421875,0.98382568359375
1630415918065,-0.20001220703125,0.07012939453125,0.9837646484375
1630415918065,-0.20196533203125,0.08209228515625,0.983642578125
1630415918127,-0.20806884765625,0.0797119140625,0.97491455078125
1630415918127,-0.2083740234375,0.08135986328125,0.97674560546875
1630415918127,-0.20709228515625,0.08416748046875,0.9827880859375
1630415918143,-0.213623046875,0.07757568359375,0.9769287109375
1630415918143,-0.21917724609375,0.07489013671875,0.97064208984375
1630415918143,-0.2139892578125,0.07427978515625,0.97607421875
1630415918190,-0.215576171875,0.07257080078125,0.9677734375
1630415918205,-0.21337890625,0.06951904296875,0.9722900390625
1630415918205,-0.2108154296875,0.0694580078125,0.96771240234375
1630415918252,-0.21917724609375,0.07769775390625,0.99053955078125
1630415918252,-0.21630859375,0.0716552734375,0.9866943359375
1630415918252,-0.2198486328125,0.0740966796875,0.9801025390625
1630415918268,-0.2225341796875,0.07000732421875,0.98895263671875
1630415918268,-0.2215576171875,0.065673828125,0.98919677734375
1630415918283,-0.2156982421875,0.06024169921875,0.97247314453125
1630415918330,-0.2135009765625,0.04571533203125,0.95660400390625
1630415918330,-0.216796875,0.04864501953125,0.96417236328125
1630415918330,-0.22027587890625,0.05426025390625,0.95684814453125
1630415918408,-0.22412109375,0.06494140625,0.9471435546875
1630415918408,-0.2181396484375,0.08331298828125,0.95538330078125
1630415918408,-0.221435546875,0.0830078125,0.9537353515625
1630415918518,-0.21343994140625,0.0762939453125,0.95965576171875
1630415918518,-0.217041015625,0.0904541015625,0.9696044921875
1630415918518,-0.2164306640625,0.08209228515625,0.96759033203125
1630415918533,-0.21380615234375,0.09222412109375,0.95672607421875
1630415918533,-0.20513916015625,0.08746337890625,0.9619140625
1630415918533,-0.2197265625,0.091064453125,0.96319580078125
1630415918612,-0.21575927734375,0.08319091796875,0.98187255859375
1630415918612,-0.20465087890625,0.08758544921875,0.9842529296875
1630415918612,-0.20562744140625,0.0848388671875,0.97369384765625
1630415918643,-0.21099853515625,0.0762939453125,0.97412109375
1630415918643,-0.21917724609375,0.080078125,0.99920654296875
1630415918643,-0.21820068359375,0.0733642578125,0.97247314453125
1630415918706,-0.22833251953125,0.0841064453125,0.9942626953125
1630415918721,-0.23199462890625,0.0631103515625,0.95806884765625
1630415918721,-0.23687744140625,0.0748291015625,0.97802734375
1630415918752,-0.21478271484375,0.0572509765625,0.96441650390625
1630415918752,-0.22296142578125,0.05596923828125,0.9539794921875
1630415918752,-0.2115478515625,0.05828857421875,0.982421875
1630415918846,-0.21575927734375,0.05621337890625,0.972412109375
1630415918846,-0.2161865234375,0.052734375,0.97320556640625
1630415918846,-0.218505859375,0.0555419921875,0.98333740234375
1630415918877,-0.21856689453125,0.084716796875,0.988525390625
1630415918877,-0.21295166015625,0.07177734375,0.98162841796875
1630415918877,-0.21124267578125,0.0662841796875,0.97119140625
1630415918955,-0.21307373046875,0.10076904296875,0.9906005859375
1630415918955,-0.2147216796875,0.1112060546875,0.9844970703125
1630415918955,-0.2208251953125,0.111083984375,0.97564697265625
1630415919002,-0.23333740234375,0.09698486328125,0.9449462890625
1630415919002,-0.220947265625,0.10638427734375,0.9674072265625
1630415919002,-0.228271484375,0.10400390625,0.95697021484375
1630415919064,-0.23358154296875,0.09063720703125,0.95806884765625
1630415919064,-0.2364501953125,0.086181640625,0.94732666015625
1630415919080,-0.235595703125,0.09136962890625,0.9683837890625
1630415919127,-0.2330322265625,0.086181640625,0.97320556640625
1630415919127,-0.2325439453125,0.088623046875,0.97216796875
1630415919127,-0.23602294921875,0.0889892578125,0.97607421875
1630415919174,-0.23797607421875,0.085205078125,0.95794677734375
1630415919174,-0.24029541015625,0.0751953125,0.95269775390625
1630415919174,-0.2327880859375,0.09637451171875,0.961669921875
1630415919236,-0.23260498046875,0.07427978515625,0.96063232421875
1630415919236,-0.22686767578125,0.06756591796875,0.9600830078125
1630415919236,-0.236083984375,0.07672119140625,0.9503173828125
1630415919268,-0.21441650390625,0.063720703125,0.9718017578125
1630415919268,-0.2232666015625,0.06488037109375,0.9591064453125
1630415919268,-0.22076416015625,0.0648193359375,0.96405029296875
1630415919361,-0.2108154296875,0.0689697265625,0.975830078125
1630415919361,-0.21063232421875,0.0706787109375,0.978759765625
1630415919361,-0.21099853515625,0.06390380859375,0.97344970703125
1630415919424,-0.211181640625,0.074951171875,0.97967529296875
1630415919424,-0.215576171875,0.082763671875,0.97613525390625
1630415919424,-0.214599609375,0.08062744140625,0.97882080078125
1630415919471,-0.2159423828125,0.08660888671875,0.972900390625
1630415919471,-0.21923828125,0.0869140625,0.971435546875
1630415919471,-0.2178955078125,0.08392333984375,0.9774169921875
1630415919502,-0.218994140625,0.0771484375,0.96734619140625
1630415919502,-0.22540283203125,0.06048583984375,1.00408935546875
1630415919502,-0.226806640625,0.06903076171875,0.968505859375
1630415919567,-0.2191162109375,0.05755615234375,1.101806640625
1630415919567,-0.1695556640625,0.029541015625,1.07940673828125
1630415919567,-0.16668701171875,0.02850341796875,0.99188232421875
1630415919614,-0.21588134765625,0.0567626953125,1.01055908203125
1630415919614,-0.24798583984375,0.05938720703125,0.9512939453125
1630415919630,-0.1944580078125,0.06414794921875,0.94183349609375
1630415919692,-0.29345703125,0.06072998046875,0.8704833984375
1630415919692,-0.30487060546875,0.062255859375,0.8787841796875
1630415919692,-0.24725341796875,0.02728271484375,0.906494140625
1630415919755,-0.2584228515625,0.01739501953125,0.9451904296875
1630415919755,-0.2525634765625,0.015625,0.9427490234375
1630415919755,-0.2872314453125,0.00067138671875,0.9677734375
1630415919801,-0.24462890625,0.0277099609375,0.9521484375
1630415919801,-0.21710205078125,0.027587890625,0.9573974609375
1630415919801,-0.25042724609375,0.01788330078125,0.91705322265625
1630415919880,-0.206787109375,0.041259765625,1.00897216796875
1630415919895,-0.216796875,0.02117919921875,0.92474365234375
1630415919895,-0.20721435546875,0.04962158203125,1.02728271484375
1630415919942,-0.20245361328125,0.0616455078125,1.00225830078125
1630415919942,-0.21697998046875,0.08392333984375,1.0003662109375
1630415919942,-0.19598388671875,0.055908203125,1.0010986328125
1630415919973,-0.232666015625,0.1124267578125,0.982666015625
1630415919989,-0.216552734375,0.10723876953125,0.95159912109375
1630415919989,-0.2349853515625,0.11639404296875,0.96923828125
1630415920067,-0.2757568359375,0.1497802734375,0.98419189453125
1630415920067,-0.26007080078125,0.10845947265625,0.99871826171875
1630415920067,-0.26220703125,0.1298828125,1.0302734375
1630415920098,-0.2669677734375,0.15325927734375,0.93212890625
1630415920098,-0.2939453125,0.15118408203125,0.91632080078125
1630415920098,-0.28564453125,0.15765380859375,0.95111083984375
1630415920192,-0.30316162109375,0.13568115234375,0.8941650390625
1630415920192,-0.2935791015625,0.11865234375,0.879638671875
1630415920192,-0.30145263671875,0.1181640625,0.90252685546875
1630415920223,-0.273681640625,0.12652587890625,0.91070556640625
1630415920223,-0.2459716796875,0.1053466796875,0.918212890625
1630415920223,-0.322265625,0.1138916015625,0.9212646484375
1630415920333,-0.2569580078125,0.07000732421875,0.93756103515625
1630415920333,-0.2669677734375,0.093505859375,0.94818115234375
1630415920333,-0.26202392578125,0.07879638671875,0.9442138671875
1630415920379,-0.23089599609375,0.0728759765625,0.9931640625
1630415920379,-0.23394775390625,0.06854248046875,1.00360107421875
1630415920379,-0.240478515625,0.07135009765625,0.9617919921875
1630415920426,-0.2315673828125,0.06597900390625,0.9912109375
1630415920442,-0.22747802734375,0.066162109375,0.9818115234375
1630415920442,-0.220947265625,0.07269287109375,0.9718017578125
1630415920458,-0.21563720703125,0.0675048828125,0.97100830078125
1630415920458,-0.21636962890625,0.06793212890625,0.9708251953125
1630415920458,-0.21612548828125,0.07916259765625,0.9747314453125
1630415920554,-0.20806884765625,0.07501220703125,0.9813232421875
1630415920554,-0.2154541015625,0.07427978515625,0.9718017578125
1630415920554,-0.21527099609375,0.07763671875,0.9676513671875
1630415920616,-0.209228515625,0.04425048828125,0.97625732421875
1630415920616,-0.2122802734375,0.0684814453125,0.99383544921875
1630415920616,-0.21319580078125,0.05987548828125,0.98681640625
1630415920647,-0.2130126953125,0.0478515625,0.98846435546875
1630415920647,-0.20458984375,0.04144287109375,0.97882080078125
1630415920647,-0.22357177734375,0.0416259765625,0.97796630859375
1630415920757,-0.212890625,0.02435302734375,0.9647216796875
1630415920757,-0.21160888671875,0.04248046875,0.9736328125
1630415920757,-0.22186279296875,0.02630615234375,0.96466064453125
1630415920788,-0.208251953125,0.05963134765625,0.9964599609375
1630415920788,-0.190185546875,0.07098388671875,1.01898193359375
1630415920788,-0.2044677734375,0.06292724609375,1.013427734375
1630415920835,-0.2030029296875,0.09454345703125,1.01348876953125
1630415920835,-0.208984375,0.0845947265625,1.01580810546875
1630415920835,-0.20709228515625,0.0982666015625,1.0020751953125
1630415920866,-0.226318359375,0.0960693359375,0.9818115234375
1630415920866,-0.2564697265625,0.0791015625,0.9390869140625
1630415920866,-0.2496337890625,0.086669921875,0.9615478515625
1630415920929,-0.2606201171875,0.05670166015625,0.9512939453125
1630415920929,-0.26361083984375,0.07696533203125,0.93658447265625
1630415920929,-0.26214599609375,0.0701904296875,0.94305419921875
1630415921022,-0.29296875,0.05419921875,0.903564453125
1630415921022,-0.266845703125,0.0533447265625,0.9300537109375
1630415921038,-0.30023193359375,0.05401611328125,0.900634765625
1630415921054,-0.29010009765625,0.0615234375,0.8916015625
1630415921069,-0.2896728515625,0.06817626953125,0.9276123046875
1630415921069,-0.2666015625,0.07940673828125,0.957763671875
1630415921100,-0.28033447265625,0.08282470703125,0.9486083984375
1630415921100,-0.270263671875,0.10455322265625,0.9588623046875
1630415921100,-0.2723388671875,0.09588623046875,0.9512939453125
1630415921210,-0.26544189453125,0.11309814453125,0.95391845703125
1630415921210,-0.2655029296875,0.11383056640625,0.9495849609375
1630415921210,-0.26837158203125,0.10986328125,0.95855712890625
1630415921225,-0.25433349609375,0.1004638671875,0.948486328125
1630415921225,-0.25506591796875,0.1043701171875,0.94317626953125
1630415921225,-0.26171875,0.10894775390625,0.94830322265625
1630415921272,-0.24591064453125,0.096923828125,0.9537353515625
1630415921272,-0.24652099609375,0.088623046875,0.97393798828125
1630415921272,-0.26202392578125,0.0894775390625,0.9461669921875
1630415921382,-0.23614501953125,0.08074951171875,0.9754638671875
1630415921382,-0.2366943359375,0.07977294921875,0.96612548828125
1630415921382,-0.2391357421875,0.0826416015625,0.97235107421875
1630415921413,-0.2330322265625,0.08319091796875,0.952880859375
1630415921413,-0.2293701171875,0.09185791015625,0.9808349609375
1630415921413,-0.23626708984375,0.0882568359375,0.9549560546875
1630415921475,-0.2181396484375,0.10406494140625,0.999755859375
1630415921475,-0.22369384765625,0.0947265625,0.98529052734375
1630415921475,-0.22821044921875,0.106689453125,0.99371337890625
1630415921522,-0.2279052734375,0.1143798828125,0.9696044921875
1630415921522,-0.2286376953125,0.11419677734375,0.9669189453125
1630415921522,-0.219482421875,0.11614990234375,0.98406982421875
1630415921588,-0.22528076171875,0.11431884765625,0.969970703125
1630415921603,-0.23162841796875,0.106201171875,0.95989990234375
1630415921603,-0.2274169921875,0.09912109375,0.95526123046875
1630415921634,-0.2325439453125,0.09466552734375,0.96624755859375
1630415921634,-0.2274169921875,0.0948486328125,0.9630126953125
1630415921634,-0.232666015625,0.0972900390625,0.96868896484375
1630415921744,-0.2225341796875,0.0914306640625,0.96832275390625
1630415921744,-0.22991943359375,0.08636474609375,0.96343994140625
1630415921744,-0.237060546875,0.0909423828125,0.96142578125
1630415921775,-0.2291259765625,0.09820556640625,0.97833251953125
1630415921775,-0.22528076171875,0.09130859375,0.97796630859375
1630415921775,-0.22601318359375,0.09857177734375,0.977294921875
1630415921806,-0.21710205078125,0.08868408203125,0.9833984375
1630415921806,-0.21282958984375,0.08270263671875,0.9678955078125
1630415921806,-0.21026611328125,0.0833740234375,0.96826171875
1630415921884,-0.22442626953125,0.0791015625,0.956787109375
1630415921884,-0.22125244140625,0.08428955078125,0.97442626953125
1630415921884,-0.2301025390625,0.082275390625,0.96197509765625
1630415921931,-0.22052001953125,0.0792236328125,0.970947265625
1630415921931,-0.219482421875,0.08062744140625,0.967529296875
1630415921931,-0.22100830078125,0.07598876953125,0.96026611328125
1630415922056,-0.2200927734375,0.08514404296875,0.9776611328125
1630415922056,-0.21875,0.08331298828125,0.97735595703125
1630415922056,-0.22088623046875,0.0850830078125,0.9769287109375
1630415922103,-0.220947265625,0.081787109375,0.96942138671875
1630415922103,-0.22271728515625,0.07904052734375,0.963134765625
1630415922103,-0.22332763671875,0.08319091796875,0.96063232421875
1630415922134,-0.22503662109375,0.0823974609375,0.96533203125
1630415922134,-0.22711181640625,0.08343505859375,0.9647216796875
1630415922150,-0.22491455078125,0.081787109375,0.968017578125
1630415922181,-0.2176513671875,0.08929443359375,0.97210693359375
1630415922181,-0.22174072265625,0.083984375,0.96905517578125
1630415922181,-0.21807861328125,0.08538818359375,0.96722412109375
1630415922228,-0.21014404296875,0.09161376953125,0.97802734375
1630415922228,-0.21185302734375,0.0921630859375,0.9747314453125
1630415922228,-0.2110595703125,0.09027099609375,0.977783203125
1630415922322,-0.2120361328125,0.08782958984375,0.98248291015625
1630415922322,-0.2137451171875,0.083984375,0.97906494140625
1630415922322,-0.2147216796875,0.08740234375,0.9825439453125
1630415922400,-0.2252197265625,0.08135986328125,0.96551513671875
1630415922400,-0.22259521484375,0.081787109375,0.96649169921875
1630415922400,-0.215087890625,0.083984375,0.9761962890625
1630415922415,-0.22308349609375,0.0814208984375,0.95880126953125
1630415922415,-0.22320556640625,0.08056640625,0.96160888671875
1630415922415,-0.226318359375,0.0787353515625,0.96240234375
1630415922492,-0.21820068359375,0.083251953125,0.97052001953125
1630415922492,-0.22064208984375,0.08367919921875,0.96142578125
1630415922492,-0.2176513671875,0.079833984375,0.9710693359375
1630415922523,-0.2138671875,0.08056640625,0.97979736328125
1630415922523,-0.2139892578125,0.0826416015625,0.98480224609375
1630415922540,-0.2137451171875,0.08160400390625,0.975830078125
1630415922571,-0.216064453125,0.0885009765625,0.97613525390625
1630415922571,-0.21600341796875,0.082275390625,0.9805908203125
1630415922571,-0.216796875,0.08251953125,0.98291015625
1630415922665,-0.21746826171875,0.08367919921875,0.97186279296875
1630415922681,-0.21673583984375,0.0855712890625,0.96331787109375
1630415922681,-0.2161865234375,0.08624267578125,0.96728515625
1630415922696,-0.2177734375,0.08001708984375,0.97515869140625
1630415922696,-0.220947265625,0.08392333984375,0.96771240234375
1630415922696,-0.2220458984375,0.0806884765625,0.9693603515625
1630415922759,-0.21697998046875,0.07904052734375,0.9677734375
1630415922759,-0.22174072265625,0.07806396484375,0.96893310546875
1630415922759,-0.22161865234375,0.0809326171875,0.9635009765625
1630415922885,-0.218017578125,0.0704345703125,0.9739990234375
1630415922885,-0.21990966796875,0.08087158203125,0.97442626953125
1630415922885,-0.21875,0.0760498046875,0.97369384765625
1630415922886,-0.22308349609375,0.078125,0.97210693359375
1630415922886,-0.21697998046875,0.0745849609375,0.97222900390625
1630415922886,-0.21588134765625,0.07928466796875,0.9686279296875
1630415922962,-0.21435546875,0.08294677734375,0.9715576171875
1630415922977,-0.21380615234375,0.08551025390625,0.97796630859375
1630415922977,-0.21868896484375,0.0802001953125,0.96929931640625
1630415923024,-0.2174072265625,0.087646484375,0.96795654296875
1630415923024,-0.2161865234375,0.08489990234375,0.97607421875
1630415923025,-0.2232666015625,0.08856201171875,0.9722900390625
1630415923070,-0.21746826171875,0.08807373046875,0.9705810546875
1630415923070,-0.22021484375,0.08392333984375,0.968505859375
1630415923070,-0.21820068359375,0.08831787109375,0.97418212890625
1630415923148,-0.21722412109375,0.08026123046875,0.968505859375
1630415923148,-0.221435546875,0.07720947265625,0.96337890625
1630415923148,-0.2235107421875,0.0762939453125,0.95965576171875
1630415923148,-0.224365234375,0.0792236328125,0.9569091796875
1630415923149,-0.21844482421875,0.07940673828125,0.970947265625
1630415923149,-0.223388671875,0.08270263671875,0.96429443359375
1630415923272,-0.216064453125,0.0772705078125,0.97418212890625
1630415923272,-0.21197509765625,0.07843017578125,0.979736328125
1630415923273,-0.2130126953125,0.07720947265625,0.98028564453125
1630415923304,-0.215576171875,0.08135986328125,0.9805908203125
1630415923304,-0.21331787109375,0.07916259765625,0.97906494140625
1630415923304,-0.214111328125,0.0831298828125,0.98321533203125
1630415923382,-0.21923828125,0.08428955078125,0.96905517578125
1630415923382,-0.2139892578125,0.08392333984375,0.97174072265625
1630415923382,-0.21307373046875,0.0819091796875,0.9801025390625
1630415923413,-0.2169189453125,0.08441162109375,0.9661865234375
1630415923413,-0.22222900390625,0.0838623046875,0.965087890625
1630415923413,-0.21783447265625,0.083251953125,0.973876953125
1630415923506,-0.2144775390625,0.0869140625,0.9781494140625
1630415923506,-0.2193603515625,0.085205078125,0.97747802734375
1630415923507,-0.218994140625,0.08575439453125,0.97674560546875
1630415923522,-0.21728515625,0.08319091796875,0.97918701171875
1630415923522,-0.21868896484375,0.08526611328125,0.97723388671875
1630415923522,-0.2183837890625,0.08526611328125,0.982421875
1630415923600,-0.2203369140625,0.0880126953125,0.9715576171875
1630415923600,-0.2205810546875,0.081787109375,0.9703369140625
1630415923600,-0.2154541015625,0.08209228515625,0.9742431640625
1630415923648,-0.216064453125,0.08746337890625,0.96240234375
1630415923648,-0.213134765625,0.09271240234375,0.96075439453125
1630415923649,-0.20660400390625,0.0966796875,0.969482421875
1630415923741,-0.20172119140625,0.099853515625,0.98052978515625
1630415923741,-0.19586181640625,0.09979248046875,0.9871826171875
1630415923741,-0.1927490234375,0.09912109375,0.99200439453125
1630415923819,-0.19268798828125,0.0986328125,1.0050048828125
1630415923819,-0.19354248046875,0.09765625,0.9901123046875
1630415923819,-0.1915283203125,0.0966796875,0.99188232421875
1630415923851,-0.1973876953125,0.084716796875,0.99169921875
1630415923851,-0.195068359375,0.0863037109375,0.9920654296875
1630415923852,-0.195556640625,0.090087890625,0.99102783203125
1630415923883,-0.1976318359375,0.0906982421875,1.00714111328125
1630415923883,-0.19610595703125,0.09222412109375,1.01336669921875
1630415923883,-0.19378662109375,0.09149169921875,1.0186767578125
1630415923930,-0.216796875,0.082763671875,0.99951171875
1630415923931,-0.2421875,0.0723876953125,0.97125244140625
1630415923931,-0.2342529296875,0.075927734375,0.98175048828125
1630415923962,-0.24981689453125,0.07293701171875,0.9544677734375
1630415923962,-0.28570556640625,0.06817626953125,0.93292236328125
1630415923962,-0.2569580078125,0.0687255859375,0.94427490234375
1630415924055,-0.305419921875,0.0682373046875,0.92535400390625
1630415924058,-0.31317138671875,0.07275390625,0.9251708984375
1630415924060,-0.32122802734375,0.06536865234375,0.9107666015625
1630415924102,-0.35870361328125,0.062744140625,0.92572021484375
1630415924102,-0.33697509765625,0.06805419921875,0.9031982421875
1630415924102,-0.3682861328125,0.06158447265625,0.93359375
1630415924181,-0.42218017578125,0.049560546875,0.87384033203125
1630415924181,-0.40478515625,0.05572509765625,0.8895263671875
1630415924181,-0.38470458984375,0.0643310546875,0.9122314453125
1630415924229,-0.459228515625,0.04010009765625,0.86236572265625
1630415924229,-0.4295654296875,0.041748046875,0.86749267578125
1630415924230,-0.429931640625,0.05181884765625,0.87164306640625
1630415924274,-0.4495849609375,0.0220947265625,0.85205078125
1630415924274,-0.46270751953125,0.04132080078125,0.87103271484375
1630415924275,-0.45721435546875,0.03228759765625,0.85980224609375
1630415924383,-0.447265625,0.01849365234375,0.84832763671875
1630415924383,-0.4525146484375,0.01641845703125,0.855224609375
1630415924383,-0.45538330078125,0.00634765625,0.8519287109375
1630415924429,-0.4498291015625,-0.00555419921875,0.84490966796875
1630415924430,-0.44805908203125,0.00482177734375,0.85614013671875
1630415924430,-0.44927978515625,-0.015869140625,0.8551025390625
1630415924538,-0.45050048828125,-0.03076171875,0.88653564453125
1630415924538,-0.449951171875,-0.04168701171875,0.92083740234375
1630415924538,-0.45025634765625,-0.0347900390625,0.90576171875
1630415924538,-0.448974609375,-0.04718017578125,0.927001953125
1630415924538,-0.4432373046875,-0.046142578125,0.9273681640625
1630415924539,-0.461669921875,-0.02569580078125,0.86602783203125
1630415924569,-0.4417724609375,-0.0618896484375,0.90277099609375
1630415924569,-0.44183349609375,-0.05743408203125,0.8978271484375
1630415924569,-0.44049072265625,-0.050537109375,0.90814208984375
1630415924661,-0.45703125,-0.0416259765625,0.91424560546875
1630415924661,-0.45196533203125,-0.0628662109375,0.90655517578125
1630415924661,-0.44378662109375,-0.066650390625,0.90069580078125
1630415924724,-0.45440673828125,-0.0098876953125,0.91192626953125
1630415924724,-0.453857421875,0.0166015625,0.90740966796875
1630415924724,-0.45599365234375,0.0328369140625,0.89678955078125
1630415924771,-0.45245361328125,0.0499267578125,0.89337158203125
1630415924771,-0.45416259765625,0.06597900390625,0.8927001953125
1630415924771,-0.45697021484375,0.07275390625,0.892578125
1630415924816,-0.44415283203125,0.0985107421875,0.87109375
1630415924816,-0.4542236328125,0.0845947265625,0.88433837890625
1630415924817,-0.43817138671875,0.10821533203125,0.87335205078125
1630415924957,-0.41552734375,0.13677978515625,0.90020751953125
1630415924957,-0.42041015625,0.1248779296875,0.9052734375
1630415924958,-0.4283447265625,0.11962890625,0.893798828125
1630415924988,-0.402099609375,0.18157958984375,0.8787841796875
1630415924988,-0.39630126953125,0.19976806640625,0.87554931640625
1630415924988,-0.4100341796875,0.15936279296875,0.8914794921875
1630415925004,-0.39447021484375,0.20318603515625,0.8592529296875
1630415925004,-0.39678955078125,0.20562744140625,0.8487548828125
1630415925005,-0.3961181640625,0.226806640625,0.8319091796875
1630415925036,-0.38958740234375,0.2548828125,0.84332275390625
1630415925036,-0.39892578125,0.23822021484375,0.83740234375
1630415925036,-0.39581298828125,0.2579345703125,0.8507080078125
1630415925128,-0.3951416015625,0.25006103515625,0.8382568359375
1630415925128,-0.4002685546875,0.255126953125,0.82806396484375
1630415925129,-0.4034423828125,0.26239013671875,0.8251953125
1630415925207,-0.407470703125,0.26873779296875,0.81988525390625
1630415925208,-0.42144775390625,0.2479248046875,0.8211669921875
1630415925208,-0.408447265625,0.2601318359375,0.81634521484375
1630415925241,-0.422607421875,0.23162841796875,0.81500244140625
1630415925241,-0.418701171875,0.228271484375,0.82586669921875
1630415925241,-0.41766357421875,0.216064453125,0.84161376953125
1630415925286,-0.4647216796875,0.1768798828125,0.85711669921875
1630415925286,-0.444580078125,0.19207763671875,0.86700439453125
1630415925286,-0.48480224609375,0.173095703125,0.80267333984375
1630415925380,-0.5625,0.1640625,0.66583251953125
1630415925380,-0.58636474609375,0.16046142578125,0.64300537109375
1630415925382,-0.518798828125,0.16748046875,0.72833251953125
1630415925431,-0.5306396484375,0.14984130859375,0.6812744140625
1630415925432,-0.4532470703125,0.16925048828125,0.8194580078125
1630415925432,-0.5753173828125,0.14947509765625,0.6488037109375
1630415925442,-0.37921142578125,0.17169189453125,1.0474853515625
1630415925443,-0.314453125,0.14654541015625,1.139404296875
1630415925444,-0.28515625,0.117919921875,1.0985107421875
1630415925521,-0.21917724609375,0.05029296875,1.1605224609375
1630415925521,-0.2476806640625,0.10528564453125,1.0330810546875
1630415925521,-0.22198486328125,0.0716552734375,1.06634521484375
1630415925643,-0.234619140625,0.0283203125,1.15216064453125
1630415925644,-0.25537109375,0.019775390625,1.13671875
1630415925644,-0.2283935546875,0.0302734375,1.19390869140625
1630415925658,-0.31744384765625,-0.01837158203125,0.98785400390625
1630415925658,-0.3009033203125,0.0048828125,1.0389404296875
1630415925658,-0.27593994140625,0.01458740234375,1.1097412109375
1630415925706,-0.28411865234375,-0.021240234375,0.90142822265625
1630415925706,-0.3004150390625,-0.03082275390625,0.970703125
1630415925706,-0.314697265625,-0.0357666015625,0.96832275390625
1630415925753,-0.268798828125,-0.00909423828125,0.80999755859375
1630415925754,-0.25830078125,0.0350341796875,0.8076171875
1630415925754,-0.2657470703125,0.0877685546875,0.85833740234375
1630415925801,-0.3238525390625,0.11529541015625,0.94476318359375
1630415925801,-0.29315185546875,0.0975341796875,0.85992431640625
1630415925803,-0.31927490234375,0.1053466796875,0.883056640625
1630415925910,-0.37994384765625,0.16571044921875,0.926025390625
1630415925912,-0.379638671875,0.15948486328125,0.99169921875
1630415925912,-0.333984375,0.11944580078125,0.930908203125
1630415925912,-0.345947265625,0.12945556640625,0.91046142578125
1630415925914,-0.3681640625,0.154541015625,0.89141845703125
1630415925918,-0.37066650390625,0.12811279296875,0.98504638671875
1630415926067,-0.30816650390625,0.1212158203125,0.94586181640625
1630415926067,-0.2427978515625,0.11761474609375,0.97705078125
1630415926068,-0.35235595703125,0.12322998046875,0.9638671875
1630415926083,-0.12689208984375,0.16192626953125,1.0308837890625
1630415926083,-0.20391845703125,0.1158447265625,1.02679443359375
1630415926098,-0.18035888671875,0.12884521484375,1.02239990234375
1630415926129,-0.02740478515625,0.18682861328125,1.10894775390625
1630415926130,-0.05157470703125,0.20294189453125,1.11138916015625
1630415926130,-0.0765380859375,0.186279296875,1.06256103515625
1630415926160,-0.01226806640625,0.07574462890625,1.02813720703125
1630415926160,-0.01666259765625,0.132568359375,1.08294677734375
1630415926160,-0.01947021484375,0.106201171875,1.0616455078125
1630415926223,-0.00347900390625,0.07440185546875,1.02349853515625
1630415926223,0.0050048828125,0.10516357421875,1.0185546875
1630415926223,0.01153564453125,0.1134033203125,0.99090576171875
1630415926284,0.043212890625,0.08099365234375,0.98455810546875
1630415926286,0.01953125,0.10772705078125,0.9766845703125
1630415926287,0.03997802734375,0.09918212890625,0.96331787109375
1630415926363,0.05291748046875,0.07421875,0.98370361328125
1630415926363,0.04730224609375,0.08319091796875,0.98138427734375
1630415926363,0.053466796875,0.07281494140625,0.97845458984375
1630415926454,0.0762939453125,0.118896484375,0.95672607421875
1630415926454,0.0927734375,0.12933349609375,0.9462890625
1630415926454,0.06280517578125,0.09283447265625,0.958251953125
1630415926470,0.00848388671875,0.1043701171875,0.89276123046875
1630415926472,0.04388427734375,0.114013671875,0.939208984375
1630415926501,0.06884765625,0.1256103515625,0.97381591796875
1630415926546,-0.1015625,0.07916259765625,0.9139404296875
1630415926547,-0.04449462890625,0.12060546875,0.8973388671875
1630415926547,-0.014404296875,0.11248779296875,0.8544921875
1630415926594,-0.267578125,0.0406494140625,0.8798828125
1630415926594,-0.17901611328125,0.0550537109375,0.8917236328125
1630415926594,-0.37164306640625,0.04327392578125,0.9693603515625
1630415926704,-0.40203857421875,0.0712890625,1.0341796875
1630415926705,-0.4344482421875,0.0595703125,1.0218505859375
1630415926706,-0.42474365234375,0.0703125,1.01702880859375
1630415926767,-0.27313232421875,0.09381103515625,1.126953125
1630415926767,-0.3380126953125,0.08935546875,1.086669921875
1630415926767,-0.38861083984375,0.0771484375,1.0540771484375
1630415926798,-0.2181396484375,0.05328369140625,1.098876953125
1630415926800,-0.22442626953125,0.100341796875,1.1378173828125
1630415926800,-0.20233154296875,0.08563232421875,1.117919921875
1630415926845,-0.28338623046875,-0.0074462890625,1.0220947265625
1630415926845,-0.260498046875,0.02447509765625,1.08941650390625
1630415926845,-0.33453369140625,-0.03558349609375,0.9483642578125
1630415926878,-0.40301513671875,-0.05767822265625,0.8798828125
1630415926878,-0.46185302734375,-0.05780029296875,0.8431396484375
1630415926879,-0.50543212890625,-0.03204345703125,0.87359619140625
1630415926956,-0.51898193359375,-0.05670166015625,0.90948486328125
1630415926956,-0.513671875,-0.0115966796875,0.92120361328125
1630415926957,-0.51348876953125,-0.0224609375,0.93072509765625
1630415927081,-0.49066162109375,-0.0338134765625,0.7869873046875
1630415927084,-0.50177001953125,-0.03863525390625,0.82049560546875
1630415927084,-0.52008056640625,-0.05926513671875,0.84893798828125
1630415927086,-0.49066162109375,-0.01019287109375,0.74853515625
1630415927087,-0.4794921875,-0.02154541015625,0.76007080078125
1630415927093,-0.52191162109375,-0.07232666015625,0.876708984375
1630415927127,-0.47369384765625,0.02716064453125,0.8243408203125
1630415927128,-0.48443603515625,0.01885986328125,0.77899169921875
1630415927128,-0.5052490234375,0.00311279296875,0.75872802734375
1630415927158,-0.48284912109375,0.03387451171875,0.845947265625
1630415927158,-0.52935791015625,0.04962158203125,0.83575439453125
1630415927159,-0.5145263671875,0.0423583984375,0.86431884765625
1630415927268,-0.5369873046875,0.0784912109375,0.77215576171875
1630415927268,-0.5325927734375,0.07769775390625,0.79278564453125
1630415927268,-0.53326416015625,0.06085205078125,0.80523681640625
1630415927300,-0.562744140625,0.17449951171875,0.69659423828125
1630415927300,-0.53277587890625,0.09222412109375,0.72540283203125
1630415927301,-0.52081298828125,0.12054443359375,0.68341064453125
1630415927333,-0.5723876953125,0.24041748046875,0.6661376953125
1630415927333,-0.59100341796875,0.24249267578125,0.6058349609375
1630415927333,-0.5770263671875,0.2655029296875,0.61993408203125
1630415927424,-0.65234375,0.230712890625,0.7222900390625
1630415927425,-0.6796875,0.21728515625,0.6727294921875
1630415927426,-0.64422607421875,0.2261962890625,0.635009765625
1630415927485,-0.6451416015625,0.17864990234375,0.86407470703125
1630415927485,-0.63861083984375,0.2191162109375,0.79827880859375
1630415927485,-0.64447021484375,0.1407470703125,0.8826904296875
1630415927517,-0.5396728515625,0.087158203125,0.83953857421875
1630415927517,-0.62725830078125,0.13446044921875,0.90594482421875
1630415927611,-0.4923095703125,0.12567138671875,0.85223388671875
1630415927611,-0.49530029296875,0.13214111328125,0.916748046875
1630415927612,-0.514404296875,0.09918212890625,0.8262939453125
1630415927658,-0.4759521484375,0.13238525390625,0.933349609375
1630415927658,-0.47930908203125,0.1112060546875,0.92572021484375
1630415927658,-0.50616455078125,0.0704345703125,0.9195556640625
1630415927705,-0.51800537109375,0.0347900390625,0.876953125
1630415927705,-0.542236328125,-0.021240234375,0.86920166015625
1630415927706,-0.530517578125,-0.00048828125,0.8504638671875
1630415927783,-0.5301513671875,-0.04254150390625,0.8211669921875
1630415927783,-0.5301513671875,-0.0357666015625,0.81048583984375
1630415927783,-0.54156494140625,-0.032470703125,0.85772705078125
1630415927814,-0.5343017578125,-0.02008056640625,0.81573486328125
1630415927814,-0.5400390625,0.0069580078125,0.8338623046875
1630415927814,-0.5321044921875,0.03277587890625,0.858642578125
1630415927909,-0.56549072265625,0.0579833984375,0.86712646484375
1630415927909,-0.5457763671875,0.0469970703125,0.87994384765625
1630415927909,-0.566650390625,0.055419921875,0.82904052734375
1630415927955,-0.604248046875,0.0252685546875,0.73895263671875
1630415927956,-0.58477783203125,0.03936767578125,0.7900390625
1630415927957,-0.5943603515625,0.0262451171875,0.75689697265625
1630415927987,-0.591796875,0.0311279296875,0.7449951171875
1630415927987,-0.57720947265625,0.03662109375,0.78985595703125
1630415927987,-0.57427978515625,0.04296875,0.78826904296875
1630415928098,-0.54443359375,0.06591796875,0.71551513671875
1630415928098,-0.556884765625,0.04248046875,0.75518798828125
1630415928147,-0.54290771484375,0.13897705078125,0.80804443359375
1630415928149,-0.53564453125,0.1259765625,0.76202392578125
1630415928149,-0.5501708984375,0.08978271484375,0.72845458984375
1630415928193,-0.57525634765625,0.0679931640625,0.9061279296875
1630415928193,-0.5640869140625,0.099853515625,0.89886474609375
1630415928193,-0.55810546875,0.1256103515625,0.865478515625
1630415928240,-0.5718994140625,0.04449462890625,0.85931396484375
1630415928241,-0.56634521484375,0.02093505859375,0.81072998046875
1630415928241,-0.56201171875,-0.006103515625,0.768310546875
1630415928410,-0.5399169921875,-0.02099609375,0.7584228515625
1630415928411,-0.53802490234375,-0.02471923828125,0.796875
1630415928411,-0.51251220703125,-0.04119873046875,0.8131103515625
1630415928412,-0.528076171875,-0.03753662109375,0.8231201171875
1630415928412,-0.50714111328125,-0.03436279296875,0.8349609375
1630415928435,-0.5155029296875,0.0069580078125,0.87939453125
1630415928439,-0.51544189453125,-0.04425048828125,0.828857421875
1630415928453,-0.5107421875,-0.0020751953125,0.861328125
1630415928455,-0.5042724609375,-0.0172119140625,0.8358154296875
1630415928458,-0.52630615234375,0.031005859375,0.9058837890625
1630415928459,-0.5140380859375,0.02667236328125,0.906005859375
1630415928471,-0.51141357421875,0.02056884765625,0.89288330078125
1630415928551,-0.5394287109375,0.0262451171875,0.90399169921875
1630415928551,-0.5361328125,0.04339599609375,0.89508056640625
1630415928551,-0.5291748046875,0.056396484375,0.88153076171875
1630415928583,-0.531005859375,0.06561279296875,0.8656005859375
1630415928583,-0.5367431640625,0.06005859375,0.7802734375
1630415928583,-0.52960205078125,0.06671142578125,0.82342529296875
1630415928661,-0.58868408203125,0.044677734375,0.70361328125
1630415928662,-0.57421875,0.0439453125,0.71246337890625
1630415928662,-0.5614013671875,0.0467529296875,0.73919677734375
1630415928724,-0.61279296875,0.04681396484375,0.745849609375
1630415928724,-0.62884521484375,0.04315185546875,0.75323486328125
1630415928724,-0.5877685546875,0.048095703125,0.70916748046875
1630415928787,-0.636474609375,0.02294921875,0.7474365234375
1630415928787,-0.6378173828125,0.03887939453125,0.75250244140625
1630415928787,-0.63909912109375,0.0352783203125,0.748046875
1630415928818,-0.6116943359375,-0.00115966796875,0.78485107421875
1630415928818,-0.62158203125,0.0091552734375,0.7607421875
1630415928818,-0.59771728515625,-0.0067138671875,0.79931640625
1630415928865,-0.58294677734375,-0.0189208984375,0.80865478515625
1630415928865,-0.58758544921875,-0.01739501953125,0.81768798828125
1630415928865,-0.589599609375,-0.01324462890625,0.808837890625
1630415928951,-0.5853271484375,-0.0135498046875,0.801513671875
1630415928952,-0.5919189453125,-0.00225830078125,0.77044677734375
1630415928954,-0.5853271484375,-0.01080322265625,0.78668212890625
1630415929053,-0.61114501953125,0.01837158203125,0.7529296875
1630415929054,-0.60198974609375,0.009521484375,0.75738525390625
1630415929068,-0.60906982421875,0.01483154296875,0.7557373046875
1630415929086,-0.6170654296875,0.02093505859375,0.76788330078125
1630415929087,-0.6263427734375,0.024658203125,0.77813720703125
1630415929087,-0.62579345703125,0.0184326171875,0.77532958984375
1630415929117,-0.61810302734375,0.03240966796875,0.7784423828125
1630415929117,-0.623779296875,0.0419921875,0.783203125
1630415929117,-0.6265869140625,0.0416259765625,0.79107666015625
1630415929163,-0.61749267578125,0.04742431640625,0.78765869140625
1630415929163,-0.60107421875,0.04461669921875,0.76715087890625
1630415929164,-0.608642578125,0.04876708984375,0.78912353515625
1630415929242,-0.62359619140625,0.01690673828125,0.76544189453125
1630415929242,-0.6112060546875,0.02532958984375,0.76275634765625
1630415929243,-0.6275634765625,0.02545166015625,0.78106689453125
1630415929352,-0.62847900390625,0.06201171875,0.82012939453125
1630415929352,-0.63397216796875,0.076904296875,0.8194580078125
1630415929353,-0.62103271484375,0.04693603515625,0.81182861328125
1630415929413,-0.621337890625,0.08441162109375,0.80755615234375
1630415929427,-0.62774658203125,0.07012939453125,0.80462646484375
1630415929427,-0.6207275390625,0.04656982421875,0.79083251953125
1630415929442,-0.62530517578125,0.021484375,0.7528076171875
1630415929442,-0.64031982421875,0.02001953125,0.7308349609375
1630415929443,-0.61846923828125,0.02813720703125,0.77508544921875
1630415929487,-0.6290283203125,0.0423583984375,0.6988525390625
1630415929487,-0.63525390625,0.0294189453125,0.6986083984375
1630415929488,-0.630859375,0.035888671875,0.69049072265625
1630415929518,-0.61669921875,0.04302978515625,0.7611083984375
1630415929518,-0.6121826171875,0.04693603515625,0.74981689453125
1630415929530,-0.61578369140625,0.04730224609375,0.72503662109375
1630415929597,-0.60614013671875,0.0380859375,0.742919921875
1630415929598,-0.59423828125,0.032958984375,0.71661376953125
1630415929599,-0.59295654296875,0.02471923828125,0.69879150390625
1630415929628,-0.61871337890625,0.011474609375,0.7315673828125
1630415929628,-0.6153564453125,0.01318359375,0.71600341796875
1630415929628,-0.59759521484375,0.01751708984375,0.694580078125
1630415929754,-0.6121826171875,0.02886962890625,0.7318115234375
1630415929754,-0.60302734375,0.0489501953125,0.735107421875
1630415929755,-0.60174560546875,0.06072998046875,0.75335693359375
1630415929816,-0.5911865234375,0.07244873046875,0.8017578125
1630415929816,-0.59716796875,0.07086181640625,0.763427734375
1630415929816,-0.57977294921875,0.07208251953125,0.816162109375
1630415929847,-0.53955078125,0.07061767578125,0.83935546875
1630415929847,-0.55108642578125,0.07208251953125,0.83648681640625
1630415929847,-0.56378173828125,0.0721435546875,0.83441162109375
1630415929878,-0.51507568359375,0.0469970703125,0.865966796875
1630415929878,-0.51837158203125,0.05133056640625,0.8543701171875
1630415929879,-0.52886962890625,0.06231689453125,0.84954833984375
1630415929962,-0.50933837890625,0.04046630859375,0.8681640625
1630415929963,-0.509765625,0.03192138671875,0.85150146484375
1630415929964,-0.5067138671875,0.0447998046875,0.8681640625
1630415930087,-0.5238037109375,0.02044677734375,0.842041015625
1630415930087,-0.52044677734375,0.0260009765625,0.83673095703125
1630415930087,-0.51513671875,0.02960205078125,0.839599609375
1630415930102,-0.52081298828125,0.0201416015625,0.845703125
1630415930102,-0.52520751953125,0.019775390625,0.85040283203125
1630415930102,-0.517822265625,0.02197265625,0.840087890625
1630415930149,-0.5096435546875,0.023681640625,0.836181640625
1630415930149,-0.49981689453125,0.025634765625,0.8533935546875
1630415930149,-0.49627685546875,0.02947998046875,0.87701416015625
1630415930180,-0.496337890625,0.02935791015625,0.88800048828125
1630415930180,-0.49298095703125,0.0311279296875,0.89154052734375
1630415930180,-0.4962158203125,0.03143310546875,0.88934326171875
1630415930258,-0.5020751953125,0.047607421875,0.860595703125
1630415930258,-0.4986572265625,0.0406494140625,0.87310791015625
1630415930274,-0.50274658203125,0.0335693359375,0.8802490234375
1630415930290,-0.513916015625,0.06048583984375,0.8619384765625
1630415930290,-0.5166015625,0.058349609375,0.84759521484375
1630415930290,-0.50494384765625,0.053955078125,0.85211181640625
1630415930368,-0.519287109375,0.0570068359375,0.835205078125
1630415930368,-0.52154541015625,0.0537109375,0.8333740234375
1630415930383,-0.52130126953125,0.05279541015625,0.82989501953125
1630415930415,-0.5218505859375,0.05108642578125,0.83465576171875
1630415930415,-0.528564453125,0.0374755859375,0.82354736328125
1630415930415,-0.52484130859375,0.04296875,0.835693359375
1630415930506,-0.53759765625,0.0233154296875,0.82098388671875
1630415930508,-0.52801513671875,0.032470703125,0.81182861328125
1630415930509,-0.53106689453125,0.02679443359375,0.8114013671875
1630415930524,-0.5440673828125,0.0135498046875,0.81976318359375
1630415930525,-0.54730224609375,0.01226806640625,0.80938720703125
1630415930525,-0.5482177734375,0.01397705078125,0.816162109375
1630415930617,-0.55120849609375,0.0169677734375,0.7969970703125
1630415930617,-0.55908203125,0.024169921875,0.78387451171875
1630415930632,-0.5555419921875,0.030029296875,0.77410888671875
1630415930659,-0.53826904296875,0.03656005859375,0.83929443359375
1630415930661,-0.5555419921875,0.03607177734375,0.79168701171875
1630415930661,-0.54644775390625,0.03436279296875,0.81988525390625
1630415930690,-0.52789306640625,0.0489501953125,0.85931396484375
1630415930691,-0.5379638671875,0.03375244140625,0.84979248046875
1630415930691,-0.532958984375,0.03948974609375,0.8551025390625
1630415930768,-0.5238037109375,0.05517578125,0.8690185546875
1630415930768,-0.5252685546875,0.05279541015625,0.8682861328125
1630415930768,-0.52655029296875,0.04608154296875,0.84954833984375
1630415930843,-0.52734375,0.04449462890625,0.8365478515625
1630415930843,-0.53338623046875,0.04339599609375,0.82989501953125
1630415930858,-0.53448486328125,0.037841796875,0.82244873046875
1630415930952,-0.53515625,0.02813720703125,0.8326416015625
1630415930952,-0.53216552734375,0.02783203125,0.842041015625
1630415930952,-0.5328369140625,0.03289794921875,0.831787109375
1630415931015,-0.52813720703125,0.03216552734375,0.84503173828125
1630415931015,-0.530029296875,0.02874755859375,0.841796875
1630415931015,-0.52935791015625,0.03411865234375,0.84039306640625
1630415931077,-0.5325927734375,0.03790283203125,0.83233642578125
1630415931093,-0.52880859375,0.0465087890625,0.81787109375
1630415931093,-0.53009033203125,0.04351806640625,0.8232421875
1630415931108,-0.5289306640625,0.04718017578125,0.830322265625
1630415931108,-0.52655029296875,0.05096435546875,0.822021484375
1630415931108,-0.5311279296875,0.0509033203125,0.8323974609375
1630415931140,-0.53814697265625,0.04443359375,0.83148193359375
1630415931140,-0.53582763671875,0.04193115234375,0.81964111328125
1630415931155,-0.53692626953125,0.0457763671875,0.82244873046875
1630415931202,-0.52874755859375,0.04217529296875,0.84063720703125
1630415931202,-0.53607177734375,0.04608154296875,0.8226318359375
1630415931202,-0.53375244140625,0.04327392578125,0.83123779296875
1630415931233,-0.5233154296875,0.03619384765625,0.83367919921875
1630415931249,-0.521240234375,0.0389404296875,0.83355712890625
1630415931249,-0.5294189453125,0.04107666015625,0.84185791015625
1630415931311,-0.52764892578125,0.0335693359375,0.83526611328125
1630415931311,-0.52001953125,0.0328369140625,0.83502197265625
1630415931311,-0.5211181640625,0.033935546875,0.8389892578125
1630415931358,-0.52410888671875,0.03265380859375,0.82781982421875
1630415931358,-0.52532958984375,0.031982421875,0.828369140625
1630415931358,-0.5242919921875,0.02862548828125,0.8267822265625
1630415931421,-0.52532958984375,0.0316162109375,0.8359375
1630415931421,-0.5274658203125,0.03173828125,0.8309326171875
1630415931421,-0.52484130859375,0.03411865234375,0.83111572265625
1630415931499,-0.5205078125,0.04010009765625,0.83294677734375
1630415931500,-0.518310546875,0.036376953125,0.8331298828125
1630415931500,-0.5262451171875,0.0322265625,0.835693359375
1630415931543,-0.52020263671875,0.0400390625,0.85052490234375
1630415931543,-0.51953125,0.03839111328125,0.83953857421875
1630415931543,-0.5145263671875,0.04205322265625,0.84326171875
1630415931652,-0.51556396484375,0.03521728515625,0.848388671875
1630415931652,-0.51483154296875,0.03594970703125,0.84765625
1630415931652,-0.5015869140625,0.0408935546875,0.84796142578125
1630415931652,-0.51080322265625,0.0389404296875,0.84771728515625
1630415931652,-0.50994873046875,0.038818359375,0.8458251953125
1630415931652,-0.50616455078125,0.0418701171875,0.84954833984375
1630415931730,-0.50311279296875,0.04681396484375,0.856201171875
1630415931730,-0.4996337890625,0.04681396484375,0.858642578125
1630415931730,-0.50152587890625,0.04876708984375,0.85321044921875
1630415931777,-0.49566650390625,0.052001953125,0.8614501953125
1630415931777,-0.4976806640625,0.0537109375,0.85821533203125
1630415931777,-0.5001220703125,0.050048828125,0.8538818359375
1630415931855,-0.4957275390625,0.050048828125,0.8516845703125
1630415931871,-0.4976806640625,0.05096435546875,0.8599853515625
1630415931871,-0.4989013671875,0.046875,0.8526611328125
1630415931902,-0.4931640625,0.04815673828125,0.85638427734375
1630415931902,-0.49566650390625,0.04791259765625,0.84881591796875
1630415931902,-0.498291015625,0.047607421875,0.8494873046875
1630415932012,-0.4871826171875,0.04840087890625,0.86083984375
1630415932012,-0.4901123046875,0.0521240234375,0.85882568359375
1630415932012,-0.49078369140625,0.046875,0.852783203125
1630415932076,-0.48248291015625,0.05169677734375,0.86785888671875
1630415932076,-0.48297119140625,0.048828125,0.865234375
1630415932092,-0.48260498046875,0.05218505859375,0.86663818359375
1630415932107,-0.486083984375,0.05157470703125,0.865478515625
1630415932107,-0.48406982421875,0.04931640625,0.86529541015625
1630415932107,-0.4866943359375,0.04791259765625,0.8609619140625
1630415932139,-0.483154296875,0.04986572265625,0.86737060546875
1630415932139,-0.47900390625,0.05145263671875,0.8621826171875
1630415932139,-0.48236083984375,0.05291748046875,0.865966796875
1630415932201,-0.4793701171875,0.0521240234375,0.8636474609375
1630415932201,-0.4794921875,0.050537109375,0.85919189453125
1630415932201,-0.48248291015625,0.05279541015625,0.86114501953125
1630415932232,-0.4776611328125,0.05499267578125,0.86572265625
1630415932232,-0.478271484375,0.05438232421875,0.86663818359375
1630415932232,-0.48004150390625,0.0528564453125,0.8724365234375
1630415932310,-0.47650146484375,0.04541015625,0.8695068359375
1630415932310,-0.4822998046875,0.05450439453125,0.86236572265625
1630415932310,-0.48089599609375,0.0538330078125,0.8697509765625
1630415932342,-0.48162841796875,0.04315185546875,0.8670654296875
1630415932342,-0.47760009765625,0.04425048828125,0.868408203125
1630415932342,-0.48138427734375,0.04852294921875,0.86474609375
1630415932475,-0.47235107421875,0.053466796875,0.8739013671875
1630415932475,-0.47796630859375,0.05145263671875,0.8690185546875
1630415932475,-0.47528076171875,0.05511474609375,0.87493896484375
1630415932527,-0.4727783203125,0.0574951171875,0.8681640625
1630415932527,-0.4739990234375,0.056640625,0.87158203125
1630415932545,-0.47210693359375,0.05718994140625,0.8748779296875
1630415932560,-0.47467041015625,0.0604248046875,0.87109375
1630415932560,-0.47796630859375,0.05255126953125,0.8682861328125
1630415932560,-0.4757080078125,0.05548095703125,0.8668212890625
1630415932607,-0.48370361328125,0.04644775390625,0.855224609375
1630415932623,-0.47845458984375,0.05450439453125,0.861083984375
1630415932623,-0.47857666015625,0.0491943359375,0.8553466796875
1630415932670,-0.48626708984375,0.0433349609375,0.8583984375
1630415932685,-0.48333740234375,0.0440673828125,0.85833740234375
1630415932685,-0.48193359375,0.044921875,0.85919189453125
1630415932732,-0.47503662109375,0.04736328125,0.8699951171875
1630415932732,-0.47979736328125,0.04779052734375,0.86004638671875
1630415932732,-0.481689453125,0.04693603515625,0.865478515625
1630415932763,-0.472412109375,0.04962158203125,0.8756103515625
1630415932763,-0.4700927734375,0.04901123046875,0.87738037109375
1630415932779,-0.47210693359375,0.04766845703125,0.87677001953125
1630415932873,-0.47967529296875,0.0474853515625,0.87054443359375
1630415932873,-0.4700927734375,0.04888916015625,0.87335205078125
1630415932873,-0.47393798828125,0.0494384765625,0.87359619140625
1630415932998,-0.48138427734375,0.05096435546875,0.86322021484375
1630415932998,-0.4840087890625,0.0540771484375,0.85760498046875
1630415932998,-0.4810791015625,0.05047607421875,0.867431640625
1630415932998,-0.48199462890625,0.05487060546875,0.859619140625
1630415932998,-0.485107421875,0.05340576171875,0.85882568359375
1630415933013,-0.483642578125,0.05377197265625,0.85693359375
1630415933029,-0.4862060546875,0.05780029296875,0.85723876953125
1630415933029,-0.484619140625,0.05914306640625,0.85894775390625
1630415933029,-0.4869384765625,0.05743408203125,0.855712890625
1630415933060,-0.4849853515625,0.05609130859375,0.85791015625
1630415933060,-0.48785400390625,0.0556640625,0.86431884765625
1630415933076,-0.487060546875,0.0478515625,0.86431884765625
1630415933154,-0.4814453125,0.0478515625,0.86602783203125
1630415933154,-0.48052978515625,0.0465087890625,0.86126708984375
1630415933154,-0.48211669921875,0.046630859375,0.86102294921875
1630415933232,-0.4769287109375,0.049072265625,0.87872314453125
1630415933232,-0.46826171875,0.04925537109375,0.8782958984375
1630415933248,-0.475830078125,0.05047607421875,0.86798095703125
1630415933248,-0.4674072265625,0.05194091796875,0.87750244140625
1630415933263,-0.4713134765625,0.05487060546875,0.87652587890625
1630415933263,-0.470947265625,0.05377197265625,0.87017822265625
1630415933314,-0.47235107421875,0.05523681640625,0.86590576171875
1630415933314,-0.481689453125,0.054443359375,0.86053466796875
1630415933314,-0.4735107421875,0.05487060546875,0.86090087890625
1630415933472,-0.4810791015625,0.05029296875,0.852783203125
1630415933473,-0.4814453125,0.0496826171875,0.8565673828125
1630415933473,-0.47833251953125,0.05438232421875,0.8546142578125
1630415933495,-0.47918701171875,0.0489501953125,0.854736328125
1630415933495,-0.4759521484375,0.05218505859375,0.861083984375
1630415933495,-0.47802734375,0.05078125,0.8592529296875
1630415933542,-0.47698974609375,0.05841064453125,0.86712646484375
1630415933542,-0.47314453125,0.05596923828125,0.86944580078125
1630415933542,-0.47467041015625,0.05853271484375,0.864013671875
1630415933573,-0.4678955078125,0.049560546875,0.87982177734375
1630415933573,-0.4716796875,0.05615234375,0.87384033203125
1630415933573,-0.4736328125,0.05316162109375,0.87725830078125
1630415933667,-0.4654541015625,0.046142578125,0.8797607421875
1630415933667,-0.46502685546875,0.04937744140625,0.87493896484375
1630415933667,-0.462158203125,0.0482177734375,0.87945556640625
1630415933667,-0.46954345703125,0.05108642578125,0.8828125
1630415933667,-0.46240234375,0.04461669921875,0.8819580078125
1630415933667,-0.470458984375,0.049560546875,0.87921142578125
1630415933729,-0.466064453125,0.05126953125,0.86944580078125
1630415933729,-0.46722412109375,0.051025390625,0.86407470703125
1630415933745,-0.46734619140625,0.05706787109375,0.869384765625
1630415933760,-0.4677734375,0.05963134765625,0.86920166015625
1630415933760,-0.46990966796875,0.05780029296875,0.866943359375
1630415933776,-0.469482421875,0.06134033203125,0.8690185546875
1630415933807,-0.4677734375,0.06201171875,0.87103271484375
1630415933807,-0.470458984375,0.06060791015625,0.871337890625
1630415933807,-0.4710693359375,0.06536865234375,0.8714599609375
1630415933885,-0.469970703125,0.0538330078125,0.8665771484375
1630415933885,-0.46929931640625,0.06243896484375,0.8660888671875
1630415933963,-0.4710693359375,0.0645751953125,0.86956787109375
1630415933963,-0.4635009765625,0.0709228515625,0.87060546875
1630415933963,-0.4700927734375,0.06939697265625,0.86907958984375
1630415934073,-0.4600830078125,0.07403564453125,0.87261962890625
1630415934073,-0.4615478515625,0.07611083984375,0.88006591796875
1630415934073,-0.45220947265625,0.07745361328125,0.88525390625
1630415934104,-0.45635986328125,0.05908203125,0.88531494140625
1630415934104,-0.45404052734375,0.06964111328125,0.88861083984375
1630415934104,-0.45074462890625,0.06524658203125,0.88543701171875
1630415934151,-0.45660400390625,0.0533447265625,0.8809814453125
1630415934166,-0.455078125,0.05010986328125,0.880615234375
1630415934166,-0.45880126953125,0.04473876953125,0.8763427734375
1630415934182,-0.4610595703125,0.04168701171875,0.8720703125
1630415934182,-0.4610595703125,0.04766845703125,0.8685302734375
1630415934182,-0.46044921875,0.04095458984375,0.87103271484375
1630415934260,-0.46185302734375,0.05584716796875,0.8746337890625
1630415934260,-0.462158203125,0.0560302734375,0.87322998046875
1630415934260,-0.46044921875,0.04864501953125,0.8712158203125
1630415934326,-0.46038818359375,0.05755615234375,0.8731689453125
1630415934326,-0.463623046875,0.06744384765625,0.87469482421875
1630415934326,-0.46038818359375,0.06549072265625,0.8702392578125
1630415934373,-0.46136474609375,0.07611083984375,0.8753662109375
1630415934373,-0.46429443359375,0.07373046875,0.87249755859375
1630415934373,-0.4599609375,0.07708740234375,0.876708984375
1630415934404,-0.46002197265625,0.07415771484375,0.881103515625
1630415934420,-0.45941162109375,0.06988525390625,0.880859375
1630415934420,-0.45684814453125,0.06597900390625,0.87811279296875
1630415934529,-0.458251953125,0.0621337890625,0.8736572265625
1630415934529,-0.45672607421875,0.05157470703125,0.87591552734375
1630415934529,-0.4564208984375,0.0478515625,0.881103515625
1630415934576,-0.45550537109375,0.04168701171875,0.87835693359375
1630415934576,-0.45989990234375,0.0401611328125,0.874267578125
1630415934576,-0.459716796875,0.03515625,0.87548828125
1630415934608,-0.46099853515625,0.02264404296875,0.86663818359375
1630415934608,-0.45526123046875,0.0306396484375,0.8709716796875
1630415934608,-0.45965576171875,0.03424072265625,0.87176513671875
1630415934701,-0.471923828125,0.02777099609375,0.85791015625
1630415934701,-0.4671630859375,0.0341796875,0.86309814453125
1630415934701,-0.47161865234375,0.01885986328125,0.86614990234375
1630415934748,-0.45086669921875,0.06201171875,0.88818359375
1630415934748,-0.45794677734375,0.0557861328125,0.8826904296875
1630415934748,-0.4613037109375,0.05364990234375,0.87298583984375
1630415934779,-0.450439453125,0.062255859375,0.8885498046875
1630415934779,-0.4505615234375,0.063232421875,0.88397216796875
1630415934795,-0.44915771484375,0.060302734375,0.885009765625
1630415934857,-0.44873046875,0.05950927734375,0.88629150390625
1630415934857,-0.45147705078125,0.05352783203125,0.88372802734375
1630415934857,-0.4486083984375,0.0576171875,0.88519287109375
1630415934889,-0.4517822265625,0.04522705078125,0.87786865234375
1630415934889,-0.4547119140625,0.05224609375,0.8812255859375
1630415934889,-0.4495849609375,0.04962158203125,0.8797607421875
1630415935014,-0.4515380859375,0.04986572265625,0.88104248046875
1630415935014,-0.451416015625,0.04937744140625,0.88067626953125
1630415935014,-0.4478759765625,0.04864501953125,0.876953125
1630415935060,-0.444580078125,0.0491943359375,0.8856201171875
1630415935060,-0.44732666015625,0.05291748046875,0.88092041015625
1630415935060,-0.451416015625,0.04541015625,0.8883056640625
1630415935092,-0.4473876953125,0.03857421875,0.8870849609375
1630415935092,-0.44659423828125,0.0439453125,0.8824462890625
1630415935107,-0.447021484375,0.0333251953125,0.88720703125
1630415935139,-0.44482421875,0.03387451171875,0.88800048828125
1630415935139,-0.44085693359375,0.05303955078125,0.88946533203125
1630415935139,-0.44671630859375,0.0245361328125,0.890380859375
1630415935201,-0.4444580078125,0.05072021484375,0.8856201171875
1630415935201,-0.44482421875,0.04742431640625,0.8883056640625
1630415935201,-0.4442138671875,0.05828857421875,0.88800048828125
1630415935264,-0.4384765625,0.04571533203125,0.89306640625
1630415935264,-0.4404296875,0.04656982421875,0.8895263671875
1630415935279,-0.44012451171875,0.04718017578125,0.88848876953125
1630415935326,-0.442138671875,0.0450439453125,0.8885498046875
1630415935326,-0.4384765625,0.04095458984375,0.88690185546875
1630415935326,-0.443603515625,0.043212890625,0.88653564453125
1630415935357,-0.4454345703125,0.0294189453125,0.88385009765625
1630415935357,-0.4464111328125,0.02886962890625,0.87896728515625
1630415935357,-0.4412841796875,0.033447265625,0.88775634765625
1630415935451,-0.44970703125,0.02130126953125,0.87188720703125
1630415935451,-0.44744873046875,0.0169677734375,0.87396240234375
1630415935451,-0.45025634765625,0.0093994140625,0.87518310546875
1630415935482,-0.4395751953125,0.02569580078125,0.88580322265625
1630415935482,-0.445556640625,0.02001953125,0.87982177734375
1630415935482,-0.450439453125,0.01397705078125,0.87908935546875
1630415935590,-0.43914794921875,0.02764892578125,0.89105224609375
1630415935590,-0.43316650390625,0.0374755859375,0.9000244140625
1630415935590,-0.43572998046875,0.0303955078125,0.89776611328125
1630415935605,-0.437744140625,0.03472900390625,0.893798828125
1630415935621,-0.434326171875,0.03253173828125,0.9046630859375
1630415935621,-0.435546875,0.03515625,0.89654541015625
1630415935683,-0.44744873046875,0.0321044921875,0.8819580078125
1630415935683,-0.4476318359375,0.0301513671875,0.88140869140625
1630415935683,-0.44256591796875,0.03228759765625,0.888427734375
1630415935730,-0.44610595703125,0.0308837890625,0.88006591796875
1630415935730,-0.44964599609375,0.03509521484375,0.87860107421875
1630415935730,-0.45074462890625,0.02984619140625,0.880615234375
1630415935793,-0.445556640625,0.04144287109375,0.880859375
1630415935793,-0.44915771484375,0.04119873046875,0.87908935546875
1630415935793,-0.445556640625,0.03875732421875,0.8812255859375
1630415935871,-0.447265625,0.04248046875,0.88275146484375
1630415935871,-0.44854736328125,0.03997802734375,0.8824462890625
1630415935871,-0.448486328125,0.04327392578125,0.87738037109375
1630415935933,-0.44866943359375,0.0401611328125,0.8792724609375
1630415935933,-0.447998046875,0.04150390625,0.8743896484375
1630415935933,-0.4515380859375,0.04229736328125,0.87835693359375
1630415935980,-0.44976806640625,0.036376953125,0.88055419921875
1630415935980,-0.4482421875,0.03765869140625,0.87646484375
1630415935980,-0.44976806640625,0.03851318359375,0.88055419921875
1630415936011,-0.4482421875,0.0372314453125,0.88861083984375
1630415936011,-0.44647216796875,0.03704833984375,0.88299560546875
1630415936011,-0.4410400390625,0.03594970703125,0.88983154296875
1630415936090,-0.4478759765625,0.028564453125,0.8839111328125
1630415936090,-0.44384765625,0.02264404296875,0.8837890625
1630415936105,-0.44500732421875,0.0308837890625,0.88323974609375
1630415936105,-0.44854736328125,0.028076171875,0.88885498046875
1630415936105,-0.44024658203125,0.0322265625,0.8880615234375
1630415936105,-0.44140625,0.03192138671875,0.88916015625
1630415936168,-0.44329833984375,0.0364990234375,0.88739013671875
1630415936168,-0.44232177734375,0.03497314453125,0.88848876953125
1630415936183,-0.44219970703125,0.0377197265625,0.88629150390625
1630415936277,-0.44366455078125,0.04119873046875,0.88519287109375
1630415936277,-0.44482421875,0.03851318359375,0.87994384765625
1630415936277,-0.44744873046875,0.03857421875,0.88348388671875
1630415936308,-0.448486328125,0.03802490234375,0.88079833984375
1630415936308,-0.44964599609375,0.03955078125,0.8790283203125
1630415936308,-0.44854736328125,0.035888671875,0.879150390625
1630415936375,-0.44964599609375,0.03326416015625,0.878662109375
1630415936375,-0.44970703125,0.0340576171875,0.876953125
1630415936375,-0.45355224609375,0.03143310546875,0.87786865234375
1630415936437,-0.44952392578125,0.0328369140625,0.87884521484375
1630415936437,-0.44659423828125,0.03814697265625,0.88360595703125
1630415936437,-0.44921875,0.03436279296875,0.87841796875
1630415936484,-0.4482421875,0.04156494140625,0.8924560546875
1630415936484,-0.447265625,0.0394287109375,0.8834228515625
1630415936484,-0.44403076171875,0.0386962890625,0.89007568359375
1630415936562,-0.44281005859375,0.0421142578125,0.88836669921875
1630415936562,-0.44525146484375,0.04327392578125,0.8922119140625
1630415936562,-0.44366455078125,0.040771484375,0.8905029296875
1630415936594,-0.447021484375,0.04156494140625,0.883056640625
1630415936596,-0.44451904296875,0.04034423828125,0.8822021484375
1630415936608,-0.44921875,0.03961181640625,0.88299560546875
1630415936720,-0.4476318359375,0.0423583984375,0.88189697265625
1630415936720,-0.44970703125,0.0396728515625,0.88201904296875
1630415936736,-0.44927978515625,0.042236328125,0.87786865234375
1630415936767,-0.44805908203125,0.03912353515625,0.87493896484375
1630415936767,-0.45086669921875,0.0391845703125,0.88250732421875
1630415936767,-0.44818115234375,0.0400390625,0.87908935546875
1630415936861,-0.4505615234375,0.0322265625,0.88134765625
1630415936861,-0.447509765625,0.0362548828125,0.88177490234375
1630415936861,-0.44952392578125,0.0347900390625,0.88287353515625
1630415936876,-0.44561767578125,0.03857421875,0.88092041015625
1630415936876,-0.44085693359375,0.04217529296875,0.88665771484375
1630415936876,-0.4439697265625,0.04107666015625,0.8822021484375
1630415936908,-0.443603515625,0.04437255859375,0.88653564453125
1630415936908,-0.44000244140625,0.04840087890625,0.89093017578125
1630415936908,-0.43865966796875,0.04815673828125,0.8880615234375
1630415937048,-0.43792724609375,0.048828125,0.894775390625
1630415937048,-0.4364013671875,0.04144287109375,0.88702392578125
1630415937048,-0.43695068359375,0.04425048828125,0.89239501953125
1630415937064,-0.44403076171875,0.039794921875,0.885498046875
1630415937064,-0.4415283203125,0.038818359375,0.88677978515625
1630415937064,-0.44573974609375,0.03253173828125,0.88665771484375
1630415937095,-0.444091796875,0.0296630859375,0.8834228515625
1630415937095,-0.44378662109375,0.0316162109375,0.88397216796875
1630415937095,-0.4453125,0.0335693359375,0.87835693359375
1630415937157,-0.44354248046875,0.03594970703125,0.88262939453125
1630415937157,-0.441650390625,0.03863525390625,0.87762451171875
1630415937157,-0.44879150390625,0.03643798828125,0.8782958984375
1630415937251,-0.44329833984375,0.037841796875,0.883544921875
1630415937251,-0.4439697265625,0.03961181640625,0.8858642578125
1630415937251,-0.44317626953125,0.03912353515625,0.8897705078125
1630415937298,-0.4432373046875,0.03509521484375,0.89105224609375
1630415937298,-0.44305419921875,0.03912353515625,0.88763427734375
1630415937298,-0.4453125,0.03826904296875,0.886962890625
1630415937361,-0.44744873046875,0.03863525390625,0.88702392578125
1630415937361,-0.4425048828125,0.037841796875,0.88531494140625
1630415937361,-0.4444580078125,0.03558349609375,0.88458251953125
1630415937380,-0.44732666015625,0.03985595703125,0.87945556640625
1630415937380,-0.44342041015625,0.03973388671875,0.88702392578125
1630415937380,-0.45013427734375,0.04071044921875,0.88525390625
1630415937395,-0.44793701171875,0.0411376953125,0.8741455078125
1630415937395,-0.44805908203125,0.03875732421875,0.88092041015625
1630415937395,-0.451904296875,0.04058837890625,0.881591796875
1630415937536,-0.450927734375,0.030029296875,0.87640380859375
1630415937536,-0.45281982421875,0.03167724609375,0.88531494140625
1630415937551,-0.44915771484375,0.03448486328125,0.877197265625
1630415937551,-0.44415283203125,0.042236328125,0.88348388671875
1630415937551,-0.44671630859375,0.03955078125,0.8795166015625
1630415937551,-0.4481201171875,0.041748046875,0.8818359375
1630415937629,-0.43939208984375,0.04656982421875,0.8818359375
1630415937645,-0.439697265625,0.05059814453125,0.88787841796875
1630415937645,-0.43804931640625,0.0504150390625,0.88800048828125
1630415937661,-0.43743896484375,0.04766845703125,0.8936767578125
1630415937661,-0.44207763671875,0.04840087890625,0.88885498046875
1630415937676,-0.43585205078125,0.0447998046875,0.89093017578125
1630415937755,-0.4403076171875,0.0447998046875,0.88763427734375
1630415937755,-0.44122314453125,0.0399169921875,0.88836669921875
1630415937864,-0.439208984375,0.03472900390625,0.8812255859375
1630415937864,-0.43792724609375,0.04400634765625,0.88958740234375
1630415937864,-0.437255859375,0.0443115234375,0.8890380859375
1630415937864,-0.44091796875,0.03302001953125,0.8818359375
1630415937864,-0.4459228515625,0.0347900390625,0.88232421875
1630415937864,-0.4404296875,0.04193115234375,0.88226318359375
1630415937895,-0.43499755859375,0.048583984375,0.89263916015625
1630415937895,-0.43572998046875,0.0452880859375,0.8919677734375
1630415937895,-0.43646240234375,0.043701171875,0.89642333984375
1630415937942,-0.44000244140625,0.03997802734375,0.8896484375
1630415937942,-0.43310546875,0.04364013671875,0.8922119140625
1630415937958,-0.4381103515625,0.04522705078125,0.89312744140625
1630415938020,-0.43634033203125,0.03759765625,0.8807373046875
1630415938020,-0.43548583984375,0.037109375,0.8890380859375
1630415938020,-0.43603515625,0.03668212890625,0.88201904296875
1630415938082,-0.4371337890625,0.04400634765625,0.8853759765625
1630415938082,-0.43536376953125,0.0430908203125,0.89068603515625
1630415938082,-0.43621826171875,0.0472412109375,0.88812255859375
1630415938161,-0.4354248046875,0.04229736328125,0.89141845703125
1630415938161,-0.43365478515625,0.04376220703125,0.890380859375
1630415938161,-0.43194580078125,0.04241943359375,0.8900146484375
1630415938192,-0.43914794921875,0.04364013671875,0.89068603515625
1630415938192,-0.43963623046875,0.03656005859375,0.89141845703125
1630415938192,-0.4365234375,0.03131103515625,0.88568115234375
1630415938270,-0.4395751953125,0.041015625,0.8868408203125
1630415938286,-0.43878173828125,0.03924560546875,0.88555908203125
1630415938286,-0.43719482421875,0.0413818359375,0.88671875
1630415938332,-0.4351806640625,0.041748046875,0.8831787109375
1630415938332,-0.44110107421875,0.0467529296875,0.88275146484375
1630415938348,-0.437255859375,0.0506591796875,0.88323974609375
1630415938400,-0.44110107421875,0.046875,0.88067626953125
1630415938416,-0.4354248046875,0.04705810546875,0.88818359375
1630415938416,-0.435791015625,0.04644775390625,0.88446044921875
1630415938447,-0.43994140625,0.04693603515625,0.8909912109375
1630415938447,-0.43743896484375,0.0477294921875,0.89044189453125
1630415938462,-0.4395751953125,0.04498291015625,0.88604736328125
1630415938525,-0.43707275390625,0.04315185546875,0.885986328125
1630415938540,-0.4365234375,0.04852294921875,0.88482666015625
1630415938540,-0.43896484375,0.04876708984375,0.8885498046875
1630415938556,-0.4359130859375,0.0462646484375,0.88214111328125
1630415938556,-0.43621826171875,0.04931640625,0.884033203125
1630415938556,-0.43267822265625,0.04425048828125,0.8857421875
1630415938650,-0.43389892578125,0.04302978515625,0.88665771484375
1630415938650,-0.432861328125,0.048828125,0.89215087890625
1630415938650,-0.43280029296875,0.04083251953125,0.89404296875
1630415938712,-0.42950439453125,0.03765869140625,0.88616943359375
1630415938712,-0.430419921875,0.0377197265625,0.88330078125
1630415938712,-0.4317626953125,0.04107666015625,0.88726806640625
1630415938775,-0.42535400390625,0.0350341796875,0.8916015625
1630415938775,-0.42578125,0.0367431640625,0.8927001953125
1630415938775,-0.4244384765625,0.03875732421875,0.89166259765625
1630415938790,-0.42083740234375,0.03985595703125,0.89947509765625
1630415938790,-0.41949462890625,0.04443359375,0.9041748046875
1630415938790,-0.42333984375,0.0404052734375,0.903076171875
1630415938884,-0.41839599609375,0.047607421875,0.9039306640625
1630415938884,-0.41522216796875,0.04217529296875,0.9024658203125
1630415938884,-0.4189453125,0.04656982421875,0.89892578125
1630415938931,-0.41937255859375,0.0460205078125,0.89202880859375
1630415938947,-0.416259765625,0.04974365234375,0.9014892578125
1630415938947,-0.41680908203125,0.04510498046875,0.8953857421875
1630415938978,-0.409912109375,0.05450439453125,0.913818359375
1630415938978,-0.41595458984375,0.053466796875,0.90289306640625
1630415938978,-0.41253662109375,0.0537109375,0.90673828125
1630415939009,-0.402099609375,0.05328369140625,0.9093017578125
1630415939009,-0.404296875,0.053955078125,0.9114990234375
1630415939009,-0.402587890625,0.05560302734375,0.91064453125
1630415939087,-0.4049072265625,0.0452880859375,0.91375732421875
1630415939087,-0.401123046875,0.046630859375,0.9136962890625
1630415939087,-0.40106201171875,0.04962158203125,0.9130859375
1630415939134,-0.41168212890625,0.04248046875,0.89862060546875
1630415939150,-0.41461181640625,0.035888671875,0.8935546875
1630415939197,-0.41357421875,0.04766845703125,0.891845703125
1630415939197,-0.41314697265625,0.04071044921875,0.89739990234375
1630415939212,-0.41522216796875,0.0460205078125,0.89471435546875
1630415939228,-0.41143798828125,0.05157470703125,0.89471435546875
1630415939228,-0.40643310546875,0.0479736328125,0.90338134765625
1630415939228,-0.405517578125,0.05316162109375,0.89776611328125
1630415939322,-0.4041748046875,0.0504150390625,0.90948486328125
1630415939322,-0.3992919921875,0.0504150390625,0.91754150390625
1630415939322,-0.4014892578125,0.04522705078125,0.91845703125
1630415939384,-0.4000244140625,0.04669189453125,0.90863037109375
1630415939384,-0.40234375,0.0458984375,0.912841796875
1630415939384,-0.40667724609375,0.04248046875,0.9039306640625
1630415939462,-0.40924072265625,0.0389404296875,0.90087890625
1630415939462,-0.4141845703125,0.0426025390625,0.892578125
1630415939478,-0.41619873046875,0.04180908203125,0.88995361328125
1630415939509,-0.41302490234375,0.043701171875,0.89111328125
1630415939509,-0.41827392578125,0.041259765625,0.88677978515625
1630415939509,-0.42193603515625,0.0413818359375,0.887451171875
1630415939556,-0.41314697265625,0.04302978515625,0.89910888671875
1630415939556,-0.4063720703125,0.04351806640625,0.90521240234375
1630415939556,-0.41204833984375,0.04315185546875,0.8970947265625
1630415939618,-0.40435791015625,0.03448486328125,0.908935546875
1630415939634,-0.40826416015625,0.04071044921875,0.91143798828125
1630415939634,-0.4058837890625,0.037841796875,0.9124755859375
1630415939665,-0.4075927734375,0.03692626953125,0.9066162109375
1630415939665,-0.40655517578125,0.0400390625,0.91033935546875
1630415939665,-0.4052734375,0.031005859375,0.9053955078125
1630415939743,-0.4036865234375,0.0430908203125,0.90875244140625
1630415939743,-0.40545654296875,0.0421142578125,0.90789794921875
1630415939743,-0.40472412109375,0.048828125,0.90423583984375
1630415939775,-0.40606689453125,0.0576171875,0.90692138671875
1630415939775,-0.4073486328125,0.057861328125,0.90472412109375
1630415939775,-0.40289306640625,0.0545654296875,0.9014892578125
1630415939853,-0.4112548828125,0.05517578125,0.90045166015625
1630415939868,-0.40838623046875,0.05694580078125,0.89935302734375
1630415939868,-0.40570068359375,0.055419921875,0.89874267578125
1630415939900,-0.414794921875,0.05145263671875,0.89202880859375
1630415939900,-0.4130859375,0.049072265625,0.89312744140625
1630415939915,-0.41070556640625,0.0496826171875,0.8963623046875
1630415939962,-0.41400146484375,0.04754638671875,0.8958740234375
1630415939962,-0.41009521484375,0.04736328125,0.89630126953125
1630415939962,-0.41046142578125,0.0467529296875,0.8955078125
1630415940040,-0.4095458984375,0.047607421875,0.89892578125
1630415940040,-0.40802001953125,0.05328369140625,0.90106201171875
1630415940056,-0.40765380859375,0.05389404296875,0.9051513671875
1630415940087,-0.4072265625,0.0546875,0.90625
1630415940087,-0.40185546875,0.05328369140625,0.90789794921875
1630415940087,-0.40216064453125,0.055908203125,0.9107666015625
1630415940181,-0.40478515625,0.0521240234375,0.91339111328125
1630415940181,-0.40753173828125,0.051025390625,0.9033203125
1630415940181,-0.4051513671875,0.0504150390625,0.91015625
1630415940181,-0.4051513671875,0.04974365234375,0.9041748046875
1630415940181,-0.40679931640625,0.05206298828125,0.90557861328125
1630415940181,-0.4044189453125,0.052978515625,0.9122314453125
1630415940290,-0.412109375,0.0513916015625,0.892822265625
1630415940290,-0.41009521484375,0.04931640625,0.89788818359375
1630415940290,-0.409423828125,0.052001953125,0.90191650390625
1630415940337,-0.41339111328125,0.05047607421875,0.89630126953125
1630415940337,-0.41534423828125,0.05084228515625,0.89849853515625
1630415940353,-0.4129638671875,0.04656982421875,0.89654541015625
1630415940399,-0.41241455078125,0.04193115234375,0.8924560546875
1630415940399,-0.4095458984375,0.0457763671875,0.89654541015625
1630415940399,-0.410888671875,0.0433349609375,0.8951416015625
1630415940446,-0.4049072265625,0.0472412109375,0.904296875
1630415940446,-0.40582275390625,0.04669189453125,0.9000244140625
1630415940446,-0.40234375,0.05255126953125,0.9033203125
1630415940493,-0.3956298828125,0.057861328125,0.91156005859375
1630415940493,-0.40264892578125,0.0565185546875,0.91351318359375
1630415940493,-0.40380859375,0.05523681640625,0.9100341796875
1630415940556,-0.393310546875,0.052978515625,0.9166259765625
1630415940556,-0.3966064453125,0.05047607421875,0.915283203125
1630415940556,-0.39813232421875,0.0565185546875,0.9200439453125
1630415940618,-0.4005126953125,0.0499267578125,0.9119873046875
1630415940634,-0.400146484375,0.03857421875,0.9031982421875
1630415940634,-0.40093994140625,0.0408935546875,0.9068603515625
1630415940727,-0.40460205078125,0.03704833984375,0.89910888671875
1630415940727,-0.40814208984375,0.04034423828125,0.89691162109375
1630415940727,-0.40264892578125,0.03680419921875,0.89617919921875
1630415940743,-0.40185546875,0.042236328125,0.9058837890625
1630415940743,-0.40411376953125,0.0439453125,0.8973388671875
1630415940743,-0.4063720703125,0.03759765625,0.89501953125
1630415940837,-0.40093994140625,0.041259765625,0.911865234375
1630415940837,-0.401611328125,0.0435791015625,0.90850830078125
1630415940837,-0.39825439453125,0.04364013671875,0.90863037109375
1630415940852,-0.4013671875,0.0478515625,0.9095458984375
1630415940852,-0.40252685546875,0.0457763671875,0.90570068359375
1630415940852,-0.3994140625,0.04510498046875,0.906982421875
1630415940931,-0.4033203125,0.0496826171875,0.908935546875
1630415940931,-0.39654541015625,0.05181884765625,0.90692138671875
1630415940946,-0.4053955078125,0.05145263671875,0.90985107421875
1630415940993,-0.40289306640625,0.05474853515625,0.90618896484375
1630415940993,-0.4046630859375,0.05218505859375,0.90380859375
1630415940993,-0.3985595703125,0.052978515625,0.9066162109375
1630415941056,-0.4071044921875,0.048828125,0.90625
1630415941056,-0.405517578125,0.0474853515625,0.903564453125
1630415941056,-0.4072265625,0.0531005859375,0.9052734375
1630415941118,-0.40960693359375,0.04168701171875,0.8970947265625
1630415941118,-0.40875244140625,0.0498046875,0.89508056640625
1630415941134,-0.4091796875,0.04205322265625,0.898681640625
1630415941196,-0.40545654296875,0.05316162109375,0.8995361328125
1630415941196,-0.40771484375,0.0518798828125,0.896484375
1630415941196,-0.41033935546875,0.0523681640625,0.89862060546875
1630415941212,-0.4058837890625,0.05499267578125,0.90032958984375
1630415941212,-0.404296875,0.05487060546875,0.9029541015625
1630415941212,-0.407470703125,0.056396484375,0.90386962890625
1630415941274,-0.3961181640625,0.05560302734375,0.91204833984375
1630415941274,-0.4002685546875,0.055908203125,0.9114990234375
1630415941274,-0.39874267578125,0.0548095703125,0.9090576171875
1630415941305,-0.40057373046875,0.0472412109375,0.91253662109375
1630415941305,-0.40545654296875,0.04815673828125,0.90484619140625
1630415941305,-0.3988037109375,0.04559326171875,0.912353515625
1630415941418,-0.40533447265625,0.0478515625,0.90374755859375
1630415941418,-0.40435791015625,0.046142578125,0.90472412109375
1630415941418,-0.40582275390625,0.04925537109375,0.90087890625
1630415941449,-0.404296875,0.04559326171875,0.90386962890625
1630415941449,-0.4012451171875,0.04864501953125,0.901611328125
1630415941449,-0.4033203125,0.04638671875,0.90936279296875
1630415941512,-0.39990234375,0.04339599609375,0.90875244140625
1630415941512,-0.398193359375,0.0460205078125,0.9127197265625
1630415941512,-0.3968505859375,0.04681396484375,0.911376953125
1630415941543,-0.39813232421875,0.04547119140625,0.91302490234375
1630415941543,-0.3975830078125,0.04498291015625,0.9107666015625
1630415941543,-0.39630126953125,0.04644775390625,0.90936279296875
1630415941668,-0.40399169921875,0.043212890625,0.89959716796875
1630415941668,-0.40069580078125,0.04302978515625,0.897705078125
1630415941668,-0.4007568359375,0.044189453125,0.90679931640625
1630415941668,-0.4029541015625,0.0458984375,0.90289306640625
1630415941668,-0.4041748046875,0.04229736328125,0.90057373046875
1630415941668,-0.39910888671875,0.0474853515625,0.89794921875
1630415941761,-0.39630126953125,0.044921875,0.90533447265625
1630415941777,-0.3978271484375,0.0537109375,0.9088134765625
1630415941777,-0.39617919921875,0.05059814453125,0.90948486328125
1630415941793,-0.3983154296875,0.0455322265625,0.907958984375
1630415941808,-0.39727783203125,0.0506591796875,0.91241455078125
1630415941808,-0.39581298828125,0.04638671875,0.9091796875
1630415941886,-0.40087890625,0.04730224609375,0.90478515625
1630415941886,-0.39501953125,0.04412841796875,0.91094970703125
1630415941886,-0.3951416015625,0.04351806640625,0.91375732421875
1630415941918,-0.39306640625,0.044677734375,0.9176025390625
1630415941933,-0.3900146484375,0.04736328125,0.91705322265625
1630415941933,-0.3934326171875,0.04547119140625,0.91607666015625
1630415941965,-0.39154052734375,0.0450439453125,0.9166259765625
1630415941965,-0.39605712890625,0.04254150390625,0.90496826171875
1630415941965,-0.39373779296875,0.04779052734375,0.91302490234375
1630415942011,-0.39617919921875,0.0418701171875,0.90380859375
1630415942011,-0.39459228515625,0.04669189453125,0.90472412109375
1630415942011,-0.39630126953125,0.0440673828125,0.90869140625
1630415942058,-0.39947509765625,0.0439453125,0.8970947265625
1630415942058,-0.4007568359375,0.04840087890625,0.90142822265625
1630415942059,-0.40252685546875,0.0426025390625,0.901123046875
1630415942170,-0.39764404296875,0.0439453125,0.90277099609375
1630415942170,-0.39715576171875,0.04632568359375,0.90484619140625
1630415942170,-0.3963623046875,0.0452880859375,0.90606689453125
1630415942201,-0.3909912109375,0.0455322265625,0.9146728515625
1630415942201,-0.3857421875,0.05108642578125,0.9228515625
1630415942201,-0.3902587890625,0.050048828125,0.9222412109375
1630415942295,-0.39288330078125,0.0501708984375,0.91876220703125
1630415942295,-0.38958740234375,0.0478515625,0.92041015625
1630415942310,-0.38861083984375,0.04962158203125,0.922607421875
1630415942357,-0.39093017578125,0.05108642578125,0.91455078125
1630415942357,-0.3939208984375,0.05126953125,0.90826416015625
1630415942357,-0.39715576171875,0.05255126953125,0.90814208984375
1630415942373,-0.39849853515625,0.0526123046875,0.90362548828125
1630415942373,-0.39288330078125,0.0540771484375,0.90576171875
1630415942373,-0.398193359375,0.05419921875,0.90032958984375
1630415942459,-0.39990234375,0.0543212890625,0.90191650390625
1630415942459,-0.4031982421875,0.0555419921875,0.905029296875
1630415942459,-0.39825439453125,0.05389404296875,0.899169921875
1630415942506,-0.40032958984375,0.05596923828125,0.90142822265625
1630415942506,-0.39862060546875,0.05963134765625,0.9041748046875
1630415942506,-0.39935302734375,0.0562744140625,0.90753173828125
1630415942584,-0.3941650390625,0.0589599609375,0.91070556640625
1630415942584,-0.3988037109375,0.058349609375,0.9063720703125
1630415942584,-0.3973388671875,0.05572509765625,0.89971923828125
1630415942599,-0.39483642578125,0.06134033203125,0.9111328125
1630415942615,-0.39398193359375,0.06097412109375,0.91302490234375
1630415942615,-0.39617919921875,0.059814453125,0.9114990234375
1630415942740,-0.39154052734375,0.06256103515625,0.91668701171875
1630415942740,-0.3927001953125,0.06402587890625,0.918212890625
1630415942755,-0.3895263671875,0.0633544921875,0.911376953125
1630415942787,-0.3975830078125,0.04473876953125,0.91046142578125
1630415942787,-0.395751953125,0.04119873046875,0.90911865234375
1630415942787,-0.39739990234375,0.048828125,0.9107666015625
1630415942802,-0.3953857421875,0.048583984375,0.9107666015625
1630415942802,-0.39068603515625,0.05706787109375,0.9158935546875
1630415942802,-0.38970947265625,0.0579833984375,0.90960693359375
1630415942849,-0.3966064453125,0.0374755859375,0.90081787109375
1630415942865,-0.397216796875,0.03704833984375,0.89593505859375
1630415942865,-0.3997802734375,0.0384521484375,0.89788818359375
1630415942927,-0.39459228515625,0.03765869140625,0.9024658203125
1630415942927,-0.39569091796875,0.04132080078125,0.90374755859375
1630415942927,-0.39300537109375,0.04400634765625,0.90924072265625
1630415943021,-0.3922119140625,0.0404052734375,0.91180419921875
1630415943021,-0.40045166015625,0.04193115234375,0.90667724609375
1630415943021,-0.39599609375,0.046630859375,0.91033935546875
1630415943052,-0.39617919921875,0.04107666015625,0.915283203125
1630415943052,-0.3924560546875,0.04046630859375,0.913330078125
1630415943052,-0.39251708984375,0.037353515625,0.9127197265625
1630415943099,-0.39080810546875,0.03192138671875,0.908203125
1630415943099,-0.39703369140625,0.03173828125,0.90191650390625
1630415943099,-0.39349365234375,0.037841796875,0.907470703125
1630415943115,-0.39892578125,0.0382080078125,0.90716552734375
1630415943131,-0.39276123046875,0.033447265625,0.90484619140625
1630415943131,-0.3939208984375,0.0382080078125,0.90618896484375
1630415943224,-0.3995361328125,0.03790283203125,0.90338134765625
1630415943224,-0.39501953125,0.03924560546875,0.906494140625
1630415943224,-0.39801025390625,0.04193115234375,0.91314697265625
1630415943255,-0.39373779296875,0.0401611328125,0.91973876953125
1630415943255,-0.3956298828125,0.03497314453125,0.910400390625
1630415943255,-0.39532470703125,0.03546142578125,0.9110107421875
1630415943333,-0.39337158203125,0.038330078125,0.91058349609375
1630415943333,-0.39215087890625,0.039306640625,0.9136962890625
1630415943349,-0.384765625,0.044921875,0.9091796875
1630415943380,-0.39349365234375,0.04791259765625,0.91192626953125
1630415943380,-0.3939208984375,0.04534912109375,0.91064453125
1630415943380,-0.39141845703125,0.0423583984375,0.9154052734375
1630415943525,-0.39471435546875,0.0443115234375,0.907470703125
1630415943525,-0.39544677734375,0.04534912109375,0.90771484375
1630415943525,-0.39373779296875,0.049560546875,0.90740966796875
1630415943525,-0.39263916015625,0.0501708984375,0.90948486328125
1630415943525,-0.39410400390625,0.0501708984375,0.9095458984375
1630415943540,-0.3939208984375,0.04638671875,0.90863037109375
1630415943587,-0.3912353515625,0.03448486328125,0.908447265625
1630415943587,-0.39349365234375,0.04022216796875,0.90850830078125
1630415943587,-0.39031982421875,0.0350341796875,0.90850830078125
1630415943619,-0.39251708984375,0.03436279296875,0.90777587890625
1630415943619,-0.3876953125,0.0330810546875,0.91448974609375
1630415943619,-0.38787841796875,0.03839111328125,0.91058349609375
1630415943728,-0.38970947265625,0.03656005859375,0.9130859375
1630415943728,-0.3858642578125,0.03436279296875,0.91650390625
1630415943728,-0.38787841796875,0.0352783203125,0.91485595703125
1630415943744,-0.3858642578125,0.04022216796875,0.91546630859375
1630415943744,-0.38824462890625,0.03790283203125,0.91632080078125
1630415943759,-0.38665771484375,0.03802490234375,0.91473388671875
1630415943790,-0.385986328125,0.036376953125,0.91064453125
1630415943790,-0.3878173828125,0.03765869140625,0.91094970703125
1630415943790,-0.38934326171875,0.0367431640625,0.91412353515625
1630415943853,-0.38787841796875,0.03704833984375,0.91119384765625
1630415943853,-0.39007568359375,0.03778076171875,0.91497802734375
1630415943853,-0.3851318359375,0.03643798828125,0.914794921875
1630415943931,-0.38958740234375,0.03778076171875,0.9139404296875
1630415943931,-0.384765625,0.0411376953125,0.91436767578125
1630415943931,-0.38775634765625,0.0361328125,0.91534423828125
1630415943994,-0.39068603515625,0.03680419921875,0.919189453125
1630415943994,-0.3848876953125,0.04034423828125,0.9188232421875
1630415944009,-0.389404296875,0.03814697265625,0.91607666015625
1630415944056,-0.3883056640625,0.033203125,0.91259765625
1630415944056,-0.3883056640625,0.040771484375,0.9090576171875
1630415944056,-0.38922119140625,0.04168701171875,0.91009521484375
1630415944087,-0.3902587890625,0.04022216796875,0.90924072265625
1630415944087,-0.3887939453125,0.04046630859375,0.91162109375
1630415944087,-0.3912353515625,0.0390625,0.91217041015625
1630415944134,-0.38800048828125,0.04107666015625,0.90869140625
1630415944134,-0.38446044921875,0.0391845703125,0.91400146484375
1630415944134,-0.387939453125,0.03985595703125,0.90966796875
1630415944228,-0.38665771484375,0.0391845703125,0.9180908203125
1630415944228,-0.386474609375,0.03741455078125,0.91314697265625
1630415944306,-0.38702392578125,0.03759765625,0.91082763671875
1630415944306,-0.38763427734375,0.035400390625,0.915771484375
1630415944306,-0.38525390625,0.03887939453125,0.91436767578125
1630415944368,-0.38336181640625,0.0435791015625,0.91204833984375
1630415944368,-0.3868408203125,0.03515625,0.90960693359375
1630415944368,-0.38916015625,0.044677734375,0.9090576171875
1630415944415,-0.38201904296875,0.04925537109375,0.92291259765625
1630415944431,-0.38470458984375,0.04827880859375,0.91448974609375
1630415944431,-0.3770751953125,0.046630859375,0.92095947265625
1630415944446,-0.38006591796875,0.04925537109375,0.9208984375
1630415944466,-0.38165283203125,0.04779052734375,0.919189453125
1630415944466,-0.38165283203125,0.0465087890625,0.9202880859375
1630415944497,-0.380615234375,0.049072265625,0.920654296875
1630415944497,-0.38238525390625,0.050537109375,0.91571044921875
1630415944497,-0.38055419921875,0.0494384765625,0.91845703125
1630415944560,-0.380126953125,0.04925537109375,0.9093017578125
1630415944560,-0.3892822265625,0.0487060546875,0.911376953125
1630415944560,-0.3824462890625,0.04949951171875,0.90985107421875
1630415944653,-0.3858642578125,0.04986572265625,0.9127197265625
1630415944653,-0.3837890625,0.0484619140625,0.91082763671875
1630415944653,-0.3853759765625,0.0479736328125,0.91265869140625
1630415944685,-0.38677978515625,0.048095703125,0.91351318359375
1630415944685,-0.38653564453125,0.04931640625,0.9141845703125
1630415944701,-0.3807373046875,0.04791259765625,0.916259765625
1630415944716,-0.389404296875,0.03948974609375,0.9068603515625
1630415944716,-0.38665771484375,0.03814697265625,0.9132080078125
1630415944716,-0.38800048828125,0.03582763671875,0.91204833984375
1630415944825,-0.3875732421875,0.04620361328125,0.91058349609375
1630415944825,-0.38629150390625,0.0435791015625,0.91302490234375
1630415944825,-0.38531494140625,0.04901123046875,0.91705322265625
1630415944841,-0.384521484375,0.05023193359375,0.915283203125
1630415944841,-0.384521484375,0.05511474609375,0.91851806640625
1630415944841,-0.38482666015625,0.0562744140625,0.91693115234375
1630415944919,-0.3846435546875,0.05084228515625,0.91644287109375
1630415944919,-0.383056640625,0.0528564453125,0.91632080078125
1630415944935,-0.38580322265625,0.05731201171875,0.91259765625
1630415944966,-0.386962890625,0.0494384765625,0.91839599609375
1630415944966,-0.388671875,0.0465087890625,0.9114990234375
1630415944966,-0.390625,0.04547119140625,0.907958984375
1630415945107,-0.38934326171875,0.04071044921875,0.90594482421875
1630415945107,-0.38677978515625,0.03802490234375,0.90972900390625
1630415945122,-0.387939453125,0.03814697265625,0.90972900390625
1630415945122,-0.39019775390625,0.03790283203125,0.91015625
1630415945122,-0.38897705078125,0.038330078125,0.91015625
1630415945138,-0.390625,0.0389404296875,0.90740966796875
1630415945169,-0.3873291015625,0.03912353515625,0.91546630859375
1630415945169,-0.38946533203125,0.03668212890625,0.91314697265625
1630415945169,-0.38958740234375,0.046875,0.91973876953125
1630415945201,-0.3851318359375,0.04595947265625,0.9171142578125
1630415945201,-0.3876953125,0.0440673828125,0.91729736328125
1630415945201,-0.3895263671875,0.0482177734375,0.914306640625
1630415945310,-0.3914794921875,0.04486083984375,0.9073486328125
1630415945310,-0.3902587890625,0.04071044921875,0.9075927734375
1630415945325,-0.39031982421875,0.0426025390625,0.9136962890625
1630415945341,-0.39117431640625,0.04364013671875,0.90972900390625
1630415945341,-0.38629150390625,0.04547119140625,0.90740966796875
1630415945341,-0.38751220703125,0.04248046875,0.90716552734375
1630415945419,-0.38482666015625,0.0479736328125,0.91571044921875
1630415945419,-0.39093017578125,0.04852294921875,0.91290283203125
1630415945419,-0.38507080078125,0.0462646484375,0.91357421875
1630415945435,-0.38775634765625,0.04730224609375,0.91845703125
1630415945435,-0.38836669921875,0.03582763671875,0.9119873046875
1630415945435,-0.3895263671875,0.0416259765625,0.919921875
1630415945544,-0.39202880859375,0.0447998046875,0.903564453125
1630415945560,-0.38885498046875,0.0465087890625,0.908447265625
1630415945560,-0.38818359375,0.05255126953125,0.91070556640625
1630415945560,-0.38922119140625,0.0460205078125,0.90863037109375
1630415945560,-0.392333984375,0.0440673828125,0.9044189453125
1630415945560,-0.39105224609375,0.04010009765625,0.908203125
1630415945669,-0.38446044921875,0.05792236328125,0.91729736328125
1630415945669,-0.38421630859375,0.056640625,0.91357421875
1630415945669,-0.3826904296875,0.0546875,0.91912841796875
1630415945731,-0.38623046875,0.055419921875,0.9228515625
1630415945731,-0.3839111328125,0.05340576171875,0.919677734375
1630415945747,-0.38421630859375,0.05157470703125,0.9185791015625
1630415945778,-0.38995361328125,0.0477294921875,0.9068603515625
1630415945778,-0.38946533203125,0.0498046875,0.91064453125
1630415945778,-0.3931884765625,0.04046630859375,0.90374755859375
1630415945825,-0.39422607421875,0.04266357421875,0.9036865234375
1630415945825,-0.38629150390625,0.04840087890625,0.90667724609375
1630415945825,-0.3919677734375,0.04522705078125,0.90838623046875
1630415945856,-0.38531494140625,0.05377197265625,0.91754150390625
1630415945856,-0.38543701171875,0.05194091796875,0.915771484375
1630415945856,-0.38824462890625,0.0518798828125,0.9091796875
1630415945950,-0.38824462890625,0.05059814453125,0.91815185546875
1630415945950,-0.38482666015625,0.0479736328125,0.91302490234375
1630415945997,-0.38726806640625,0.04595947265625,0.91387939453125
1630415945997,-0.38446044921875,0.042724609375,0.90985107421875
1630415945997,-0.38909912109375,0.0458984375,0.90765380859375
1630415946044,-0.391357421875,0.0460205078125,0.90545654296875
1630415946044,-0.392333984375,0.0479736328125,0.90704345703125
1630415946044,-0.3917236328125,0.046875,0.90240478515625
1630415946091,-0.39031982421875,0.0535888671875,0.91729736328125
1630415946091,-0.38861083984375,0.05328369140625,0.9212646484375
1630415946091,-0.39202880859375,0.05059814453125,0.91217041015625
1630415946184,-0.38897705078125,0.05035400390625,0.91748046875
1630415946200,-0.38824462890625,0.04150390625,0.91778564453125
1630415946200,-0.39129638671875,0.04339599609375,0.9197998046875
1630415946216,-0.39031982421875,0.02569580078125,0.90802001953125
1630415946216,-0.39093017578125,0.032470703125,0.91168212890625
1630415946216,-0.39569091796875,0.028564453125,0.90716552734375
1630415946278,-0.3900146484375,0.03106689453125,0.9102783203125
1630415946278,-0.38812255859375,0.0301513671875,0.9111328125
1630415946278,-0.38751220703125,0.02899169921875,0.90924072265625
1630415946356,-0.3836669921875,0.0430908203125,0.9139404296875
1630415946356,-0.386474609375,0.0419921875,0.91265869140625
1630415946356,-0.38623046875,0.0350341796875,0.91259765625
1630415946403,-0.38897705078125,0.0482177734375,0.9134521484375
1630415946403,-0.3878173828125,0.04803466796875,0.91326904296875
1630415946403,-0.385498046875,0.04290771484375,0.91363525390625
1630415946452,-0.3895263671875,0.04931640625,0.912109375
1630415946452,-0.39324951171875,0.04266357421875,0.90557861328125
1630415946452,-0.3895263671875,0.04718017578125,0.90826416015625
1630415946530,-0.39727783203125,0.04010009765625,0.9053955078125
1630415946530,-0.3931884765625,0.04132080078125,0.9051513671875
1630415946530,-0.390380859375,0.04278564453125,0.90618896484375
1630415946577,-0.3934326171875,0.043701171875,0.91253662109375
1630415946592,-0.388916015625,0.0430908203125,0.90667724609375
1630415946592,-0.38775634765625,0.04296875,0.9085693359375
1630415946639,-0.389404296875,0.04010009765625,0.91607666015625
1630415946639,-0.38763427734375,0.04437255859375,0.91485595703125
1630415946639,-0.38446044921875,0.04803466796875,0.91607666015625
1630415946749,-0.3868408203125,0.05389404296875,0.9183349609375
1630415946749,-0.38421630859375,0.0499267578125,0.9208984375
1630415946749,-0.38616943359375,0.04852294921875,0.9208984375
1630415946780,-0.3853759765625,0.0472412109375,0.91815185546875
1630415946780,-0.38641357421875,0.0474853515625,0.9122314453125
1630415946780,-0.38531494140625,0.05035400390625,0.91436767578125
1630415946811,-0.3895263671875,0.050537109375,0.91033935546875
1630415946811,-0.38818359375,0.05322265625,0.9105224609375
1630415946811,-0.38531494140625,0.05010986328125,0.913330078125
1630415946889,-0.38446044921875,0.0511474609375,0.90625
1630415946889,-0.38580322265625,0.0516357421875,0.90863037109375
1630415946905,-0.38800048828125,0.05047607421875,0.9100341796875
1630415946952,-0.38360595703125,0.0408935546875,0.910888671875
1630415946952,-0.384765625,0.0511474609375,0.91058349609375
1630415946952,-0.38494873046875,0.04632568359375,0.91607666015625
1630415947030,-0.3809814453125,0.04571533203125,0.91754150390625
1630415947030,-0.3831787109375,0.0440673828125,0.91253662109375
1630415947030,-0.383056640625,0.0430908203125,0.91107177734375
1630415947061,-0.3740234375,0.05523681640625,0.9239501953125
1630415947061,-0.37506103515625,0.04901123046875,0.91961669921875
1630415947061,-0.376953125,0.051513671875,0.918701171875
1630415947139,-0.37091064453125,0.05474853515625,0.92352294921875
1630415947139,-0.37225341796875,0.054443359375,0.9212646484375
1630415947139,-0.37225341796875,0.052490234375,0.9229736328125
1630415947170,-0.37322998046875,0.050048828125,0.9219970703125
1630415947186,-0.3763427734375,0.05267333984375,0.9219970703125
1630415947186,-0.36834716796875,0.0509033203125,0.923583984375
1630415947233,-0.37127685546875,0.04681396484375,0.91680908203125
1630415947248,-0.37255859375,0.0487060546875,0.9188232421875
1630415947248,-0.37213134765625,0.04376220703125,0.9193115234375
1630415947295,-0.3758544921875,0.0462646484375,0.91851806640625
1630415947295,-0.3734130859375,0.04388427734375,0.92047119140625
1630415947295,-0.37255859375,0.04522705078125,0.9161376953125
1630415947389,-0.37188720703125,0.04473876953125,0.922119140625
1630415947389,-0.37701416015625,0.04547119140625,0.91802978515625
1630415947389,-0.3743896484375,0.04510498046875,0.921630859375
1630415947389,-0.37200927734375,0.04644775390625,0.91961669921875
1630415947405,-0.37786865234375,0.04449462890625,0.9202880859375
1630415947405,-0.374755859375,0.045654296875,0.9217529296875
1630415947483,-0.38226318359375,0.0465087890625,0.9114990234375
1630415947483,-0.3787841796875,0.04290771484375,0.91864013671875
1630415947483,-0.38128662109375,0.04669189453125,0.9073486328125
1630415947483,-0.3809814453125,0.04522705078125,0.91558837890625
1630415947483,-0.37677001953125,0.04339599609375,0.91876220703125
1630415947498,-0.38232421875,0.046630859375,0.91400146484375
1630415947592,-0.38507080078125,0.056640625,0.9134521484375
1630415947592,-0.38287353515625,0.05169677734375,0.91302490234375
1630415947608,-0.38299560546875,0.0560302734375,0.914306640625
1630415947639,-0.38134765625,0.05712890625,0.91357421875
1630415947639,-0.38323974609375,0.0587158203125,0.91796875
1630415947639,-0.38525390625,0.0535888671875,0.91461181640625
1630415947733,-0.38482666015625,0.05194091796875,0.918212890625
1630415947733,-0.38238525390625,0.05035400390625,0.91119384765625
1630415947733,-0.38287353515625,0.0496826171875,0.916259765625
1630415947780,-0.37939453125,0.0604248046875,0.9150390625
1630415947780,-0.37969970703125,0.059814453125,0.916015625
1630415947780,-0.38427734375,0.05682373046875,0.91497802734375
1630415947826,-0.38446044921875,0.06005859375,0.91424560546875
1630415947826,-0.38006591796875,0.06536865234375,0.91448974609375
1630415947826,-0.38043212890625,0.06561279296875,0.91357421875
1630415947858,-0.37835693359375,0.0687255859375,0.91436767578125
1630415947858,-0.38348388671875,0.0703125,0.91168212890625
1630415947858,-0.38037109375,0.06353759765625,0.912841796875
1630415947936,-0.3858642578125,0.06195068359375,0.913818359375
1630415947951,-0.386474609375,0.05712890625,0.90606689453125
1630415947951,-0.38018798828125,0.06646728515625,0.9141845703125
1630415947998,-0.3868408203125,0.0533447265625,0.90087890625
1630415947998,-0.38482666015625,0.0489501953125,0.90606689453125
1630415947998,-0.385498046875,0.0506591796875,0.90216064453125
1630415948030,-0.382568359375,0.0504150390625,0.9105224609375
1630415948030,-0.38037109375,0.0521240234375,0.90960693359375
1630415948045,-0.37518310546875,0.0546875,0.91961669921875
1630415948108,-0.37469482421875,0.0574951171875,0.92578125
1630415948108,-0.36773681640625,0.05621337890625,0.9334716796875
1630415948108,-0.36358642578125,0.05670166015625,0.9337158203125
1630415948155,-0.36700439453125,0.0537109375,0.93890380859375
1630415948155,-0.36920166015625,0.05718994140625,0.93505859375
1630415948170,-0.36309814453125,0.055908203125,0.93463134765625
1630415948233,-0.3717041015625,0.0538330078125,0.92572021484375
1630415948233,-0.3741455078125,0.05352783203125,0.91583251953125
1630415948233,-0.37359619140625,0.054443359375,0.92279052734375
1630415948295,-0.37774658203125,0.05096435546875,0.90521240234375
1630415948295,-0.37506103515625,0.05267333984375,0.91314697265625
1630415948295,-0.37841796875,0.05377197265625,0.90972900390625
1630415948389,-0.3843994140625,0.05206298828125,0.90521240234375
1630415948389,-0.37982177734375,0.05059814453125,0.90240478515625
1630415948389,-0.38189697265625,0.047607421875,0.9068603515625
1630415948404,-0.38201904296875,0.0526123046875,0.91363525390625
1630415948404,-0.379638671875,0.050048828125,0.91632080078125
1630415948404,-0.3785400390625,0.04425048828125,0.919189453125
1630415948483,-0.37213134765625,0.04022216796875,0.91888427734375
1630415948483,-0.3682861328125,0.047119140625,0.92950439453125
1630415948483,-0.3729248046875,0.043212890625,0.9173583984375
1630415948484,-0.37078857421875,0.0521240234375,0.9276123046875
1630415948484,-0.37603759765625,0.0447998046875,0.92401123046875
1630415948484,-0.37164306640625,0.05029296875,0.9288330078125
1630415948642,-0.37225341796875,0.05322265625,0.92413330078125
1630415948642,-0.3751220703125,0.0498046875,0.92279052734375
1630415948642,-0.37298583984375,0.05352783203125,0.9195556640625
1630415948704,-0.37896728515625,0.04937744140625,0.91552734375
1630415948720,-0.37371826171875,0.052734375,0.9188232421875
1630415948720,-0.37786865234375,0.05023193359375,0.91326904296875
1630415948767,-0.3802490234375,0.04833984375,0.9136962890625
1630415948767,-0.3798828125,0.040771484375,0.9063720703125
1630415948767,-0.38177490234375,0.045166015625,0.90997314453125
1630415948783,-0.38104248046875,0.045166015625,0.91204833984375
1630415948783,-0.3800048828125,0.04534912109375,0.91339111328125
1630415948783,-0.38055419921875,0.04229736328125,0.912841796875
1630415948845,-0.37420654296875,0.05224609375,0.91766357421875
1630415948845,-0.37921142578125,0.0499267578125,0.91363525390625
1630415948845,-0.37567138671875,0.0537109375,0.92041015625
1630415948876,-0.371337890625,0.0516357421875,0.9305419921875
1630415948876,-0.3736572265625,0.05682373046875,0.925048828125
1630415948876,-0.37249755859375,0.05657958984375,0.9312744140625
1630415948970,-0.377685546875,0.0509033203125,0.92108154296875
1630415948970,-0.37799072265625,0.05029296875,0.92510986328125
1630415948970,-0.377197265625,0.052978515625,0.9259033203125
1630415949002,-0.38037109375,0.05389404296875,0.9127197265625
1630415949002,-0.3763427734375,0.05120849609375,0.9195556640625
1630415949002,-0.37799072265625,0.0498046875,0.91278076171875
1630415949033,-0.38067626953125,0.05242919921875,0.91168212890625
1630415949033,-0.383056640625,0.05023193359375,0.913818359375
1630415949033,-0.37969970703125,0.05108642578125,0.9122314453125
1630415949111,-0.37799072265625,0.05303955078125,0.90789794921875
1630415949111,-0.3839111328125,0.048828125,0.9091796875
1630415949111,-0.3802490234375,0.050048828125,0.908935546875
1630415949174,-0.3818359375,0.0487060546875,0.91473388671875
1630415949174,-0.383056640625,0.044677734375,0.90899658203125
1630415949174,-0.3824462890625,0.05340576171875,0.91162109375
1630415949204,-0.38006591796875,0.04974365234375,0.90960693359375
1630415949204,-0.379150390625,0.0531005859375,0.91131591796875
1630415949204,-0.37738037109375,0.05010986328125,0.91839599609375
1630415949298,-0.37237548828125,0.05194091796875,0.92236328125
1630415949314,-0.36651611328125,0.06036376953125,0.92889404296875
1630415949314,-0.3690185546875,0.0576171875,0.92987060546875
1630415949407,-0.36480712890625,0.0565185546875,0.92999267578125
1630415949407,-0.3680419921875,0.056396484375,0.9276123046875
1630415949407,-0.36566162109375,0.06085205078125,0.93109130859375
1630415949423,-0.37310791015625,0.058349609375,0.92535400390625
1630415949423,-0.36663818359375,0.0560302734375,0.927490234375
1630415949423,-0.375,0.0521240234375,0.91986083984375
1630415949486,-0.379150390625,0.048583984375,0.90997314453125
1630415949487,-0.37744140625,0.05413818359375,0.91827392578125
