timestamp,ax,ay,az
1629795340044,-0.58453369140625,0.14459228515625,0.782958984375
1629795340044,-0.58038330078125,0.1412353515625,0.77996826171875
1629795340044,-0.58050537109375,0.1463623046875,0.78228759765625
1629795340122,-0.581298828125,0.14617919921875,0.78485107421875
1629795340122,-0.5830078125,0.14154052734375,0.78125
1629795340203,-0.5816650390625,0.14031982421875,0.779541015625
1629795340203,-0.5830078125,0.135009765625,0.78515625
1629795340218,-0.58416748046875,0.14166259765625,0.78179931640625
1629795340250,-0.582275390625,0.138671875,0.7855224609375
1629795340250,-0.579833984375,0.142822265625,0.78717041015625
1629795340250,-0.58160400390625,0.14013671875,0.78692626953125
1629795340406,-0.58380126953125,0.142578125,0.7890625
1629795340406,-0.57952880859375,0.14337158203125,0.78662109375
1629795340406,-0.57550048828125,0.14453125,0.784912109375
1629795340640,-0.57879638671875,0.13848876953125,0.7840576171875
1629795340640,-0.58160400390625,0.14349365234375,0.78363037109375
1629795340640,-0.5831298828125,0.1414794921875,0.7864990234375
1629795340640,-0.5821533203125,0.14178466796875,0.78485107421875
1629795340640,-0.58148193359375,0.14556884765625,0.78271484375
1629795340656,-0.58258056640625,0.14617919921875,0.7822265625
1629795340781,-0.57891845703125,0.13885498046875,0.781982421875
1629795340781,-0.5826416015625,0.13470458984375,0.7864990234375
1629795340781,-0.583251953125,0.13592529296875,0.78509521484375
1629795340843,-0.5872802734375,0.14471435546875,0.79241943359375
1629795340843,-0.5799560546875,0.13671875,0.7845458984375
1629795340843,-0.58123779296875,0.1424560546875,0.786865234375
1629795340843,-0.58294677734375,0.13848876953125,0.78167724609375
1629795340843,-0.5830078125,0.13958740234375,0.78533935546875
1629795340843,-0.58233642578125,0.14068603515625,0.7886962890625
1629795340843,-0.5792236328125,0.14178466796875,0.78985595703125
1629795340843,-0.580078125,0.14715576171875,0.79595947265625
1629795340843,-0.57904052734375,0.13275146484375,0.77984619140625
1629795340938,-0.581787109375,0.1304931640625,0.7896728515625
1629795340938,-0.5875244140625,0.1368408203125,0.78131103515625
1629795340938,-0.57867431640625,0.13519287109375,0.78179931640625
1629795340939,-0.5850830078125,0.13897705078125,0.7801513671875
1629795340940,-0.57928466796875,0.13299560546875,0.78057861328125
1629795340940,-0.58154296875,0.1375732421875,0.779541015625
1629795341267,-0.58209228515625,0.12939453125,0.7874755859375
1629795341283,-0.58148193359375,0.12884521484375,0.79150390625
1629795341283,-0.58111572265625,0.1298828125,0.7886962890625
1629795341346,-0.5823974609375,0.13128662109375,0.78912353515625
1629795341346,-0.57891845703125,0.13287353515625,0.78857421875
1629795341346,-0.5843505859375,0.1309814453125,0.78662109375
1629795341408,-0.5748291015625,0.125244140625,0.78875732421875
1629795341424,-0.5765380859375,0.12554931640625,0.78790283203125
1629795341424,-0.578369140625,0.12847900390625,0.7919921875
1629795341580,-0.5784912109375,0.12969970703125,0.78729248046875
1629795341580,-0.5794677734375,0.13287353515625,0.788818359375
1629795341580,-0.582763671875,0.13128662109375,0.78826904296875
1629795341783,-0.5809326171875,0.13592529296875,0.78802490234375
1629795341783,-0.57403564453125,0.130859375,0.7882080078125
1629795341783,-0.578369140625,0.1361083984375,0.78887939453125
1629795341783,-0.57623291015625,0.13629150390625,0.78814697265625
1629795341783,-0.5794677734375,0.1343994140625,0.7908935546875
1629795341783,-0.57684326171875,0.13970947265625,0.7882080078125
1629795341814,-0.57891845703125,0.12689208984375,0.79241943359375
1629795341814,-0.58074951171875,0.13037109375,0.78668212890625
1629795341814,-0.57708740234375,0.1328125,0.78997802734375
1629795341877,-0.57733154296875,0.1217041015625,0.78936767578125
1629795341877,-0.58209228515625,0.12860107421875,0.79022216796875
1629795341877,-0.57415771484375,0.1246337890625,0.79498291015625
1629795341908,-0.5755615234375,0.1280517578125,0.79473876953125
1629795341908,-0.58050537109375,0.12603759765625,0.78839111328125
1629795341908,-0.573974609375,0.12701416015625,0.79248046875
1629795341908,-0.5782470703125,0.123779296875,0.7935791015625
1629795341923,-0.57586669921875,0.12994384765625,0.7918701171875
1629795341923,-0.57843017578125,0.12396240234375,0.7874755859375
1629795341923,-0.57794189453125,0.1239013671875,0.7886962890625
1629795341923,-0.579833984375,0.1256103515625,0.79302978515625
1629795341923,-0.5775146484375,0.12457275390625,0.78497314453125
1629795341923,-0.5784912109375,0.12884521484375,0.79296875
1629795341923,-0.57830810546875,0.12567138671875,0.78656005859375
1629795341923,-0.5802001953125,0.12384033203125,0.7882080078125
1629795341955,-0.56689453125,0.1339111328125,0.804443359375
1629795341955,-0.56939697265625,0.12591552734375,0.79876708984375
1629795341955,-0.56549072265625,0.12847900390625,0.80157470703125
1629795341955,-0.5770263671875,0.1258544921875,0.7869873046875
1629795341955,-0.57415771484375,0.12823486328125,0.78106689453125
1629795341955,-0.57562255859375,0.12213134765625,0.78070068359375
1629795341987,-0.56201171875,0.12249755859375,0.80377197265625
1629795342004,-0.56134033203125,0.119384765625,0.806884765625
1629795342004,-0.5567626953125,0.12109375,0.80975341796875
1629795342051,-0.55914306640625,0.12445068359375,0.806884765625
1629795342051,-0.5565185546875,0.1220703125,0.806640625
1629795342051,-0.55712890625,0.12506103515625,0.80596923828125
1629795342317,-0.556396484375,0.12664794921875,0.8056640625
1629795342317,-0.5557861328125,0.12274169921875,0.80633544921875
1629795342317,-0.55413818359375,0.12652587890625,0.805908203125
1629795342457,-0.5587158203125,0.1231689453125,0.80657958984375
1629795342457,-0.5592041015625,0.12322998046875,0.80511474609375
1629795342457,-0.55865478515625,0.1204833984375,0.80462646484375
1629795342489,-0.5595703125,0.1268310546875,0.8060302734375
1629795342489,-0.560546875,0.1234130859375,0.80914306640625
1629795342489,-0.56201171875,0.125,0.810791015625
1629795342489,-0.5621337890625,0.1131591796875,0.805419921875
1629795342489,-0.5574951171875,0.12115478515625,0.80926513671875
1629795342489,-0.5604248046875,0.1209716796875,0.8084716796875
1629795342489,-0.5635986328125,0.1212158203125,0.81036376953125
1629795342489,-0.5631103515625,0.1181640625,0.80816650390625
1629795342489,-0.5604248046875,0.1220703125,0.80615234375
1629795342567,-0.561767578125,0.1290283203125,0.8016357421875
1629795342567,-0.56396484375,0.1361083984375,0.79205322265625
1629795342567,-0.5634765625,0.13946533203125,0.79437255859375
1629795342582,-0.564453125,0.1339111328125,0.7930908203125
1629795342582,-0.5626220703125,0.14129638671875,0.7908935546875
1629795342582,-0.56317138671875,0.1390380859375,0.79095458984375
1629795342723,-0.5634765625,0.1375732421875,0.79437255859375
1629795342723,-0.56060791015625,0.14166259765625,0.79150390625
1629795342723,-0.57122802734375,0.134033203125,0.794189453125
1629795342973,-0.56683349609375,0.1256103515625,0.80059814453125
1629795342973,-0.56744384765625,0.12689208984375,0.79815673828125
1629795342973,-0.56658935546875,0.12725830078125,0.80133056640625
1629795343116,-0.56756591796875,0.12628173828125,0.8023681640625
1629795343132,-0.56646728515625,0.1279296875,0.7999267578125
1629795343132,-0.5662841796875,0.1263427734375,0.79925537109375
1629795343147,-0.56817626953125,0.1187744140625,0.800048828125
1629795343147,-0.566650390625,0.11883544921875,0.7979736328125
1629795343147,-0.5682373046875,0.12188720703125,0.801025390625
1629795343241,-0.56756591796875,0.1171875,0.79669189453125
1629795343241,-0.56890869140625,0.1165771484375,0.79827880859375
1629795343256,-0.5670166015625,0.1185302734375,0.79718017578125
1629795343413,-0.5679931640625,0.11749267578125,0.79693603515625
1629795343413,-0.566650390625,0.11328125,0.79974365234375
1629795343428,-0.56878662109375,0.115234375,0.80487060546875
1629795343444,-0.5638427734375,0.12200927734375,0.80181884765625
1629795343460,-0.56591796875,0.1151123046875,0.8055419921875
1629795343553,-0.56597900390625,0.12451171875,0.7960205078125
1629795343553,-0.565673828125,0.1241455078125,0.80072021484375
1629795343553,-0.56634521484375,0.12322998046875,0.796875
1629795343600,-0.56024169921875,0.127685546875,0.8055419921875
1629795343600,-0.55963134765625,0.135009765625,0.803955078125
1629795343600,-0.56109619140625,0.127197265625,0.80694580078125
1629795343600,-0.56414794921875,0.13018798828125,0.79888916015625
1629795343600,-0.5616455078125,0.13250732421875,0.79656982421875
1629795343600,-0.56243896484375,0.12579345703125,0.798095703125
1629795343663,-0.55938720703125,0.1290283203125,0.8082275390625
1629795343663,-0.5592041015625,0.12945556640625,0.80877685546875
1629795343678,-0.56109619140625,0.126953125,0.8055419921875
1629795343772,-0.55914306640625,0.12066650390625,0.80157470703125
1629795343772,-0.560302734375,0.12445068359375,0.80279541015625
1629795343772,-0.55865478515625,0.12384033203125,0.8033447265625
1629795344038,-0.55902099609375,0.133544921875,0.79571533203125
1629795344038,-0.5594482421875,0.12860107421875,0.8023681640625
1629795344038,-0.5599365234375,0.12774658203125,0.7998046875
1629795344134,-0.5662841796875,0.12615966796875,0.7989501953125
1629795344134,-0.5616455078125,0.129638671875,0.80078125
1629795344134,-0.56494140625,0.12835693359375,0.80322265625
1629795344243,-0.564453125,0.131103515625,0.80157470703125
1629795344243,-0.5611572265625,0.1290283203125,0.80169677734375
1629795344243,-0.563720703125,0.12939453125,0.80255126953125
1629795344259,-0.56634521484375,0.12432861328125,0.79888916015625
1629795344259,-0.56573486328125,0.12158203125,0.79632568359375
1629795344259,-0.56365966796875,0.1234130859375,0.79498291015625
1629795344353,-0.56768798828125,0.1246337890625,0.7972412109375
1629795344353,-0.56610107421875,0.12884521484375,0.80157470703125
1629795344353,-0.56610107421875,0.12774658203125,0.7987060546875
1629795344634,-0.56378173828125,0.12542724609375,0.80047607421875
1629795344634,-0.56201171875,0.1292724609375,0.7984619140625
1629795344634,-0.5638427734375,0.12567138671875,0.797607421875
1629795344712,-0.564208984375,0.1341552734375,0.79840087890625
1629795344712,-0.5601806640625,0.13116455078125,0.795654296875
1629795344712,-0.56103515625,0.12939453125,0.80133056640625
1629795344774,-0.56304931640625,0.1298828125,0.80328369140625
1629795344774,-0.56097412109375,0.1317138671875,0.8023681640625
1629795344790,-0.5582275390625,0.12506103515625,0.80157470703125
1629795345009,-0.55999755859375,0.132080078125,0.804443359375
1629795345009,-0.56036376953125,0.13238525390625,0.808349609375
1629795345009,-0.55694580078125,0.1336669921875,0.8045654296875
1629795345024,-0.5565185546875,0.13446044921875,0.804443359375
1629795345024,-0.5572509765625,0.133056640625,0.80780029296875
1629795345024,-0.55767822265625,0.132080078125,0.806396484375
1629795345102,-0.5572509765625,0.12969970703125,0.804931640625
1629795345102,-0.55938720703125,0.13226318359375,0.80511474609375
1629795345102,-0.55548095703125,0.12957763671875,0.804931640625
1629795345261,-0.56292724609375,0.12847900390625,0.8016357421875
1629795345261,-0.5574951171875,0.12744140625,0.80242919921875
1629795345261,-0.55908203125,0.12945556640625,0.801025390625
1629795345308,-0.55853271484375,0.130615234375,0.80279541015625
1629795345324,-0.560546875,0.12481689453125,0.8033447265625
1629795345324,-0.56048583984375,0.12335205078125,0.80377197265625
1629795345339,-0.563232421875,0.123779296875,0.80511474609375
1629795345339,-0.56207275390625,0.1314697265625,0.79925537109375
1629795345339,-0.5631103515625,0.126708984375,0.8033447265625
1629795345386,-0.55657958984375,0.1317138671875,0.80413818359375
1629795345386,-0.555419921875,0.1229248046875,0.81134033203125
1629795345386,-0.55474853515625,0.12884521484375,0.80767822265625
1629795345558,-0.552490234375,0.129150390625,0.8050537109375
1629795345558,-0.55633544921875,0.12884521484375,0.8055419921875
1629795345573,-0.55609130859375,0.12786865234375,0.806884765625
1629795345589,-0.55596923828125,0.1282958984375,0.805908203125
1629795345589,-0.55767822265625,0.125732421875,0.80682373046875
1629795345589,-0.55889892578125,0.1300048828125,0.80267333984375
1629795345761,-0.560791015625,0.1304931640625,0.8009033203125
1629795345777,-0.55999755859375,0.12957763671875,0.8055419921875
1629795345777,-0.5562744140625,0.12841796875,0.8077392578125
1629795345792,-0.55816650390625,0.12738037109375,0.802490234375
1629795345792,-0.565673828125,0.124267578125,0.7996826171875
1629795345808,-0.56298828125,0.1246337890625,0.79901123046875
1629795345823,-0.5667724609375,0.1253662109375,0.80059814453125
1629795345823,-0.560791015625,0.12579345703125,0.8016357421875
1629795345839,-0.56268310546875,0.12384033203125,0.80377197265625
1629795345839,-0.56085205078125,0.12066650390625,0.79833984375
1629795345839,-0.5615234375,0.12060546875,0.803955078125
1629795345855,-0.5645751953125,0.1278076171875,0.8040771484375
1629795345855,-0.55804443359375,0.12493896484375,0.80242919921875
1629795345870,-0.56134033203125,0.12921142578125,0.80377197265625
1629795346042,-0.5584716796875,0.12286376953125,0.80352783203125
1629795346042,-0.55810546875,0.12939453125,0.80401611328125
1629795346042,-0.56292724609375,0.1278076171875,0.80340576171875
1629795346404,-0.55987548828125,0.1280517578125,0.80303955078125
1629795346404,-0.55657958984375,0.1246337890625,0.805908203125
1629795346404,-0.558837890625,0.1201171875,0.80780029296875
1629795346435,-0.56011962890625,0.118896484375,0.80780029296875
1629795346451,-0.555419921875,0.1219482421875,0.80712890625
1629795346451,-0.55902099609375,0.12322998046875,0.8084716796875
1629795346826,-0.560791015625,0.1263427734375,0.80621337890625
1629795346826,-0.5601806640625,0.1253662109375,0.80267333984375
1629795346826,-0.56317138671875,0.12286376953125,0.80450439453125
1629795346873,-0.5643310546875,0.12518310546875,0.803466796875
1629795346873,-0.56231689453125,0.12579345703125,0.79852294921875
1629795346873,-0.5670166015625,0.12261962890625,0.8045654296875
1629795346873,-0.56109619140625,0.12127685546875,0.79962158203125
1629795346873,-0.5623779296875,0.12274169921875,0.79931640625
1629795346873,-0.5618896484375,0.120361328125,0.7987060546875
1629795346966,-0.56256103515625,0.13134765625,0.8017578125
1629795346966,-0.56427001953125,0.1292724609375,0.80474853515625
1629795346966,-0.5638427734375,0.129150390625,0.80059814453125
1629795347044,-0.5615234375,0.12054443359375,0.794921875
1629795347044,-0.5665283203125,0.123046875,0.80078125
1629795347044,-0.57025146484375,0.12481689453125,0.79754638671875
1629795347060,-0.56829833984375,0.12506103515625,0.79962158203125
1629795347060,-0.56524658203125,0.1256103515625,0.7998046875
1629795347060,-0.567138671875,0.12628173828125,0.80072021484375
1629795347138,-0.56488037109375,0.12939453125,0.796630859375
1629795347138,-0.56256103515625,0.12799072265625,0.804931640625
1629795347138,-0.56414794921875,0.1251220703125,0.79852294921875
1629795347312,-0.56201171875,0.119873046875,0.80255126953125
1629795347312,-0.56390380859375,0.1163330078125,0.80078125
1629795347312,-0.56524658203125,0.12091064453125,0.80169677734375
1629795347437,-0.5667724609375,0.1224365234375,0.8092041015625
1629795347437,-0.5625,0.119384765625,0.80548095703125
1629795347437,-0.56646728515625,0.1175537109375,0.8006591796875
1629795347546,-0.572021484375,0.123046875,0.8031005859375
1629795347546,-0.569091796875,0.12103271484375,0.80181884765625
1629795347562,-0.56866455078125,0.12286376953125,0.8040771484375
1629795347609,-0.56744384765625,0.103271484375,0.79290771484375
1629795347609,-0.57147216796875,0.11102294921875,0.79437255859375
1629795347609,-0.570556640625,0.11981201171875,0.79632568359375
1629795347640,-0.57470703125,0.116943359375,0.7923583984375
1629795347640,-0.57513427734375,0.10888671875,0.79583740234375
1629795347640,-0.5760498046875,0.11737060546875,0.79290771484375
1629795347687,-0.56591796875,0.11279296875,0.79144287109375
1629795347687,-0.572509765625,0.114501953125,0.79345703125
1629795347687,-0.57403564453125,0.11004638671875,0.79180908203125
1629795347687,-0.5726318359375,0.110107421875,0.79266357421875
1629795347703,-0.5728759765625,0.115234375,0.7969970703125
1629795347703,-0.56964111328125,0.11688232421875,0.79364013671875
1629795347734,-0.57012939453125,0.11981201171875,0.80078125
1629795347734,-0.56304931640625,0.1160888671875,0.796875
1629795347734,-0.56719970703125,0.1170654296875,0.7977294921875
1629795347781,-0.56640625,0.11767578125,0.80322265625
1629795347781,-0.56597900390625,0.11749267578125,0.8006591796875
1629795347781,-0.56927490234375,0.1202392578125,0.8048095703125
1629795347828,-0.56890869140625,0.11376953125,0.798828125
1629795347828,-0.5703125,0.1221923828125,0.79925537109375
1629795347828,-0.56622314453125,0.11749267578125,0.794189453125
1629795347843,-0.56732177734375,0.1165771484375,0.79638671875
1629795347859,-0.56768798828125,0.12322998046875,0.7945556640625
1629795347859,-0.567626953125,0.12548828125,0.79827880859375
1629795347859,-0.57122802734375,0.116943359375,0.79827880859375
1629795347859,-0.57025146484375,0.1212158203125,0.79840087890625
1629795347859,-0.56805419921875,0.12579345703125,0.7989501953125
1629795347874,-0.567626953125,0.12451171875,0.79833984375
1629795347890,-0.56927490234375,0.12261962890625,0.79742431640625
1629795347890,-0.56976318359375,0.12353515625,0.79852294921875
1629795348046,-0.56903076171875,0.1158447265625,0.7998046875
1629795348046,-0.5694580078125,0.1160888671875,0.79949951171875
1629795348062,-0.56890869140625,0.11883544921875,0.80206298828125
1629795348062,-0.569091796875,0.1202392578125,0.799072265625
1629795348062,-0.56591796875,0.12078857421875,0.79852294921875
1629795348062,-0.56622314453125,0.11810302734375,0.8013916015625
1629795348093,-0.56817626953125,0.1151123046875,0.80633544921875
1629795348093,-0.56512451171875,0.1190185546875,0.802490234375
1629795348093,-0.56787109375,0.114013671875,0.7972412109375
1629795348093,-0.5667724609375,0.115966796875,0.79364013671875
1629795348093,-0.56884765625,0.11590576171875,0.7987060546875
1629795348093,-0.5648193359375,0.11309814453125,0.794921875
1629795348140,-0.5645751953125,0.11273193359375,0.80059814453125
1629795348140,-0.56524658203125,0.1148681640625,0.798583984375
1629795348140,-0.564453125,0.11102294921875,0.80255126953125
1629795348221,-0.56884765625,0.1160888671875,0.8052978515625
1629795348237,-0.5614013671875,0.113525390625,0.80328369140625
1629795348283,-0.56689453125,0.1177978515625,0.80255126953125
1629795348283,-0.567626953125,0.11572265625,0.79510498046875
1629795348283,-0.569580078125,0.118408203125,0.80023193359375
1629795348611,-0.56573486328125,0.11669921875,0.80078125
1629795348627,-0.56817626953125,0.1060791015625,0.80078125
1629795348627,-0.564697265625,0.111083984375,0.80157470703125
1629795348643,-0.57183837890625,0.11090087890625,0.7984619140625
1629795348658,-0.567138671875,0.1214599609375,0.7984619140625
1629795348658,-0.56573486328125,0.1171875,0.8006591796875
1629795348658,-0.56866455078125,0.11492919921875,0.79534912109375
1629795348658,-0.56829833984375,0.115966796875,0.7978515625
1629795348658,-0.56512451171875,0.11785888671875,0.79693603515625
1629795348721,-0.5673828125,0.12030029296875,0.79925537109375
1629795348721,-0.5633544921875,0.1209716796875,0.79779052734375
1629795348721,-0.5673828125,0.1185302734375,0.79766845703125
1629795348783,-0.57171630859375,0.1165771484375,0.801025390625
1629795348783,-0.56890869140625,0.11572265625,0.79888916015625
1629795348783,-0.5660400390625,0.11871337890625,0.80352783203125
1629795348799,-0.562744140625,0.12017822265625,0.7998046875
1629795348799,-0.56378173828125,0.11773681640625,0.80120849609375
1629795348799,-0.56817626953125,0.1226806640625,0.80218505859375
1629795349127,-0.56439208984375,0.11566162109375,0.7979736328125
1629795349127,-0.5665283203125,0.11602783203125,0.79913330078125
1629795349127,-0.5677490234375,0.1190185546875,0.7977294921875
1629795349271,-0.56201171875,0.11846923828125,0.80218505859375
1629795349271,-0.56463623046875,0.1177978515625,0.79833984375
1629795349271,-0.5682373046875,0.11749267578125,0.798095703125
1629795349271,-0.566650390625,0.11260986328125,0.80078125
1629795349271,-0.5654296875,0.11383056640625,0.799072265625
1629795349271,-0.56268310546875,0.11614990234375,0.79534912109375
1629795349317,-0.56134033203125,0.1180419921875,0.80242919921875
1629795349317,-0.5672607421875,0.11444091796875,0.80438232421875
1629795349317,-0.5628662109375,0.11761474609375,0.8033447265625
1629795349505,-0.56793212890625,0.11669921875,0.8028564453125
1629795349505,-0.57025146484375,0.1173095703125,0.80450439453125
1629795349505,-0.56475830078125,0.11431884765625,0.7987060546875
1629795349739,-0.56451416015625,0.11956787109375,0.80157470703125
1629795349739,-0.5706787109375,0.114501953125,0.801513671875
1629795349739,-0.56231689453125,0.11767578125,0.7978515625
1629795349755,-0.56683349609375,0.1182861328125,0.79693603515625
1629795349755,-0.56622314453125,0.11956787109375,0.800537109375
1629795349755,-0.56500244140625,0.11822509765625,0.79925537109375
1629795349802,-0.563232421875,0.1217041015625,0.8013916015625
1629795349802,-0.56597900390625,0.1134033203125,0.80157470703125
1629795349802,-0.56549072265625,0.11993408203125,0.80206298828125
1629795349817,-0.5667724609375,0.11981201171875,0.80389404296875
1629795349817,-0.56842041015625,0.11505126953125,0.79547119140625
1629795349817,-0.5694580078125,0.11676025390625,0.7918701171875
1629795349817,-0.56866455078125,0.11663818359375,0.80224609375
1629795349817,-0.569091796875,0.12078857421875,0.80450439453125
1629795349833,-0.5721435546875,0.1175537109375,0.7999267578125
1629795349864,-0.577392578125,0.11944580078125,0.79437255859375
1629795349864,-0.5772705078125,0.12408447265625,0.7955322265625
1629795349864,-0.5718994140625,0.11883544921875,0.8001708984375
1629795349973,-0.56951904296875,0.11639404296875,0.79083251953125
1629795349973,-0.57080078125,0.11968994140625,0.78948974609375
1629795349973,-0.57470703125,0.11724853515625,0.79290771484375
1629795350241,-0.57806396484375,0.12359619140625,0.79058837890625
1629795350241,-0.58123779296875,0.12469482421875,0.794189453125
1629795350241,-0.5782470703125,0.1236572265625,0.7911376953125
1629795350288,-0.58026123046875,0.12310791015625,0.7869873046875
1629795350288,-0.58416748046875,0.12249755859375,0.78350830078125
1629795350304,-0.577880859375,0.12054443359375,0.7821044921875
1629795350335,-0.5838623046875,0.12493896484375,0.787353515625
1629795350335,-0.58184814453125,0.1246337890625,0.7823486328125
1629795350335,-0.582763671875,0.1248779296875,0.78662109375
1629795350335,-0.5811767578125,0.1258544921875,0.78594970703125
1629795350335,-0.5848388671875,0.1260986328125,0.7886962890625
1629795350335,-0.58343505859375,0.12554931640625,0.78643798828125
1629795350366,-0.58233642578125,0.123046875,0.7886962890625
1629795350366,-0.586181640625,0.1195068359375,0.7957763671875
1629795350366,-0.5826416015625,0.1217041015625,0.791748046875
1629795350460,-0.58441162109375,0.11944580078125,0.79205322265625
1629795350460,-0.5850830078125,0.119873046875,0.79736328125
1629795350460,-0.58282470703125,0.12164306640625,0.79486083984375
1629795350476,-0.5894775390625,0.12353515625,0.787109375
1629795350491,-0.58154296875,0.119873046875,0.78521728515625
1629795350491,-0.5823974609375,0.12261962890625,0.78955078125
1629795350773,-0.598876953125,0.1187744140625,0.7720947265625
1629795350773,-0.5989990234375,0.1168212890625,0.77618408203125
1629795350773,-0.59759521484375,0.1240234375,0.7760009765625
1629795350835,-0.60284423828125,0.12176513671875,0.77130126953125
1629795350835,-0.6038818359375,0.12188720703125,0.77227783203125
1629795350835,-0.59967041015625,0.1201171875,0.77105712890625
1629795350866,-0.6041259765625,0.12652587890625,0.766845703125
1629795350866,-0.602783203125,0.1220703125,0.77056884765625
1629795350866,-0.60296630859375,0.1201171875,0.768310546875
1629795351007,-0.60357666015625,0.11529541015625,0.77044677734375
1629795351022,-0.60662841796875,0.11480712890625,0.77020263671875
1629795351022,-0.60467529296875,0.11639404296875,0.7689208984375
1629795351118,-0.60675048828125,0.11566162109375,0.76580810546875
1629795351118,-0.60699462890625,0.1180419921875,0.76995849609375
1629795351118,-0.6072998046875,0.11688232421875,0.7705078125
1629795351150,-0.6104736328125,0.12493896484375,0.7598876953125
1629795351150,-0.61376953125,0.124267578125,0.76043701171875
1629795351150,-0.60595703125,0.117431640625,0.76275634765625
1629795351290,-0.61181640625,0.12164306640625,0.76434326171875
1629795351290,-0.6097412109375,0.1246337890625,0.75445556640625
1629795351306,-0.61334228515625,0.1258544921875,0.75732421875
1629795351400,-0.61407470703125,0.12457275390625,0.757568359375
1629795351400,-0.6165771484375,0.12408447265625,0.760498046875
1629795351400,-0.61712646484375,0.11865234375,0.76031494140625
1629795351478,-0.6171875,0.11907958984375,0.74285888671875
1629795351478,-0.62152099609375,0.111083984375,0.73431396484375
1629795351478,-0.62005615234375,0.11181640625,0.74334716796875
1629795351509,-0.6207275390625,0.11676025390625,0.73052978515625
1629795351509,-0.621337890625,0.1131591796875,0.71966552734375
1629795351525,-0.60992431640625,0.12646484375,0.75360107421875
1629795351525,-0.6092529296875,0.12628173828125,0.770751953125
1629795351525,-0.61871337890625,0.12835693359375,0.74273681640625
1629795351525,-0.61834716796875,0.122802734375,0.741455078125
1629795351712,-0.58837890625,0.1251220703125,0.79632568359375
1629795351712,-0.57073974609375,0.11590576171875,0.80303955078125
1629795351712,-0.571533203125,0.116943359375,0.8199462890625
1629795351853,-0.54937744140625,0.12017822265625,0.807373046875
1629795351853,-0.5457763671875,0.126953125,0.81317138671875
1629795351853,-0.5556640625,0.121337890625,0.80615234375
1629795351900,-0.52630615234375,0.1383056640625,0.83587646484375
1629795351900,-0.52593994140625,0.139892578125,0.8251953125
1629795351900,-0.52398681640625,0.13885498046875,0.83544921875
1629795352042,-0.5169677734375,0.13055419921875,0.82989501953125
1629795352042,-0.52001953125,0.132568359375,0.850341796875
1629795352042,-0.516357421875,0.1290283203125,0.83935546875
1629795352166,-0.52227783203125,0.11962890625,0.81988525390625
1629795352166,-0.5194091796875,0.1248779296875,0.82794189453125
1629795352166,-0.51788330078125,0.12042236328125,0.81524658203125
1629795352306,-0.52484130859375,0.12579345703125,0.8197021484375
1629795352306,-0.5179443359375,0.12554931640625,0.8153076171875
1629795352306,-0.51983642578125,0.12359619140625,0.81622314453125
1629795352431,-0.52337646484375,0.1322021484375,0.812744140625
1629795352431,-0.5234375,0.13214111328125,0.81829833984375
1629795352431,-0.5225830078125,0.1331787109375,0.8135986328125
1629795352478,-0.51708984375,0.1295166015625,0.80718994140625
1629795352478,-0.51678466796875,0.12835693359375,0.81610107421875
1629795352478,-0.5235595703125,0.1329345703125,0.8009033203125
1629795352525,-0.49700927734375,0.13671875,0.84869384765625
1629795352525,-0.51141357421875,0.12689208984375,0.83160400390625
1629795352525,-0.504638671875,0.133056640625,0.84075927734375
1629795352931,-0.4940185546875,0.1396484375,0.86236572265625
1629795352931,-0.49609375,0.13983154296875,0.8489990234375
1629795352931,-0.49285888671875,0.13970947265625,0.858154296875
1629795353025,-0.47760009765625,0.14105224609375,0.86444091796875
1629795353025,-0.46942138671875,0.1407470703125,0.85833740234375
1629795353025,-0.483642578125,0.14044189453125,0.86566162109375
1629795353136,-0.456787109375,0.14630126953125,0.87646484375
1629795353136,-0.4581298828125,0.14605712890625,0.87762451171875
1629795353136,-0.4559326171875,0.14495849609375,0.88226318359375
1629795353308,-0.46044921875,0.1429443359375,0.8724365234375
1629795353308,-0.45623779296875,0.141357421875,0.8726806640625
1629795353308,-0.4566650390625,0.14447021484375,0.87567138671875
1629795353495,-0.47833251953125,0.140869140625,0.85748291015625
1629795353495,-0.47662353515625,0.13800048828125,0.85076904296875
1629795353495,-0.47576904296875,0.13641357421875,0.85858154296875
1629795353495,-0.48260498046875,0.13641357421875,0.8568115234375
1629795353495,-0.47686767578125,0.1424560546875,0.863037109375
1629795353495,-0.474609375,0.13726806640625,0.8564453125
1629795353605,-0.4801025390625,0.1278076171875,0.8525390625
1629795353605,-0.47479248046875,0.1397705078125,0.85638427734375
1629795353605,-0.47625732421875,0.1334228515625,0.85589599609375
1629795353808,-0.4847412109375,0.1282958984375,0.85687255859375
1629795353808,-0.4798583984375,0.130615234375,0.84954833984375
1629795353823,-0.48638916015625,0.13067626953125,0.85577392578125
1629795353823,-0.48284912109375,0.1461181640625,0.8590087890625
1629795353823,-0.48321533203125,0.13427734375,0.85333251953125
1629795353823,-0.48614501953125,0.1419677734375,0.85589599609375
1629795353823,-0.478759765625,0.12841796875,0.850830078125
1629795353823,-0.4791259765625,0.132568359375,0.85260009765625
1629795353823,-0.49114990234375,0.14337158203125,0.85357666015625
1629795353917,-0.4937744140625,0.1373291015625,0.84222412109375
1629795353917,-0.49432373046875,0.13555908203125,0.843505859375
1629795353917,-0.49078369140625,0.13824462890625,0.84539794921875
1629795354107,-0.49700927734375,0.14019775390625,0.84075927734375
1629795354107,-0.49884033203125,0.13739013671875,0.84246826171875
1629795354107,-0.49859619140625,0.14202880859375,0.84130859375
1629795354122,-0.5013427734375,0.1419677734375,0.8419189453125
1629795354122,-0.5018310546875,0.139892578125,0.84033203125
1629795354122,-0.50335693359375,0.14093017578125,0.83941650390625
1629795354279,-0.50469970703125,0.13739013671875,0.84381103515625
1629795354279,-0.50775146484375,0.14166259765625,0.84149169921875
1629795354279,-0.50921630859375,0.13604736328125,0.84344482421875
1629795354419,-0.50726318359375,0.140380859375,0.83843994140625
1629795354419,-0.50927734375,0.1451416015625,0.839111328125
1629795354419,-0.51220703125,0.1416015625,0.83941650390625
1629795354482,-0.515869140625,0.13360595703125,0.82647705078125
1629795354482,-0.51873779296875,0.1280517578125,0.828125
1629795354482,-0.5167236328125,0.12481689453125,0.8243408203125
1629795354825,-0.52520751953125,0.13763427734375,0.83172607421875
1629795354825,-0.5250244140625,0.135009765625,0.83111572265625
1629795354997,-0.53045654296875,0.1373291015625,0.82659912109375
1629795354997,-0.525634765625,0.13739013671875,0.82470703125
1629795355281,-0.53326416015625,0.13800048828125,0.81817626953125
1629795355281,-0.53668212890625,0.1380615234375,0.8199462890625
1629795355281,-0.537841796875,0.14337158203125,0.8157958984375
1629795355531,-0.5426025390625,0.1434326171875,0.80865478515625
1629795355531,-0.540771484375,0.13690185546875,0.81243896484375
1629795355531,-0.541259765625,0.142333984375,0.81365966796875
1629795355812,-0.55487060546875,0.1424560546875,0.80889892578125
1629795355812,-0.55023193359375,0.1422119140625,0.8072509765625
1629795355812,-0.55084228515625,0.14794921875,0.8065185546875
1629795356000,-0.5543212890625,0.14703369140625,0.796630859375
1629795356000,-0.560791015625,0.14239501953125,0.79852294921875
1629795356000,-0.55889892578125,0.137451171875,0.7977294921875
1629795356047,-0.5599365234375,0.13916015625,0.7969970703125
1629795356047,-0.56475830078125,0.1331787109375,0.79931640625
1629795356047,-0.56402587890625,0.13671875,0.79876708984375
1629795356062,-0.569091796875,0.12841796875,0.7962646484375
1629795356062,-0.56500244140625,0.13140869140625,0.797119140625
1629795356062,-0.5616455078125,0.13446044921875,0.796875
1629795356140,-0.56036376953125,0.12652587890625,0.7998046875
1629795356140,-0.56536865234375,0.12091064453125,0.80108642578125
1629795356140,-0.5614013671875,0.12359619140625,0.8011474609375
1629795356234,-0.56158447265625,0.12420654296875,0.8046875
1629795356234,-0.5634765625,0.1290283203125,0.8011474609375
1629795356234,-0.56365966796875,0.12579345703125,0.8060302734375
1629795356515,-0.5675048828125,0.1282958984375,0.80438232421875
1629795356515,-0.566650390625,0.12408447265625,0.7960205078125
1629795356515,-0.56732177734375,0.12890625,0.79791259765625
1629795356546,-0.56494140625,0.1273193359375,0.79913330078125
1629795356546,-0.56719970703125,0.128173828125,0.79791259765625
1629795356546,-0.56671142578125,0.125244140625,0.79766845703125
1629795356562,-0.5694580078125,0.1309814453125,0.79791259765625
1629795356562,-0.57086181640625,0.1304931640625,0.80029296875
1629795356562,-0.56939697265625,0.1300048828125,0.79351806640625
1629795356578,-0.56878662109375,0.1295166015625,0.79803466796875
1629795356578,-0.5667724609375,0.12933349609375,0.80108642578125
1629795356578,-0.5684814453125,0.12969970703125,0.79754638671875
1629795356671,-0.57720947265625,0.1231689453125,0.79229736328125
1629795356671,-0.57269287109375,0.1212158203125,0.7939453125
1629795356671,-0.57476806640625,0.12310791015625,0.79193115234375
1629795357109,-0.579833984375,0.11053466796875,0.79058837890625
1629795357109,-0.57830810546875,0.1138916015625,0.7989501953125
1629795357109,-0.58056640625,0.1217041015625,0.7945556640625
1629795357186,-0.5767822265625,0.120361328125,0.78826904296875
1629795357187,-0.57763671875,0.12408447265625,0.7938232421875
1629795357187,-0.57843017578125,0.11810302734375,0.788330078125
1629795357187,-0.57720947265625,0.1209716796875,0.79180908203125
1629795357187,-0.57843017578125,0.12432861328125,0.79144287109375
1629795357187,-0.57135009765625,0.122802734375,0.7891845703125
1629795357455,-0.57977294921875,0.12408447265625,0.79107666015625
1629795357455,-0.58074951171875,0.122802734375,0.79302978515625
1629795357470,-0.5792236328125,0.12451171875,0.7874755859375
1629795357580,-0.57879638671875,0.12261962890625,0.7889404296875
1629795357580,-0.5782470703125,0.1256103515625,0.7904052734375
1629795357814,-0.5780029296875,0.1236572265625,0.7930908203125
1629795357814,-0.57916259765625,0.12335205078125,0.7930908203125
1629795357814,-0.57965087890625,0.124755859375,0.79290771484375
1629795358158,-0.57904052734375,0.123046875,0.7886962890625
1629795358158,-0.58013916015625,0.1221923828125,0.785400390625
1629795358158,-0.58001708984375,0.11968994140625,0.788330078125
1629795358348,-0.5775146484375,0.11981201171875,0.7918701171875
1629795358348,-0.57781982421875,0.11871337890625,0.792236328125
1629795358348,-0.57916259765625,0.1204833984375,0.79412841796875
1629795358598,-0.5821533203125,0.12139892578125,0.7911376953125
1629795358598,-0.580810546875,0.12542724609375,0.7864990234375
1629795358598,-0.5836181640625,0.125244140625,0.7857666015625
1629795358691,-0.5809326171875,0.1220703125,0.7861328125
1629795358691,-0.5802001953125,0.12200927734375,0.78631591796875
1629795358691,-0.579345703125,0.11834716796875,0.78515625
1629795358707,-0.5791015625,0.12579345703125,0.78363037109375
1629795358707,-0.57855224609375,0.12200927734375,0.78607177734375
1629795358707,-0.57696533203125,0.1263427734375,0.782958984375
1629795358707,-0.57904052734375,0.12542724609375,0.7930908203125
1629795358707,-0.5782470703125,0.12200927734375,0.7869873046875
1629795358707,-0.5804443359375,0.12432861328125,0.79034423828125
1629795358770,-0.57952880859375,0.12408447265625,0.793701171875
1629795358770,-0.58056640625,0.12481689453125,0.78802490234375
1629795358770,-0.57904052734375,0.122314453125,0.79376220703125
1629795358801,-0.582763671875,0.11865234375,0.78985595703125
1629795358801,-0.57879638671875,0.12255859375,0.7908935546875
1629795358801,-0.58184814453125,0.11627197265625,0.7940673828125
1629795358816,-0.57952880859375,0.12652587890625,0.788330078125
1629795358816,-0.581787109375,0.12200927734375,0.78790283203125
1629795358816,-0.575439453125,0.1226806640625,0.7939453125
1629795358895,-0.5802001953125,0.118408203125,0.7911376953125
1629795358910,-0.57659912109375,0.1209716796875,0.79107666015625
1629795358910,-0.5771484375,0.12591552734375,0.79156494140625
1629795358910,-0.577392578125,0.12158203125,0.7930908203125
1629795358910,-0.5797119140625,0.12060546875,0.79119873046875
1629795358910,-0.57861328125,0.11944580078125,0.79052734375
1629795359082,-0.57623291015625,0.11932373046875,0.78961181640625
1629795359082,-0.57635498046875,0.12213134765625,0.79266357421875
1629795359082,-0.57861328125,0.12109375,0.7860107421875
1629795359176,-0.58099365234375,0.11944580078125,0.79132080078125
1629795359192,-0.5772705078125,0.1199951171875,0.790283203125
1629795359192,-0.57977294921875,0.1217041015625,0.7900390625
1629795359240,-0.5791015625,0.11578369140625,0.78875732421875
1629795359240,-0.5816650390625,0.1138916015625,0.79010009765625
1629795359240,-0.575927734375,0.11273193359375,0.7901611328125
1629795359412,-0.57861328125,0.12030029296875,0.78924560546875
1629795359412,-0.58160400390625,0.1141357421875,0.7891845703125
1629795359412,-0.5809326171875,0.1219482421875,0.78985595703125
1629795359444,-0.580810546875,0.10888671875,0.786376953125
1629795359444,-0.5831298828125,0.11279296875,0.78887939453125
1629795359444,-0.57916259765625,0.1173095703125,0.78692626953125
1629795359803,-0.5792236328125,0.112548828125,0.78619384765625
1629795359818,-0.5831298828125,0.11761474609375,0.78973388671875
1629795359818,-0.58367919921875,0.11663818359375,0.7855224609375
1629795359959,-0.582275390625,0.1146240234375,0.78704833984375
1629795359959,-0.58038330078125,0.11669921875,0.786865234375
1629795359959,-0.5819091796875,0.11517333984375,0.78961181640625
1629795360209,-0.58154296875,0.11517333984375,0.791259765625
1629795360209,-0.57855224609375,0.11669921875,0.79559326171875
1629795360209,-0.5791015625,0.120361328125,0.79058837890625
1629795360274,-0.57769775390625,0.11328125,0.78857421875
1629795360274,-0.575439453125,0.1104736328125,0.78485107421875
1629795360290,-0.5775146484375,0.11163330078125,0.78509521484375
1629795360384,-0.57562255859375,0.1136474609375,0.78875732421875
1629795360384,-0.5689697265625,0.12225341796875,0.78692626953125
1629795360384,-0.5751953125,0.11627197265625,0.783447265625
1629795360477,-0.56915283203125,0.12335205078125,0.78692626953125
1629795360477,-0.5675048828125,0.12261962890625,0.79034423828125
1629795360477,-0.56317138671875,0.12054443359375,0.7940673828125
1629795360509,-0.5677490234375,0.11810302734375,0.80908203125
1629795360509,-0.5616455078125,0.1163330078125,0.811279296875
1629795360509,-0.5650634765625,0.12335205078125,0.80133056640625
1629795360540,-0.53155517578125,0.11993408203125,0.824462890625
1629795360540,-0.53759765625,0.11773681640625,0.820068359375
1629795360540,-0.53509521484375,0.12127685546875,0.82366943359375
1629795360571,-0.525146484375,0.11761474609375,0.82879638671875
1629795360571,-0.52569580078125,0.11907958984375,0.830078125
1629795360571,-0.52545166015625,0.11859130859375,0.8245849609375
1629795360790,-0.5235595703125,0.1234130859375,0.83465576171875
1629795360790,-0.522216796875,0.1231689453125,0.83428955078125
1629795360805,-0.521240234375,0.1175537109375,0.83270263671875
1629795360852,-0.513916015625,0.112060546875,0.83441162109375
1629795360852,-0.514404296875,0.11492919921875,0.8365478515625
1629795360852,-0.515625,0.1143798828125,0.837646484375
1629795360915,-0.5108642578125,0.112060546875,0.8382568359375
1629795360915,-0.511474609375,0.11883544921875,0.83782958984375
1629795360915,-0.51568603515625,0.11767578125,0.83612060546875
1629795361086,-0.51190185546875,0.1207275390625,0.839111328125
1629795361102,-0.51171875,0.1268310546875,0.843017578125
1629795361102,-0.51116943359375,0.1251220703125,0.84039306640625
1629795361118,-0.51171875,0.12158203125,0.84002685546875
1629795361118,-0.51165771484375,0.12213134765625,0.841796875
1629795361118,-0.51104736328125,0.1165771484375,0.837158203125
1629795361133,-0.51104736328125,0.11810302734375,0.8369140625
1629795361149,-0.51373291015625,0.11572265625,0.83984375
1629795361149,-0.51336669921875,0.11651611328125,0.8365478515625
1629795361165,-0.511962890625,0.1195068359375,0.83331298828125
1629795361165,-0.513916015625,0.1217041015625,0.835205078125
1629795361165,-0.5123291015625,0.12261962890625,0.83526611328125
1629795361258,-0.51666259765625,0.11614990234375,0.83740234375
1629795361258,-0.51275634765625,0.11749267578125,0.83758544921875
1629795361258,-0.512451171875,0.12042236328125,0.84075927734375
1629795361368,-0.51239013671875,0.1209716796875,0.8348388671875
1629795361383,-0.5130615234375,0.12420654296875,0.83831787109375
1629795361383,-0.51300048828125,0.123046875,0.83685302734375
1629795361399,-0.5128173828125,0.12017822265625,0.8367919921875
1629795361399,-0.5111083984375,0.11505126953125,0.8363037109375
1629795361399,-0.51318359375,0.11907958984375,0.8388671875
1629795361461,-0.51324462890625,0.11822509765625,0.83392333984375
1629795361461,-0.5140380859375,0.12237548828125,0.83538818359375
1629795361461,-0.513671875,0.1229248046875,0.83935546875
1629795361461,-0.514404296875,0.12860107421875,0.83502197265625
1629795361461,-0.51470947265625,0.12457275390625,0.83612060546875
1629795361461,-0.51202392578125,0.1226806640625,0.84033203125
1629795361602,-0.51470947265625,0.12939453125,0.833984375
1629795361618,-0.513427734375,0.12860107421875,0.8365478515625
1629795361618,-0.51190185546875,0.12432861328125,0.8348388671875
1629795361633,-0.51300048828125,0.1278076171875,0.84161376953125
1629795361633,-0.5135498046875,0.1260986328125,0.84100341796875
1629795361633,-0.51123046875,0.1292724609375,0.83856201171875
1629795361665,-0.51324462890625,0.117919921875,0.8353271484375
1629795361665,-0.5137939453125,0.12176513671875,0.83367919921875
1629795361665,-0.51251220703125,0.1180419921875,0.83856201171875
1629795361758,-0.515380859375,0.12255859375,0.83349609375
1629795361758,-0.51495361328125,0.1207275390625,0.83502197265625
1629795361758,-0.51458740234375,0.1202392578125,0.8349609375
1629795361930,-0.51800537109375,0.11553955078125,0.8328857421875
1629795361930,-0.51470947265625,0.12115478515625,0.83233642578125
1629795361930,-0.5181884765625,0.1181640625,0.8323974609375
1629795361977,-0.52001953125,0.114990234375,0.836181640625
1629795361977,-0.51513671875,0.11456298828125,0.8370361328125
1629795361977,-0.514404296875,0.1126708984375,0.83349609375
1629795362055,-0.51544189453125,0.1173095703125,0.83184814453125
1629795362055,-0.51849365234375,0.11383056640625,0.83563232421875
1629795362055,-0.5179443359375,0.11920166015625,0.83880615234375
1629795362120,-0.5159912109375,0.11895751953125,0.83160400390625
1629795362120,-0.516845703125,0.12261962890625,0.833984375
1629795362120,-0.51953125,0.111572265625,0.83477783203125
1629795362260,-0.51873779296875,0.118408203125,0.83685302734375
1629795362260,-0.516357421875,0.1160888671875,0.83599853515625
1629795362260,-0.5147705078125,0.1217041015625,0.83343505859375
1629795362370,-0.515380859375,0.11871337890625,0.83673095703125
1629795362370,-0.5147705078125,0.1217041015625,0.8365478515625
1629795362370,-0.518310546875,0.12213134765625,0.8380126953125
1629795362573,-0.51617431640625,0.121337890625,0.83770751953125
1629795362573,-0.51751708984375,0.12152099609375,0.8388671875
1629795362573,-0.51763916015625,0.12249755859375,0.83868408203125
1629795362682,-0.51422119140625,0.12109375,0.8343505859375
1629795362682,-0.5185546875,0.11309814453125,0.83807373046875
1629795362682,-0.5169677734375,0.1156005859375,0.83148193359375
1629795362807,-0.52032470703125,0.12225341796875,0.828369140625
1629795362823,-0.5208740234375,0.1143798828125,0.8302001953125
1629795362823,-0.52008056640625,0.11883544921875,0.82904052734375
1629795362948,-0.5233154296875,0.120361328125,0.83203125
1629795362948,-0.52459716796875,0.12091064453125,0.834228515625
1629795362948,-0.5213623046875,0.12335205078125,0.8299560546875
1629795363041,-0.52410888671875,0.122802734375,0.8306884765625
1629795363041,-0.5244140625,0.1185302734375,0.830078125
1629795363041,-0.52325439453125,0.12152099609375,0.8289794921875
1629795363184,-0.5283203125,0.12060546875,0.8302001953125
1629795363184,-0.5264892578125,0.122802734375,0.8302001953125
1629795363184,-0.52606201171875,0.11962890625,0.83221435546875
1629795363371,-0.52813720703125,0.12310791015625,0.8321533203125
1629795363371,-0.5272216796875,0.12213134765625,0.832763671875
1629795363387,-0.52984619140625,0.12127685546875,0.8306884765625
1629795363403,-0.53363037109375,0.1217041015625,0.822998046875
1629795363403,-0.53155517578125,0.1251220703125,0.8251953125
1629795363418,-0.5311279296875,0.12298583984375,0.8299560546875
1629795363653,-0.54998779296875,0.12579345703125,0.81072998046875
1629795363653,-0.54833984375,0.1251220703125,0.81353759765625
1629795363653,-0.55078125,0.1278076171875,0.81011962890625
1629795363668,-0.556884765625,0.12298583984375,0.81414794921875
1629795363668,-0.5604248046875,0.12042236328125,0.80987548828125
1629795363668,-0.55340576171875,0.126220703125,0.80950927734375
1629795363793,-0.577392578125,0.12725830078125,0.786865234375
1629795363793,-0.57501220703125,0.1268310546875,0.78472900390625
1629795363793,-0.57513427734375,0.12713623046875,0.7894287109375
1629795363918,-0.588623046875,0.11151123046875,0.7850341796875
1629795363918,-0.58990478515625,0.108642578125,0.7767333984375
1629795363918,-0.58990478515625,0.10894775390625,0.78253173828125
1629795363918,-0.581787109375,0.12322998046875,0.7860107421875
1629795363918,-0.58026123046875,0.123046875,0.783203125
1629795363918,-0.58026123046875,0.11688232421875,0.78558349609375
1629795364043,-0.59552001953125,0.10430908203125,0.7791748046875
1629795364043,-0.59869384765625,0.0997314453125,0.778076171875
1629795364043,-0.59613037109375,0.09722900390625,0.7783203125
1629795364249,-0.5855712890625,0.11669921875,0.784912109375
1629795364249,-0.5880126953125,0.11566162109375,0.7855224609375
1629795364249,-0.58740234375,0.11932373046875,0.78253173828125
1629795364358,-0.58160400390625,0.13031005859375,0.79144287109375
1629795364358,-0.58416748046875,0.1285400390625,0.78778076171875
1629795364358,-0.582275390625,0.122802734375,0.7861328125
1629795364514,-0.5787353515625,0.13140869140625,0.7928466796875
1629795364514,-0.5816650390625,0.12884521484375,0.79193115234375
1629795364514,-0.580078125,0.13330078125,0.791259765625
1629795364592,-0.57525634765625,0.1304931640625,0.78985595703125
1629795364592,-0.5772705078125,0.1265869140625,0.79248046875
1629795364592,-0.57666015625,0.13104248046875,0.7916259765625
1629795364764,-0.57904052734375,0.12420654296875,0.79473876953125
1629795364764,-0.57647705078125,0.1192626953125,0.79058837890625
1629795364764,-0.58013916015625,0.12506103515625,0.78778076171875
1629795364936,-0.57720947265625,0.1256103515625,0.78424072265625
1629795364936,-0.57818603515625,0.125732421875,0.78814697265625
1629795364952,-0.578125,0.12115478515625,0.7908935546875
1629795364967,-0.57763671875,0.12371826171875,0.78948974609375
1629795364967,-0.58001708984375,0.1298828125,0.79132080078125
1629795364967,-0.57855224609375,0.126953125,0.7935791015625
1629795365014,-0.58428955078125,0.12725830078125,0.78338623046875
1629795365014,-0.5831298828125,0.12603759765625,0.782470703125
1629795365014,-0.58367919921875,0.13018798828125,0.7874755859375
1629795365030,-0.5850830078125,0.1181640625,0.79058837890625
1629795365030,-0.584228515625,0.11529541015625,0.7943115234375
1629795365045,-0.58404541015625,0.12005615234375,0.78887939453125
1629795365092,-0.58349609375,0.1182861328125,0.78857421875
1629795365092,-0.585693359375,0.1234130859375,0.78289794921875
1629795365092,-0.5872802734375,0.11785888671875,0.78387451171875
1629795365092,-0.5836181640625,0.12286376953125,0.7872314453125
1629795365092,-0.57940673828125,0.122314453125,0.7825927734375
1629795365092,-0.5841064453125,0.11956787109375,0.78497314453125
1629795365248,-0.58453369140625,0.12261962890625,0.78350830078125
1629795365248,-0.58087158203125,0.12652587890625,0.7822265625
1629795365248,-0.58575439453125,0.1268310546875,0.7843017578125
1629795365327,-0.58380126953125,0.125,0.7840576171875
1629795365342,-0.586181640625,0.12664794921875,0.7833251953125
1629795365342,-0.5848388671875,0.126708984375,0.78265380859375
1629795365405,-0.58477783203125,0.12646484375,0.783935546875
1629795365405,-0.58447265625,0.125244140625,0.7894287109375
1629795365405,-0.58270263671875,0.12646484375,0.7874755859375
1629795365686,-0.58502197265625,0.12353515625,0.78704833984375
1629795365686,-0.583251953125,0.12506103515625,0.7841796875
1629795365686,-0.58233642578125,0.12042236328125,0.7860107421875
1629795365795,-0.58416748046875,0.12969970703125,0.79010009765625
1629795365795,-0.581298828125,0.1236572265625,0.7860107421875
1629795365795,-0.57958984375,0.128173828125,0.78533935546875
1629795365795,-0.57940673828125,0.12664794921875,0.7894287109375
1629795365795,-0.58282470703125,0.13043212890625,0.78607177734375
1629795365795,-0.58135986328125,0.12872314453125,0.7889404296875
1629795365936,-0.58013916015625,0.12042236328125,0.78472900390625
1629795365936,-0.58282470703125,0.121337890625,0.78826904296875
1629795365951,-0.58270263671875,0.1214599609375,0.78778076171875
1629795365967,-0.581298828125,0.122802734375,0.79205322265625
1629795365967,-0.57891845703125,0.12640380859375,0.78912353515625
1629795365967,-0.583984375,0.12518310546875,0.78631591796875
1629795366173,-0.5811767578125,0.12255859375,0.79095458984375
1629795366188,-0.58050537109375,0.1214599609375,0.7913818359375
1629795366188,-0.580322265625,0.123291015625,0.7899169921875
1629795366360,-0.58343505859375,0.1279296875,0.78564453125
1629795366360,-0.58050537109375,0.12750244140625,0.790771484375
1629795366360,-0.5831298828125,0.12347412109375,0.78948974609375
1629795366469,-0.585205078125,0.12548828125,0.787841796875
1629795366469,-0.58648681640625,0.12530517578125,0.78564453125
1629795366469,-0.58551025390625,0.12579345703125,0.78350830078125
1629795366907,-0.59033203125,0.12713623046875,0.77911376953125
1629795366907,-0.5869140625,0.12677001953125,0.77752685546875
1629795366907,-0.59173583984375,0.12457275390625,0.77734375
1629795366922,-0.58978271484375,0.11737060546875,0.779296875
1629795366922,-0.59417724609375,0.119873046875,0.7781982421875
1629795366938,-0.58966064453125,0.118896484375,0.779541015625
1629795366938,-0.591064453125,0.11474609375,0.78167724609375
1629795366938,-0.58990478515625,0.11773681640625,0.77984619140625
1629795366954,-0.5909423828125,0.12030029296875,0.77813720703125
1629795366985,-0.591796875,0.11590576171875,0.7796630859375
1629795366985,-0.5909423828125,0.1195068359375,0.779296875
1629795366985,-0.58978271484375,0.1168212890625,0.77734375
1629795367238,-0.594482421875,0.12005615234375,0.781982421875
1629795367238,-0.591552734375,0.12127685546875,0.77911376953125
1629795367238,-0.59503173828125,0.12091064453125,0.78033447265625
1629795367503,-0.57568359375,0.10772705078125,0.7886962890625
1629795367503,-0.58172607421875,0.1053466796875,0.789794921875
1629795367503,-0.5850830078125,0.11029052734375,0.79046630859375
1629795367550,-0.574462890625,0.11529541015625,0.79150390625
1629795367550,-0.57080078125,0.1204833984375,0.7926025390625
1629795367550,-0.5748291015625,0.1148681640625,0.79034423828125
1629795367847,-0.567138671875,0.11932373046875,0.79437255859375
1629795367847,-0.56109619140625,0.1240234375,0.80426025390625
1629795367847,-0.5662841796875,0.1240234375,0.79913330078125
1629795368019,-0.55950927734375,0.1256103515625,0.80694580078125
1629795368019,-0.5589599609375,0.12982177734375,0.80712890625
1629795368019,-0.56195068359375,0.12762451171875,0.80767822265625
1629795368034,-0.5557861328125,0.13531494140625,0.80682373046875
1629795368034,-0.5562744140625,0.13421630859375,0.80340576171875
1629795368034,-0.55255126953125,0.1322021484375,0.80572509765625
1629795368112,-0.551025390625,0.129150390625,0.8072509765625
1629795368112,-0.55145263671875,0.13153076171875,0.808837890625
1629795368112,-0.553955078125,0.1263427734375,0.805419921875
1629795368145,-0.532470703125,0.1263427734375,0.82489013671875
1629795368145,-0.52850341796875,0.12469482421875,0.83172607421875
1629795368147,-0.53533935546875,0.120361328125,0.8240966796875
1629795368553,-0.53057861328125,0.1282958984375,0.83123779296875
1629795368553,-0.5306396484375,0.12384033203125,0.83294677734375
1629795368553,-0.52667236328125,0.1287841796875,0.82928466796875
1629795368693,-0.53179931640625,0.12359619140625,0.82623291015625
1629795368693,-0.5323486328125,0.12615966796875,0.8311767578125
1629795368693,-0.53106689453125,0.12518310546875,0.8251953125
1629795368850,-0.524169921875,0.117431640625,0.82269287109375
1629795368850,-0.52734375,0.1214599609375,0.82220458984375
1629795368865,-0.53033447265625,0.12127685546875,0.82318115234375
1629795368881,-0.52587890625,0.1240234375,0.8370361328125
1629795368881,-0.52093505859375,0.12548828125,0.83563232421875
1629795368897,-0.5225830078125,0.12127685546875,0.83685302734375
1629795369006,-0.5302734375,0.13665771484375,0.8248291015625
1629795369006,-0.52728271484375,0.1378173828125,0.83563232421875
1629795369006,-0.522705078125,0.13739013671875,0.8271484375
1629795369084,-0.52325439453125,0.13787841796875,0.83001708984375
1629795369084,-0.52642822265625,0.137939453125,0.83984375
1629795369084,-0.526123046875,0.1368408203125,0.82647705078125
1629795369115,-0.52740478515625,0.1417236328125,0.82421875
1629795369115,-0.5244140625,0.144775390625,0.82916259765625
1629795369115,-0.52752685546875,0.145263671875,0.8267822265625
1629795369209,-0.52294921875,0.13623046875,0.82232666015625
1629795369209,-0.52386474609375,0.13531494140625,0.82318115234375
1629795369209,-0.52496337890625,0.13262939453125,0.82745361328125
1629795369240,-0.5240478515625,0.126708984375,0.82806396484375
1629795369240,-0.52581787109375,0.130859375,0.82733154296875
1629795369240,-0.52325439453125,0.1241455078125,0.830322265625
1629795369240,-0.52606201171875,0.13397216796875,0.82379150390625
1629795369256,-0.52789306640625,0.12939453125,0.8253173828125
1629795369256,-0.5230712890625,0.12701416015625,0.82568359375
1629795369303,-0.526611328125,0.1370849609375,0.828125
1629795369303,-0.52496337890625,0.14312744140625,0.828125
1629795369303,-0.524658203125,0.140625,0.823974609375
1629795369896,-0.52899169921875,0.13653564453125,0.82672119140625
1629795369896,-0.5301513671875,0.13677978515625,0.82305908203125
1629795369896,-0.5291748046875,0.14453125,0.8275146484375
1629795369896,-0.52874755859375,0.1419677734375,0.8284912109375
1629795369896,-0.52874755859375,0.13433837890625,0.82415771484375
1629795369896,-0.52667236328125,0.13800048828125,0.82513427734375
1629795369896,-0.52874755859375,0.137451171875,0.82391357421875
1629795369896,-0.52899169921875,0.13385009765625,0.82305908203125
1629795369896,-0.53021240234375,0.13128662109375,0.82305908203125
1629795369943,-0.53436279296875,0.14013671875,0.82147216796875
1629795369943,-0.53326416015625,0.13800048828125,0.81988525390625
1629795369943,-0.529052734375,0.14251708984375,0.8260498046875
1629795370099,-0.5341796875,0.13861083984375,0.81951904296875
1629795370099,-0.53179931640625,0.138916015625,0.8179931640625
1629795370099,-0.53045654296875,0.139892578125,0.8233642578125
1629795370336,-0.54315185546875,0.13629150390625,0.8216552734375
1629795370336,-0.53753662109375,0.14044189453125,0.82208251953125
1629795370336,-0.53729248046875,0.1400146484375,0.8221435546875
1629795370914,-0.53961181640625,0.14154052734375,0.81658935546875
1629795370914,-0.5390625,0.14288330078125,0.81024169921875
1629795370914,-0.53857421875,0.1387939453125,0.81610107421875
1629795371041,-0.5440673828125,0.1419677734375,0.81109619140625
1629795371041,-0.543212890625,0.1341552734375,0.80975341796875
1629795371041,-0.54388427734375,0.13690185546875,0.81341552734375
1629795371213,-0.54638671875,0.14776611328125,0.8050537109375
1629795371213,-0.54779052734375,0.14447021484375,0.80804443359375
1629795371213,-0.54681396484375,0.1475830078125,0.808349609375
1629795371322,-0.56060791015625,0.1416015625,0.7984619140625
1629795371338,-0.55072021484375,0.15081787109375,0.80706787109375
1629795371338,-0.56268310546875,0.13995361328125,0.80072021484375
1629795371338,-0.55126953125,0.14617919921875,0.8072509765625
1629795371338,-0.5496826171875,0.14691162109375,0.8095703125
1629795371338,-0.56146240234375,0.13671875,0.79827880859375
1629795371431,-0.56298828125,0.136962890625,0.8045654296875
1629795371431,-0.55926513671875,0.13775634765625,0.797607421875
1629795371431,-0.55859375,0.1378173828125,0.801025390625
1629795371463,-0.56109619140625,0.13482666015625,0.80645751953125
1629795371463,-0.5582275390625,0.13983154296875,0.80389404296875
1629795371463,-0.56036376953125,0.13641357421875,0.80706787109375
1629795371603,-0.561279296875,0.1356201171875,0.80108642578125
1629795371603,-0.5618896484375,0.13494873046875,0.80072021484375
1629795371603,-0.56158447265625,0.141357421875,0.7991943359375
1629795371650,-0.562744140625,0.12994384765625,0.8017578125
1629795371650,-0.56695556640625,0.13421630859375,0.79833984375
1629795371650,-0.562255859375,0.13226318359375,0.802001953125
1629795371650,-0.568603515625,0.132568359375,0.79925537109375
1629795371650,-0.5616455078125,0.13275146484375,0.80291748046875
1629795371650,-0.562744140625,0.131103515625,0.79925537109375
1629795372168,-0.566650390625,0.11407470703125,0.7991943359375
1629795372168,-0.5650634765625,0.1173095703125,0.79931640625
1629795372168,-0.567626953125,0.11602783203125,0.79718017578125
1629795372183,-0.56646728515625,0.12225341796875,0.79962158203125
1629795372183,-0.5635986328125,0.12017822265625,0.79998779296875
1629795372183,-0.570068359375,0.120849609375,0.8001708984375
1629795372230,-0.56439208984375,0.119140625,0.8037109375
1629795372230,-0.56304931640625,0.12109375,0.8045654296875
1629795372230,-0.56439208984375,0.1204833984375,0.80010986328125
1629795372402,-0.5670166015625,0.117919921875,0.8016357421875
1629795372402,-0.5625,0.1177978515625,0.7962646484375
1629795372402,-0.57177734375,0.119384765625,0.7989501953125
1629795372512,-0.56170654296875,0.11407470703125,0.79876708984375
1629795372527,-0.560302734375,0.12060546875,0.798095703125
1629795372668,-0.56329345703125,0.12115478515625,0.80267333984375
1629795372668,-0.56475830078125,0.12445068359375,0.807861328125
1629795372668,-0.56207275390625,0.121337890625,0.80731201171875
1629795373027,-0.56317138671875,0.11883544921875,0.80804443359375
1629795373027,-0.56591796875,0.12158203125,0.8037109375
1629795373027,-0.5633544921875,0.11993408203125,0.80291748046875
1629795373105,-0.55889892578125,0.12213134765625,0.80133056640625
1629795373105,-0.56768798828125,0.120361328125,0.80859375
1629795373105,-0.5611572265625,0.1197509765625,0.79974365234375
1629795373105,-0.5616455078125,0.11663818359375,0.80194091796875
1629795373105,-0.56121826171875,0.1146240234375,0.80120849609375
1629795373105,-0.55804443359375,0.12274169921875,0.80206298828125
1629795373105,-0.55804443359375,0.1234130859375,0.80389404296875
1629795373121,-0.56134033203125,0.126220703125,0.8023681640625
1629795373121,-0.56231689453125,0.1181640625,0.802001953125
1629795373183,-0.56365966796875,0.12359619140625,0.8028564453125
1629795373183,-0.56396484375,0.11712646484375,0.8023681640625
1629795373183,-0.5615234375,0.1207275390625,0.8016357421875
1629795373261,-0.55963134765625,0.12274169921875,0.80670166015625
1629795373261,-0.55889892578125,0.1187744140625,0.80767822265625
1629795373277,-0.5609130859375,0.12213134765625,0.80560302734375
1629795373277,-0.5633544921875,0.12054443359375,0.805419921875
1629795373277,-0.56353759765625,0.12042236328125,0.8056640625
1629795373277,-0.5614013671875,0.12255859375,0.801025390625
1629795373308,-0.5599365234375,0.11627197265625,0.80548095703125
1629795373308,-0.5574951171875,0.1170654296875,0.80792236328125
1629795373308,-0.56243896484375,0.11767578125,0.8016357421875
1629795373386,-0.55914306640625,0.11651611328125,0.79791259765625
1629795373386,-0.5595703125,0.11920166015625,0.7969970703125
1629795373402,-0.55908203125,0.11895751953125,0.803955078125
1629795373402,-0.556396484375,0.1204833984375,0.80206298828125
1629795373402,-0.5592041015625,0.11773681640625,0.80706787109375
1629795373402,-0.5565185546875,0.1182861328125,0.7972412109375
1629795373418,-0.553466796875,0.12274169921875,0.810302734375
1629795373418,-0.554931640625,0.12384033203125,0.81121826171875
1629795373418,-0.55157470703125,0.1160888671875,0.808837890625
1629795373464,-0.55535888671875,0.1195068359375,0.813232421875
1629795373464,-0.557373046875,0.120361328125,0.81036376953125
1629795373464,-0.5546875,0.1158447265625,0.80645751953125
1629795373792,-0.55181884765625,0.11077880859375,0.80755615234375
1629795373792,-0.5513916015625,0.1126708984375,0.80743408203125
1629795373792,-0.5509033203125,0.11358642578125,0.805908203125
1629795373839,-0.5546875,0.11492919921875,0.8065185546875
1629795373839,-0.55364990234375,0.114501953125,0.8067626953125
1629795373839,-0.55322265625,0.11883544921875,0.80767822265625
1629795373855,-0.554443359375,0.115478515625,0.81121826171875
1629795373855,-0.55474853515625,0.1207275390625,0.80987548828125
1629795373855,-0.5565185546875,0.1187744140625,0.81378173828125
1629795373933,-0.55853271484375,0.12017822265625,0.81097412109375
1629795373933,-0.55389404296875,0.11785888671875,0.804443359375
1629795373933,-0.5556640625,0.11822509765625,0.80865478515625
1629795373964,-0.557861328125,0.12054443359375,0.80450439453125
1629795373964,-0.55731201171875,0.1201171875,0.80718994140625
1629795373964,-0.55487060546875,0.11956787109375,0.8057861328125
1629795373980,-0.5572509765625,0.11810302734375,0.8052978515625
1629795373980,-0.55718994140625,0.11737060546875,0.80364990234375
1629795373980,-0.55792236328125,0.12054443359375,0.80572509765625
1629795374089,-0.5611572265625,0.11468505859375,0.802001953125
1629795374105,-0.558349609375,0.11474609375,0.804443359375
1629795374136,-0.55792236328125,0.1256103515625,0.80859375
1629795374136,-0.55621337890625,0.12982177734375,0.80523681640625
1629795374136,-0.55706787109375,0.121337890625,0.80865478515625
1629795374214,-0.558837890625,0.13177490234375,0.8067626953125
1629795374230,-0.55743408203125,0.1280517578125,0.80419921875
1629795374230,-0.55865478515625,0.130615234375,0.804443359375
1629795374433,-0.5518798828125,0.12841796875,0.806396484375
1629795374449,-0.5565185546875,0.1270751953125,0.80474853515625
1629795374449,-0.552490234375,0.1280517578125,0.8065185546875
1629795374824,-0.5526123046875,0.12542724609375,0.809814453125
1629795374824,-0.5537109375,0.1212158203125,0.80377197265625
1629795374824,-0.5562744140625,0.12225341796875,0.805419921875
1629795374824,-0.55291748046875,0.1240234375,0.80810546875
1629795374824,-0.55633544921875,0.12188720703125,0.8076171875
1629795374824,-0.5570068359375,0.1221923828125,0.80450439453125
1629795374933,-0.55072021484375,0.12713623046875,0.810791015625
1629795374933,-0.5531005859375,0.12884521484375,0.80877685546875
1629795374933,-0.5535888671875,0.1268310546875,0.80926513671875
1629795374948,-0.54974365234375,0.12945556640625,0.8106689453125
1629795374948,-0.55181884765625,0.12713623046875,0.8087158203125
1629795374948,-0.55181884765625,0.13226318359375,0.81072998046875
1629795375058,-0.55072021484375,0.12939453125,0.80877685546875
1629795375058,-0.5550537109375,0.1282958984375,0.81005859375
1629795375058,-0.550048828125,0.12799072265625,0.81146240234375
1629795375073,-0.54974365234375,0.12493896484375,0.81396484375
1629795375073,-0.5513916015625,0.126708984375,0.80767822265625
1629795375073,-0.54901123046875,0.1265869140625,0.80780029296875
1629795375233,-0.5443115234375,0.1251220703125,0.81768798828125
1629795375233,-0.54937744140625,0.1253662109375,0.811767578125
1629795375233,-0.54351806640625,0.11767578125,0.81201171875
1629795375233,-0.54345703125,0.12554931640625,0.81884765625
1629795375249,-0.5457763671875,0.12811279296875,0.8177490234375
1629795375249,-0.54595947265625,0.12884521484375,0.8160400390625
1629795375327,-0.54364013671875,0.11871337890625,0.81732177734375
1629795375327,-0.5418701171875,0.11639404296875,0.815673828125
1629795375327,-0.54290771484375,0.113037109375,0.816162109375
1629795375467,-0.54248046875,0.11920166015625,0.82049560546875
1629795375467,-0.53997802734375,0.12237548828125,0.81878662109375
1629795375467,-0.5423583984375,0.11993408203125,0.81744384765625
1629795375498,-0.54119873046875,0.126708984375,0.8173828125
1629795375498,-0.5421142578125,0.12335205078125,0.81292724609375
1629795375498,-0.54022216796875,0.119873046875,0.82000732421875
1629795375577,-0.54168701171875,0.11932373046875,0.8155517578125
1629795375592,-0.54376220703125,0.12139892578125,0.8167724609375
1629795375592,-0.54217529296875,0.1209716796875,0.81695556640625
1629795375920,-0.54022216796875,0.12005615234375,0.81524658203125
1629795375936,-0.54241943359375,0.12164306640625,0.8167724609375
1629795375936,-0.53643798828125,0.11663818359375,0.8197021484375
1629795375998,-0.54168701171875,0.12603759765625,0.81817626953125
1629795375998,-0.53997802734375,0.123046875,0.8150634765625
1629795375998,-0.54180908203125,0.12701416015625,0.81884765625
1629795376014,-0.53778076171875,0.124755859375,0.819091796875
1629795376014,-0.5391845703125,0.12530517578125,0.81805419921875
1629795376014,-0.5379638671875,0.12091064453125,0.817626953125
1629795376014,-0.53692626953125,0.1253662109375,0.8157958984375
1629795376030,-0.53857421875,0.1297607421875,0.81756591796875
1629795376030,-0.54150390625,0.1240234375,0.817626953125
1629795376139,-0.533935546875,0.1209716796875,0.81890869140625
1629795376139,-0.53668212890625,0.11871337890625,0.82037353515625
1629795376139,-0.538818359375,0.1226806640625,0.82293701171875
1629795376295,-0.5345458984375,0.113525390625,0.82061767578125
1629795376311,-0.5355224609375,0.1146240234375,0.82354736328125
1629795376311,-0.53765869140625,0.11541748046875,0.82550048828125
1629795376389,-0.5352783203125,0.11932373046875,0.8297119140625
1629795376405,-0.53411865234375,0.120849609375,0.82269287109375
1629795376405,-0.53179931640625,0.1190185546875,0.82476806640625
1629795376405,-0.53668212890625,0.11639404296875,0.8245849609375
1629795376405,-0.53546142578125,0.11700439453125,0.82342529296875
1629795376405,-0.531494140625,0.11346435546875,0.82537841796875
1629795376576,-0.53564453125,0.10552978515625,0.8162841796875
1629795376576,-0.53057861328125,0.1072998046875,0.81390380859375
1629795376576,-0.53070068359375,0.11322021484375,0.8079833984375
1629795376639,-0.53253173828125,0.11322021484375,0.81585693359375
1629795376639,-0.52899169921875,0.11639404296875,0.8189697265625
1629795376639,-0.525634765625,0.112060546875,0.8199462890625
1629795376826,-0.52655029296875,0.11029052734375,0.82537841796875
1629795376826,-0.52459716796875,0.111083984375,0.83551025390625
1629795376826,-0.52813720703125,0.1080322265625,0.8277587890625
1629795376951,-0.52337646484375,0.11749267578125,0.83758544921875
1629795376951,-0.52947998046875,0.1148681640625,0.83770751953125
1629795376951,-0.5252685546875,0.11663818359375,0.83868408203125
1629795377360,-0.5184326171875,0.1151123046875,0.830078125
1629795377360,-0.52301025390625,0.1173095703125,0.8343505859375
1629795377375,-0.513427734375,0.11566162109375,0.82965087890625
1629795377391,-0.5057373046875,0.1058349609375,0.82037353515625
1629795377391,-0.49578857421875,0.10760498046875,0.82373046875
1629795377391,-0.49835205078125,0.10888671875,0.82843017578125
1629795377407,-0.49749755859375,0.115234375,0.83831787109375
1629795377407,-0.4969482421875,0.1162109375,0.8526611328125
1629795377422,-0.49542236328125,0.1221923828125,0.8555908203125
1629795377532,-0.490234375,0.1278076171875,0.87237548828125
1629795377532,-0.4874267578125,0.1328125,0.8780517578125
1629795377532,-0.49298095703125,0.12225341796875,0.86474609375
1629795377594,-0.4801025390625,0.1336669921875,0.8726806640625
1629795377594,-0.466552734375,0.1395263671875,0.86846923828125
1629795377594,-0.46258544921875,0.14483642578125,0.8759765625
1629795377594,-0.46026611328125,0.14453125,0.87030029296875
1629795377594,-0.471923828125,0.14080810546875,0.86492919921875
1629795377594,-0.4771728515625,0.1361083984375,0.8685302734375
1629795377766,-0.46990966796875,0.13165283203125,0.85052490234375
1629795377766,-0.46441650390625,0.1357421875,0.86358642578125
1629795377766,-0.47052001953125,0.1295166015625,0.85186767578125
1629795377797,-0.47662353515625,0.1441650390625,0.83221435546875
1629795377797,-0.47906494140625,0.1600341796875,0.85247802734375
1629795377797,-0.48040771484375,0.1495361328125,0.83489990234375
1629795377906,-0.4840087890625,0.1654052734375,0.8760986328125
1629795377906,-0.48321533203125,0.16448974609375,0.8712158203125
1629795377906,-0.4783935546875,0.16180419921875,0.87286376953125
1629795378127,-0.47650146484375,0.166015625,0.86688232421875
1629795378127,-0.4835205078125,0.1541748046875,0.8272705078125
1629795378127,-0.47955322265625,0.16387939453125,0.8846435546875
1629795378127,-0.48345947265625,0.16339111328125,0.8514404296875
1629795378127,-0.48468017578125,0.16033935546875,0.84466552734375
1629795378127,-0.48040771484375,0.14630126953125,0.81390380859375
1629795378174,-0.49456787109375,0.13818359375,0.8411865234375
1629795378174,-0.4815673828125,0.14239501953125,0.8201904296875
1629795378174,-0.49151611328125,0.1396484375,0.85009765625
1629795378205,-0.50457763671875,0.1297607421875,0.8389892578125
1629795378205,-0.50274658203125,0.12921142578125,0.83551025390625
1629795378205,-0.5062255859375,0.127197265625,0.8382568359375
1629795378205,-0.50372314453125,0.13018798828125,0.835205078125
1629795378205,-0.50933837890625,0.11932373046875,0.83392333984375
1629795378205,-0.5079345703125,0.131103515625,0.8458251953125
1629795378221,-0.50360107421875,0.12005615234375,0.84613037109375
1629795378221,-0.49591064453125,0.11761474609375,0.83306884765625
1629795378221,-0.49981689453125,0.1195068359375,0.8387451171875
1629795378455,-0.49102783203125,0.123779296875,0.84716796875
1629795378455,-0.49072265625,0.11932373046875,0.8377685546875
1629795378455,-0.48779296875,0.12664794921875,0.8460693359375
1629795378471,-0.49310302734375,0.12554931640625,0.85833740234375
1629795378487,-0.49151611328125,0.13079833984375,0.86737060546875
1629795378487,-0.49493408203125,0.1278076171875,0.868896484375
1629795378565,-0.4844970703125,0.14141845703125,0.84942626953125
1629795378565,-0.47442626953125,0.1441650390625,0.8446044921875
1629795378580,-0.4796142578125,0.138916015625,0.85064697265625
1629795378580,-0.47662353515625,0.14202880859375,0.84747314453125
1629795378580,-0.485595703125,0.13714599609375,0.8680419921875
1629795378580,-0.48114013671875,0.13800048828125,0.86181640625
1629795378580,-0.4830322265625,0.13800048828125,0.864501953125
1629795378580,-0.47998046875,0.14520263671875,0.854248046875
1629795378580,-0.4786376953125,0.142822265625,0.84906005859375
1629795378752,-0.49163818359375,0.13433837890625,0.85400390625
1629795378752,-0.4881591796875,0.13848876953125,0.85870361328125
1629795378752,-0.48895263671875,0.12933349609375,0.856201171875
1629795378783,-0.4720458984375,0.1456298828125,0.8438720703125
1629795378783,-0.47772216796875,0.1396484375,0.851318359375
1629795378783,-0.48162841796875,0.14031982421875,0.85589599609375
1629795378877,-0.46966552734375,0.15570068359375,0.84765625
1629795378893,-0.467041015625,0.16766357421875,0.8470458984375
1629795378893,-0.46917724609375,0.16461181640625,0.85205078125
1629795379080,-0.47412109375,0.160400390625,0.84368896484375
1629795379080,-0.473876953125,0.1617431640625,0.84552001953125
1629795379096,-0.47247314453125,0.16009521484375,0.845458984375
1629795379161,-0.47802734375,0.16595458984375,0.8494873046875
1629795379161,-0.48046875,0.15228271484375,0.85980224609375
1629795379161,-0.47076416015625,0.163818359375,0.850341796875
1629795379239,-0.484130859375,0.14715576171875,0.8607177734375
1629795379239,-0.4869384765625,0.1456298828125,0.85693359375
1629795379239,-0.48919677734375,0.14300537109375,0.8558349609375
1629795379286,-0.48541259765625,0.1390380859375,0.84429931640625
1629795379301,-0.48553466796875,0.1431884765625,0.85369873046875
1629795379301,-0.48681640625,0.1422119140625,0.85015869140625
1629795379317,-0.487060546875,0.1300048828125,0.8515625
1629795379317,-0.4884033203125,0.13348388671875,0.85186767578125
1629795379317,-0.482177734375,0.13555908203125,0.85009765625
1629795379348,-0.4881591796875,0.15313720703125,0.8648681640625
1629795379348,-0.4844970703125,0.15679931640625,0.86712646484375
1629795379348,-0.49310302734375,0.1436767578125,0.86126708984375
1629795379379,-0.4921875,0.148681640625,0.85003662109375
1629795379379,-0.49188232421875,0.14312744140625,0.84613037109375
1629795379379,-0.49102783203125,0.14605712890625,0.85400390625
1629795379411,-0.48638916015625,0.1466064453125,0.833251953125
1629795379411,-0.49029541015625,0.1456298828125,0.83795166015625
1629795379411,-0.4951171875,0.14910888671875,0.8489990234375
1629795379770,-0.50408935546875,0.12652587890625,0.85302734375
1629795379770,-0.5009765625,0.123779296875,0.8463134765625
1629795379770,-0.500244140625,0.1219482421875,0.84423828125
1629795379910,-0.5130615234375,0.13018798828125,0.83526611328125
1629795379910,-0.52203369140625,0.13177490234375,0.84271240234375
1629795379910,-0.51513671875,0.12811279296875,0.82379150390625
1629795379910,-0.51934814453125,0.13494873046875,0.8272705078125
1629795379926,-0.5184326171875,0.13348388671875,0.839599609375
1629795379926,-0.51593017578125,0.1341552734375,0.83251953125
1629795380020,-0.513916015625,0.12786865234375,0.8203125
1629795380020,-0.51556396484375,0.12542724609375,0.826904296875
1629795380020,-0.51470947265625,0.135009765625,0.81805419921875
1629795380179,-0.53424072265625,0.13812255859375,0.844970703125
1629795380179,-0.52886962890625,0.1351318359375,0.8355712890625
1629795380194,-0.5203857421875,0.13482666015625,0.82135009765625
1629795380225,-0.5313720703125,0.14605712890625,0.85675048828125
1629795380225,-0.5279541015625,0.14898681640625,0.85540771484375
1629795380241,-0.5343017578125,0.140380859375,0.85382080078125
1629795380350,-0.51861572265625,0.14984130859375,0.83355712890625
1629795380366,-0.5184326171875,0.14910888671875,0.823974609375
1629795380366,-0.5250244140625,0.15167236328125,0.84710693359375
1629795380507,-0.530029296875,0.18597412109375,0.8310546875
1629795380507,-0.53497314453125,0.18316650390625,0.8238525390625
1629795380507,-0.53643798828125,0.18292236328125,0.83074951171875
1629795380569,-0.54266357421875,0.1744384765625,0.7998046875
1629795380569,-0.54046630859375,0.17010498046875,0.79290771484375
1629795380569,-0.54083251953125,0.1805419921875,0.80645751953125
1629795380882,-0.53289794921875,0.169189453125,0.81512451171875
1629795380882,-0.54290771484375,0.17919921875,0.82568359375
1629795380882,-0.53338623046875,0.17315673828125,0.810791015625
1629795380928,-0.52496337890625,0.16827392578125,0.814697265625
1629795380928,-0.52471923828125,0.16827392578125,0.8172607421875
1629795380944,-0.53021240234375,0.16497802734375,0.8232421875
1629795381259,-0.52691650390625,0.15570068359375,0.84027099609375
1629795381259,-0.52276611328125,0.15087890625,0.83251953125
1629795381274,-0.5272216796875,0.16192626953125,0.82904052734375
1629795381274,-0.5267333984375,0.16168212890625,0.82830810546875
1629795381274,-0.51934814453125,0.14801025390625,0.8258056640625
1629795381274,-0.5213623046875,0.1536865234375,0.81707763671875
1629795381446,-0.5133056640625,0.1549072265625,0.81597900390625
1629795381446,-0.52130126953125,0.15850830078125,0.81109619140625
1629795381446,-0.5224609375,0.15771484375,0.8104248046875
1629795381493,-0.51776123046875,0.1602783203125,0.83001708984375
1629795381493,-0.51861572265625,0.15472412109375,0.81536865234375
1629795381493,-0.51873779296875,0.15899658203125,0.810546875
1629795381493,-0.51513671875,0.1602783203125,0.819091796875
1629795381493,-0.52203369140625,0.159423828125,0.81378173828125
1629795381509,-0.52105712890625,0.162841796875,0.83404541015625
1629795381571,-0.52374267578125,0.16802978515625,0.8349609375
1629795381571,-0.52557373046875,0.16912841796875,0.83062744140625
1629795381571,-0.5245361328125,0.16766357421875,0.83642578125
1629795381602,-0.52716064453125,0.14617919921875,0.817138671875
1629795381602,-0.52947998046875,0.15228271484375,0.82110595703125
1629795381602,-0.5286865234375,0.146484375,0.82012939453125
1629795381618,-0.52886962890625,0.16680908203125,0.8092041015625
1629795381634,-0.52960205078125,0.1639404296875,0.815185546875
1629795381634,-0.5277099609375,0.16082763671875,0.8154296875
1629795381727,-0.5260009765625,0.1708984375,0.8177490234375
1629795381727,-0.52374267578125,0.1712646484375,0.81591796875
1629795381727,-0.528076171875,0.17474365234375,0.8189697265625
1629795381805,-0.52325439453125,0.17138671875,0.82110595703125
1629795381805,-0.525146484375,0.17364501953125,0.81744384765625
1629795381805,-0.522216796875,0.1717529296875,0.82562255859375
1629795381821,-0.5252685546875,0.17291259765625,0.828125
1629795381821,-0.5240478515625,0.17596435546875,0.827392578125
1629795381821,-0.52606201171875,0.1741943359375,0.83197021484375
1629795381852,-0.53277587890625,0.17138671875,0.81634521484375
1629795381852,-0.531005859375,0.16864013671875,0.8172607421875
1629795381852,-0.52960205078125,0.17999267578125,0.81256103515625
1629795381852,-0.5250244140625,0.17657470703125,0.816650390625
1629795381852,-0.52679443359375,0.17767333984375,0.82427978515625
1629795381852,-0.52508544921875,0.17108154296875,0.80908203125
1629795382024,-0.52801513671875,0.165283203125,0.82147216796875
1629795382024,-0.52728271484375,0.1697998046875,0.8192138671875
1629795382024,-0.5277099609375,0.1700439453125,0.8187255859375
1629795382055,-0.521240234375,0.1668701171875,0.82635498046875
1629795382055,-0.52569580078125,0.1622314453125,0.824462890625
1629795382055,-0.5289306640625,0.16412353515625,0.8211669921875
1629795382230,-0.52215576171875,0.1595458984375,0.8245849609375
1629795382230,-0.5211181640625,0.167724609375,0.82562255859375
1629795382230,-0.52142333984375,0.16357421875,0.82513427734375
1629795382401,-0.5218505859375,0.1689453125,0.82373046875
1629795382401,-0.5216064453125,0.167236328125,0.8228759765625
1629795382417,-0.5225830078125,0.16180419921875,0.8243408203125
1629795382589,-0.5216064453125,0.1751708984375,0.818359375
1629795382589,-0.520751953125,0.1719970703125,0.822021484375
1629795382589,-0.524169921875,0.17559814453125,0.81695556640625
1629795382714,-0.5283203125,0.16900634765625,0.815185546875
1629795382714,-0.5245361328125,0.17230224609375,0.82000732421875
1629795382714,-0.5272216796875,0.1666259765625,0.816650390625
1629795382729,-0.52459716796875,0.1700439453125,0.8206787109375
1629795382729,-0.52899169921875,0.1700439453125,0.8201904296875
1629795382729,-0.529541015625,0.17071533203125,0.82061767578125
1629795382729,-0.52606201171875,0.17010498046875,0.82470703125
1629795382729,-0.526123046875,0.17132568359375,0.8175048828125
1629795382729,-0.5218505859375,0.173583984375,0.8221435546875
1629795382964,-0.52447509765625,0.173095703125,0.81890869140625
1629795382964,-0.5223388671875,0.16107177734375,0.8232421875
1629795382979,-0.52392578125,0.1734619140625,0.8199462890625
1629795382979,-0.5230712890625,0.15948486328125,0.82708740234375
1629795382979,-0.52301025390625,0.16339111328125,0.82501220703125
1629795382979,-0.52325439453125,0.17132568359375,0.82086181640625
1629795383042,-0.52386474609375,0.15478515625,0.8282470703125
1629795383042,-0.52349853515625,0.154541015625,0.82586669921875
1629795383042,-0.52203369140625,0.163330078125,0.82525634765625
1629795383167,-0.521484375,0.15411376953125,0.8236083984375
1629795383167,-0.519775390625,0.15350341796875,0.82281494140625
1629795383167,-0.51904296875,0.158935546875,0.82489013671875
1629795383279,-0.5186767578125,0.15789794921875,0.82623291015625
1629795383279,-0.514404296875,0.15740966796875,0.826416015625
1629795383279,-0.5184326171875,0.15533447265625,0.8316650390625
1629795383388,-0.51934814453125,0.1575927734375,0.8306884765625
1629795383388,-0.516357421875,0.15521240234375,0.82781982421875
1629795383388,-0.513916015625,0.15704345703125,0.83258056640625
1629795383701,-0.5113525390625,0.15771484375,0.83612060546875
1629795383701,-0.50823974609375,0.16180419921875,0.840576171875
1629795383701,-0.50927734375,0.1595458984375,0.837890625
1629795383701,-0.50823974609375,0.15985107421875,0.840087890625
1629795383701,-0.5069580078125,0.16131591796875,0.84130859375
1629795383701,-0.51019287109375,0.15509033203125,0.8392333984375
1629795383795,-0.51092529296875,0.15191650390625,0.8330078125
1629795383795,-0.51483154296875,0.15350341796875,0.83514404296875
1629795383795,-0.511474609375,0.1497802734375,0.83685302734375
1629795383810,-0.51617431640625,0.14959716796875,0.8333740234375
1629795383810,-0.51788330078125,0.1500244140625,0.82916259765625
1629795383810,-0.51348876953125,0.1517333984375,0.827880859375
1629795383919,-0.52325439453125,0.14996337890625,0.827880859375
1629795383919,-0.52362060546875,0.14947509765625,0.8228759765625
1629795383919,-0.52569580078125,0.14971923828125,0.82415771484375
1629795383951,-0.53057861328125,0.1552734375,0.82110595703125
1629795383951,-0.52764892578125,0.1552734375,0.8233642578125
1629795383951,-0.5284423828125,0.15008544921875,0.8223876953125
1629795383966,-0.527587890625,0.142578125,0.81512451171875
1629795383966,-0.5267333984375,0.14923095703125,0.816650390625
1629795383982,-0.52813720703125,0.1461181640625,0.81927490234375
1629795384109,-0.5255126953125,0.155517578125,0.827880859375
1629795384125,-0.5250244140625,0.1563720703125,0.82659912109375
1629795384125,-0.5205078125,0.1539306640625,0.827392578125
1629795384266,-0.52276611328125,0.1558837890625,0.82818603515625
1629795384266,-0.52447509765625,0.1524658203125,0.82598876953125
1629795384266,-0.5247802734375,0.1507568359375,0.8275146484375
1629795384312,-0.522705078125,0.15594482421875,0.825927734375
1629795384312,-0.523681640625,0.15545654296875,0.828125
1629795384312,-0.52471923828125,0.15728759765625,0.82470703125
1629795384359,-0.520263671875,0.1541748046875,0.82550048828125
1629795384359,-0.51910400390625,0.15875244140625,0.826171875
1629795384359,-0.52142333984375,0.15252685546875,0.8236083984375
1629795384531,-0.52325439453125,0.15283203125,0.82366943359375
1629795384547,-0.52581787109375,0.151611328125,0.8212890625
1629795384547,-0.52294921875,0.15362548828125,0.82427978515625
1629795384703,-0.52362060546875,0.153564453125,0.82293701171875
1629795384703,-0.52239990234375,0.155517578125,0.83013916015625
1629795384703,-0.51983642578125,0.154296875,0.82501220703125
1629795385015,-0.525146484375,0.164794921875,0.82305908203125
1629795385015,-0.5206298828125,0.1611328125,0.82830810546875
1629795385031,-0.51947021484375,0.15948486328125,0.82342529296875
1629795385172,-0.52325439453125,0.15814208984375,0.82537841796875
1629795385172,-0.521240234375,0.16412353515625,0.82659912109375
1629795385172,-0.52362060546875,0.15789794921875,0.8260498046875
1629795385234,-0.52606201171875,0.1461181640625,0.8175048828125
1629795385234,-0.526611328125,0.15423583984375,0.821533203125
1629795385234,-0.52288818359375,0.1556396484375,0.821533203125
1629795385250,-0.525390625,0.15435791015625,0.82281494140625
1629795385250,-0.52490234375,0.1473388671875,0.8194580078125
1629795385250,-0.5272216796875,0.14990234375,0.8228759765625
1629795385487,-0.52166748046875,0.1448974609375,0.8255615234375
1629795385487,-0.52386474609375,0.14801025390625,0.82464599609375
1629795385487,-0.52386474609375,0.14495849609375,0.82489013671875
1629795385550,-0.52459716796875,0.14697265625,0.82427978515625
1629795385550,-0.521728515625,0.14385986328125,0.8228759765625
1629795385550,-0.52313232421875,0.149658203125,0.82183837890625
1629795385862,-0.5208740234375,0.14447021484375,0.8262939453125
1629795385862,-0.52410888671875,0.1485595703125,0.82318115234375
1629795385862,-0.52099609375,0.14764404296875,0.82550048828125
1629795385956,-0.5224609375,0.1561279296875,0.8232421875
1629795385956,-0.52728271484375,0.15667724609375,0.82232666015625
1629795385956,-0.52490234375,0.15045166015625,0.819091796875
1629795386003,-0.52459716796875,0.1492919921875,0.82049560546875
1629795386003,-0.52630615234375,0.1561279296875,0.8170166015625
1629795386003,-0.5267333984375,0.1585693359375,0.82000732421875
1629795386018,-0.535400390625,0.15399169921875,0.8157958984375
1629795386018,-0.52667236328125,0.15771484375,0.817138671875
1629795386018,-0.533447265625,0.15460205078125,0.81451416015625
1629795386034,-0.5335693359375,0.15972900390625,0.81585693359375
1629795386034,-0.5333251953125,0.15386962890625,0.817626953125
1629795386034,-0.53497314453125,0.14849853515625,0.81622314453125
1629795386174,-0.5384521484375,0.1483154296875,0.8128662109375
1629795386174,-0.5419921875,0.15069580078125,0.8143310546875
1629795386174,-0.53961181640625,0.1531982421875,0.81475830078125
1629795386174,-0.54168701171875,0.15167236328125,0.81463623046875
1629795386174,-0.53900146484375,0.15106201171875,0.8057861328125
1629795386174,-0.5374755859375,0.1484375,0.8087158203125
1629795386190,-0.53948974609375,0.15478515625,0.822021484375
1629795386190,-0.5367431640625,0.1435546875,0.81988525390625
1629795386190,-0.54052734375,0.15203857421875,0.82049560546875
1629795386253,-0.543701171875,0.1488037109375,0.81365966796875
1629795386253,-0.54351806640625,0.14971923828125,0.80859375
1629795386253,-0.546875,0.1422119140625,0.81011962890625
1629795386253,-0.538330078125,0.1534423828125,0.81536865234375
1629795386253,-0.537841796875,0.15301513671875,0.81884765625
1629795386253,-0.54083251953125,0.1536865234375,0.81976318359375
1629795386315,-0.54388427734375,0.14410400390625,0.80792236328125
1629795386315,-0.5479736328125,0.1490478515625,0.807373046875
1629795386315,-0.54425048828125,0.14422607421875,0.80328369140625
1629795386393,-0.54754638671875,0.1456298828125,0.8057861328125
1629795386393,-0.5479736328125,0.1495361328125,0.8070068359375
1629795386393,-0.54571533203125,0.1451416015625,0.805419921875
1629795386440,-0.548828125,0.15277099609375,0.8077392578125
1629795386440,-0.55120849609375,0.1502685546875,0.80865478515625
1629795386440,-0.54656982421875,0.1488037109375,0.80657958984375
1629795386471,-0.548828125,0.1531982421875,0.80889892578125
1629795386471,-0.55224609375,0.1531982421875,0.80914306640625
1629795386471,-0.55194091796875,0.1500244140625,0.8072509765625
1629795386690,-0.55169677734375,0.15106201171875,0.806640625
1629795386690,-0.55059814453125,0.15057373046875,0.80462646484375
1629795386690,-0.5513916015625,0.15472412109375,0.80633544921875
1629795386784,-0.5513916015625,0.15142822265625,0.80889892578125
1629795386784,-0.55462646484375,0.15216064453125,0.806884765625
1629795386784,-0.553955078125,0.15130615234375,0.812744140625
1629795386940,-0.552001953125,0.15399169921875,0.80322265625
1629795386940,-0.55230712890625,0.1513671875,0.80322265625
1629795386940,-0.55645751953125,0.15478515625,0.80523681640625
1629795387034,-0.5511474609375,0.16009521484375,0.80078125
1629795387034,-0.55303955078125,0.15399169921875,0.8017578125
1629795387034,-0.5521240234375,0.1578369140625,0.79901123046875
1629795387223,-0.5546875,0.15533447265625,0.80059814453125
1629795387223,-0.55364990234375,0.15545654296875,0.802734375
1629795387223,-0.552490234375,0.1536865234375,0.79638671875
1629795387239,-0.5560302734375,0.14959716796875,0.80181884765625
1629795387239,-0.555419921875,0.14801025390625,0.79901123046875
1629795387239,-0.55914306640625,0.15106201171875,0.80206298828125
1629795387348,-0.5550537109375,0.15380859375,0.802001953125
1629795387348,-0.5545654296875,0.1566162109375,0.80859375
1629795387348,-0.55712890625,0.1571044921875,0.8062744140625
1629795387395,-0.55889892578125,0.15478515625,0.8060302734375
1629795387395,-0.5565185546875,0.1563720703125,0.806640625
1629795387395,-0.560302734375,0.15576171875,0.80584716796875
1629795387411,-0.563720703125,0.15081787109375,0.79901123046875
1629795387411,-0.56488037109375,0.1558837890625,0.798828125
1629795387426,-0.5635986328125,0.15777587890625,0.7955322265625
1629795387458,-0.56964111328125,0.152587890625,0.78955078125
1629795387458,-0.56988525390625,0.1507568359375,0.78814697265625
1629795387458,-0.568115234375,0.15216064453125,0.79156494140625
1629795387458,-0.57183837890625,0.14910888671875,0.78955078125
1629795387458,-0.5643310546875,0.14923095703125,0.793701171875
1629795387458,-0.56329345703125,0.15753173828125,0.7923583984375
1629795387551,-0.5762939453125,0.1512451171875,0.78961181640625
1629795387551,-0.5780029296875,0.1474609375,0.78924560546875
1629795387551,-0.57196044921875,0.15032958984375,0.788818359375
1629795387567,-0.57861328125,0.1474609375,0.78497314453125
1629795387567,-0.58172607421875,0.15045166015625,0.78509521484375
1629795387567,-0.577880859375,0.15057373046875,0.7840576171875
1629795387614,-0.58551025390625,0.14312744140625,0.77935791015625
1629795387614,-0.5853271484375,0.144775390625,0.77960205078125
1629795387629,-0.584716796875,0.14678955078125,0.778564453125
1629795387739,-0.5843505859375,0.142333984375,0.77728271484375
1629795387739,-0.58502197265625,0.13946533203125,0.77740478515625
1629795387739,-0.58221435546875,0.14239501953125,0.7752685546875
1629795387754,-0.58709716796875,0.13970947265625,0.78314208984375
1629795387754,-0.58465576171875,0.139892578125,0.78082275390625
1629795387754,-0.5831298828125,0.1376953125,0.779052734375
1629795387770,-0.58294677734375,0.14453125,0.7813720703125
1629795387770,-0.5845947265625,0.14398193359375,0.78271484375
1629795387786,-0.5845947265625,0.1396484375,0.78326416015625
1629795388036,-0.58245849609375,0.1370849609375,0.78302001953125
1629795388036,-0.57891845703125,0.13848876953125,0.7811279296875
1629795388036,-0.58441162109375,0.14825439453125,0.78533935546875
1629795388210,-0.5787353515625,0.13922119140625,0.783447265625
1629795388225,-0.57757568359375,0.14605712890625,0.78326416015625
1629795388225,-0.5770263671875,0.1412353515625,0.78741455078125
1629795388225,-0.5765380859375,0.14007568359375,0.783935546875
1629795388225,-0.57733154296875,0.145751953125,0.7882080078125
1629795388225,-0.57989501953125,0.14111328125,0.7841796875
1629795388288,-0.575927734375,0.14215087890625,0.78753662109375
1629795388288,-0.5733642578125,0.139892578125,0.78955078125
1629795388288,-0.5728759765625,0.14093017578125,0.7884521484375
1629795388319,-0.5697021484375,0.14202880859375,0.79217529296875
1629795388319,-0.5684814453125,0.13909912109375,0.7901611328125
1629795388319,-0.56939697265625,0.1436767578125,0.79339599609375
1629795388366,-0.5706787109375,0.14801025390625,0.79736328125
1629795388366,-0.56988525390625,0.14697265625,0.79718017578125
1629795388366,-0.56951904296875,0.14422607421875,0.79571533203125
1629795388475,-0.5645751953125,0.147705078125,0.79498291015625
1629795388475,-0.56494140625,0.14190673828125,0.7928466796875
1629795388491,-0.55816650390625,0.14404296875,0.79937744140625
1629795388491,-0.56390380859375,0.14410400390625,0.79669189453125
1629795388491,-0.5635986328125,0.1500244140625,0.79669189453125
1629795388491,-0.560546875,0.14068603515625,0.7989501953125
1629795388491,-0.5625,0.14215087890625,0.7978515625
1629795388491,-0.56549072265625,0.14697265625,0.79595947265625
1629795388491,-0.5595703125,0.1412353515625,0.79827880859375
1629795388710,-0.54425048828125,0.14337158203125,0.81640625
1629795388710,-0.54559326171875,0.1474609375,0.80718994140625
1629795388710,-0.5469970703125,0.1346435546875,0.80963134765625
1629795388819,-0.5419921875,0.152587890625,0.81500244140625
1629795388819,-0.54168701171875,0.148193359375,0.8211669921875
1629795388819,-0.53570556640625,0.1468505859375,0.82196044921875
1629795388850,-0.5362548828125,0.14361572265625,0.8240966796875
1629795388850,-0.5372314453125,0.14251708984375,0.82232666015625
1629795388850,-0.53741455078125,0.14227294921875,0.82177734375
1629795388944,-0.528076171875,0.14056396484375,0.8212890625
1629795388944,-0.5289306640625,0.14031982421875,0.82476806640625
1629795388944,-0.52703857421875,0.13873291015625,0.82611083984375
1629795388959,-0.5291748046875,0.13873291015625,0.826904296875
1629795388959,-0.52606201171875,0.14398193359375,0.8289794921875
1629795388959,-0.526611328125,0.138671875,0.82818603515625
1629795389053,-0.52239990234375,0.14398193359375,0.8282470703125
1629795389053,-0.5274658203125,0.14019775390625,0.8309326171875
1629795389053,-0.52691650390625,0.13885498046875,0.82989501953125
1629795389194,-0.52325439453125,0.1407470703125,0.8277587890625
1629795389194,-0.52392578125,0.138427734375,0.82733154296875
1629795389209,-0.52313232421875,0.1414794921875,0.832763671875
1629795389209,-0.52239990234375,0.1392822265625,0.826904296875
1629795389209,-0.52154541015625,0.1357421875,0.82891845703125
1629795389209,-0.52001953125,0.1370849609375,0.82891845703125
1629795389241,-0.52313232421875,0.13812255859375,0.83135986328125
1629795389241,-0.5257568359375,0.13616943359375,0.83111572265625
1629795389241,-0.52142333984375,0.1346435546875,0.83160400390625
1629795389319,-0.5218505859375,0.1387939453125,0.828857421875
1629795389334,-0.52337646484375,0.138427734375,0.83062744140625
1629795389334,-0.52227783203125,0.13348388671875,0.834228515625
1629795389444,-0.52740478515625,0.13946533203125,0.822509765625
1629795389444,-0.52581787109375,0.1336669921875,0.82659912109375
1629795389444,-0.5245361328125,0.13824462890625,0.823974609375
1629795389553,-0.5257568359375,0.1456298828125,0.82000732421875
1629795389553,-0.5252685546875,0.1463623046875,0.82086181640625
1629795389553,-0.52838134765625,0.1412353515625,0.81842041015625
1629795389756,-0.5225830078125,0.14508056640625,0.8265380859375
1629795389756,-0.52801513671875,0.14276123046875,0.82427978515625
1629795389756,-0.52423095703125,0.1474609375,0.8236083984375
1629795389912,-0.5247802734375,0.13543701171875,0.8275146484375
1629795389912,-0.52392578125,0.1328125,0.82745361328125
1629795389912,-0.52801513671875,0.1341552734375,0.8245849609375
1629795389912,-0.52667236328125,0.13897705078125,0.826416015625
1629795389912,-0.52740478515625,0.134033203125,0.8265380859375
1629795389912,-0.52593994140625,0.1435546875,0.828857421875
1629795389928,-0.52740478515625,0.139892578125,0.8248291015625
1629795389928,-0.52825927734375,0.1383056640625,0.822265625
1629795389928,-0.52520751953125,0.13958740234375,0.82318115234375
1629795390053,-0.52532958984375,0.14599609375,0.8211669921875
1629795390053,-0.531494140625,0.13385009765625,0.82281494140625
1629795390053,-0.52838134765625,0.1383056640625,0.82135009765625
1629795390115,-0.5291748046875,0.1416015625,0.823486328125
1629795390131,-0.528564453125,0.136962890625,0.8197021484375
1629795390131,-0.527099609375,0.13916015625,0.81988525390625
1629795390178,-0.5294189453125,0.1397705078125,0.82452392578125
1629795390178,-0.527587890625,0.14532470703125,0.8294677734375
1629795390178,-0.5283203125,0.140869140625,0.82861328125
1629795390259,-0.5242919921875,0.13470458984375,0.8292236328125
1629795390259,-0.527099609375,0.1429443359375,0.83087158203125
1629795390259,-0.5225830078125,0.13983154296875,0.82843017578125
1629795390321,-0.5220947265625,0.12823486328125,0.82861328125
1629795390321,-0.5211181640625,0.12518310546875,0.82806396484375
1629795390321,-0.5196533203125,0.12908935546875,0.8291015625
1629795390493,-0.52923583984375,0.1363525390625,0.8218994140625
1629795390493,-0.5289306640625,0.131103515625,0.82421875
1629795390509,-0.52911376953125,0.13299560546875,0.8194580078125
1629795390524,-0.53363037109375,0.1297607421875,0.823486328125
1629795390524,-0.5299072265625,0.129638671875,0.8193359375
1629795390524,-0.5350341796875,0.13287353515625,0.82440185546875
1629795390524,-0.52984619140625,0.12823486328125,0.8212890625
1629795390524,-0.52734375,0.128662109375,0.8221435546875
1629795390524,-0.531005859375,0.13140869140625,0.819580078125
1629795390555,-0.5321044921875,0.12371826171875,0.82501220703125
1629795390555,-0.52923583984375,0.11676025390625,0.82098388671875
1629795390571,-0.5306396484375,0.1275634765625,0.82275390625
1629795390759,-0.52996826171875,0.12078857421875,0.81884765625
1629795390759,-0.52752685546875,0.13153076171875,0.818359375
1629795390759,-0.52606201171875,0.12603759765625,0.81591796875
1629795390774,-0.5244140625,0.1278076171875,0.826904296875
1629795390774,-0.52618408203125,0.126953125,0.835205078125
1629795390774,-0.5220947265625,0.13232421875,0.83758544921875
1629795390883,-0.51922607421875,0.130615234375,0.835693359375
1629795390883,-0.52020263671875,0.13031005859375,0.8389892578125
1629795390899,-0.5184326171875,0.124755859375,0.83123779296875
1629795390993,-0.521728515625,0.114990234375,0.827392578125
1629795390993,-0.5185546875,0.11322021484375,0.8306884765625
1629795390993,-0.51904296875,0.11444091796875,0.822509765625
1629795391102,-0.517578125,0.11334228515625,0.82867431640625
1629795391118,-0.517578125,0.11279296875,0.82916259765625
1629795391118,-0.51739501953125,0.1138916015625,0.83294677734375
1629795391196,-0.51971435546875,0.114990234375,0.841552734375
1629795391196,-0.5185546875,0.11541748046875,0.8394775390625
1629795391196,-0.51629638671875,0.11553955078125,0.83953857421875
1629795391258,-0.519775390625,0.11260986328125,0.83966064453125
1629795391258,-0.5191650390625,0.11285400390625,0.83941650390625
1629795391270,-0.5208740234375,0.11761474609375,0.8375244140625
1629795391308,-0.51806640625,0.12841796875,0.8271484375
1629795391308,-0.51812744140625,0.12298583984375,0.8287353515625
1629795391323,-0.51702880859375,0.12762451171875,0.829833984375
1629795391370,-0.518798828125,0.11859130859375,0.83001708984375
1629795391386,-0.51824951171875,0.12109375,0.82928466796875
1629795391386,-0.51751708984375,0.1265869140625,0.83709716796875
1629795391386,-0.51702880859375,0.12628173828125,0.83770751953125
1629795391386,-0.51629638671875,0.12078857421875,0.8310546875
1629795391386,-0.51287841796875,0.129638671875,0.837890625
1629795391479,-0.5113525390625,0.1302490234375,0.84002685546875
1629795391479,-0.5086669921875,0.1287841796875,0.84185791015625
1629795391479,-0.51318359375,0.12799072265625,0.8389892578125
1629795391526,-0.50115966796875,0.12353515625,0.8414306640625
1629795391542,-0.5008544921875,0.12420654296875,0.83941650390625
1629795391542,-0.50274658203125,0.123291015625,0.8446044921875
1629795391745,-0.50445556640625,0.12591552734375,0.84259033203125
1629795391745,-0.50457763671875,0.1239013671875,0.8419189453125
1629795391745,-0.50250244140625,0.12640380859375,0.8427734375
1629795391807,-0.5086669921875,0.128173828125,0.84332275390625
1629795391807,-0.5035400390625,0.125,0.84033203125
1629795391807,-0.5057373046875,0.1307373046875,0.84521484375
1629795391823,-0.50750732421875,0.1302490234375,0.84320068359375
1629795391823,-0.505859375,0.12164306640625,0.843017578125
1629795391823,-0.50579833984375,0.12188720703125,0.84716796875
1629795391870,-0.5128173828125,0.12774658203125,0.8438720703125
1629795391870,-0.50958251953125,0.1263427734375,0.8455810546875
1629795391870,-0.505859375,0.12432861328125,0.84429931640625
1629795391886,-0.5120849609375,0.13079833984375,0.84429931640625
1629795391886,-0.510498046875,0.1292724609375,0.84710693359375
1629795391886,-0.5096435546875,0.12811279296875,0.8441162109375
1629795392010,-0.5123291015625,0.12646484375,0.83343505859375
1629795392010,-0.51129150390625,0.1295166015625,0.83953857421875
1629795392010,-0.50933837890625,0.13079833984375,0.84051513671875
1629795392120,-0.51153564453125,0.1209716796875,0.8272705078125
1629795392120,-0.51031494140625,0.1239013671875,0.8218994140625
1629795392120,-0.50537109375,0.12567138671875,0.8231201171875
1629795392135,-0.51043701171875,0.13555908203125,0.8387451171875
1629795392135,-0.51031494140625,0.12969970703125,0.828125
1629795392135,-0.51141357421875,0.1331787109375,0.8314208984375
1629795392151,-0.51104736328125,0.138427734375,0.84039306640625
1629795392151,-0.5115966796875,0.13751220703125,0.8377685546875
1629795392307,-0.506591796875,0.13165283203125,0.8438720703125
1629795392307,-0.51336669921875,0.13409423828125,0.843505859375
1629795392307,-0.509765625,0.138427734375,0.840087890625
1629795392372,-0.51068115234375,0.129638671875,0.8426513671875
1629795392372,-0.515625,0.1337890625,0.83770751953125
1629795392372,-0.5130615234375,0.13714599609375,0.841552734375
1629795392419,-0.51251220703125,0.127197265625,0.8359375
1629795392419,-0.51361083984375,0.130126953125,0.83477783203125
1629795392466,-0.51513671875,0.1268310546875,0.835205078125
1629795392466,-0.5133056640625,0.1336669921875,0.83349609375
1629795392466,-0.5130615234375,0.1328125,0.8326416015625
1629795392497,-0.51983642578125,0.134521484375,0.8284912109375
1629795392497,-0.51470947265625,0.13421630859375,0.831787109375
1629795392497,-0.51617431640625,0.12957763671875,0.83087158203125
1629795392575,-0.51263427734375,0.1331787109375,0.8319091796875
1629795392591,-0.51202392578125,0.13470458984375,0.83154296875
1629795392591,-0.516357421875,0.13287353515625,0.83477783203125
1629795392591,-0.51934814453125,0.13092041015625,0.83746337890625
1629795392591,-0.51226806640625,0.131591796875,0.830078125
1629795392591,-0.51458740234375,0.13006591796875,0.83258056640625
1629795392934,-0.524169921875,0.1448974609375,0.82427978515625
1629795392950,-0.52435302734375,0.13873291015625,0.827880859375
1629795392950,-0.52490234375,0.14019775390625,0.8260498046875
1629795392965,-0.52569580078125,0.1448974609375,0.8260498046875
1629795392965,-0.52313232421875,0.14239501953125,0.82415771484375
1629795392981,-0.52264404296875,0.14404296875,0.82421875
1629795392997,-0.52020263671875,0.1484375,0.822021484375
1629795392997,-0.52215576171875,0.14337158203125,0.82293701171875
1629795393012,-0.52191162109375,0.14031982421875,0.81817626953125
1629795393093,-0.5208740234375,0.1455078125,0.8250732421875
1629795393093,-0.5194091796875,0.14776611328125,0.82415771484375
1629795393093,-0.5220947265625,0.14990234375,0.822265625
1629795393108,-0.5220947265625,0.1470947265625,0.82666015625
1629795393108,-0.52227783203125,0.14813232421875,0.826171875
1629795393108,-0.52508544921875,0.15045166015625,0.82794189453125
1629795393140,-0.5250244140625,0.14801025390625,0.82232666015625
1629795393140,-0.521728515625,0.14715576171875,0.825927734375
1629795393140,-0.52313232421875,0.14764404296875,0.8232421875
1629795393140,-0.52423095703125,0.14984130859375,0.826904296875
1629795393140,-0.52587890625,0.1522216796875,0.8218994140625
1629795393140,-0.52490234375,0.1483154296875,0.8255615234375
1629795393140,-0.52398681640625,0.1468505859375,0.8231201171875
1629795393140,-0.52630615234375,0.15240478515625,0.8204345703125
1629795393140,-0.5245361328125,0.148193359375,0.82611083984375
1629795393249,-0.52215576171875,0.14959716796875,0.82391357421875
1629795393249,-0.522705078125,0.14990234375,0.82476806640625
1629795393265,-0.5185546875,0.14971923828125,0.826904296875
1629795393343,-0.520751953125,0.1566162109375,0.8330078125
1629795393343,-0.520263671875,0.15252685546875,0.8328857421875
1629795393343,-0.51898193359375,0.1571044921875,0.82666015625
1629795393546,-0.52093505859375,0.155029296875,0.83062744140625
1629795393546,-0.52313232421875,0.15484619140625,0.82977294921875
1629795393546,-0.5218505859375,0.1556396484375,0.8262939453125
1629795393624,-0.52203369140625,0.1519775390625,0.81976318359375
1629795393624,-0.52001953125,0.15185546875,0.8209228515625
1629795393639,-0.52178955078125,0.15509033203125,0.82171630859375
1629795393671,-0.52496337890625,0.1507568359375,0.8270263671875
1629795393671,-0.52337646484375,0.15399169921875,0.8291015625
1629795393671,-0.52593994140625,0.14892578125,0.824951171875
1629795393764,-0.52520751953125,0.15185546875,0.8251953125
1629795393764,-0.527587890625,0.15069580078125,0.82501220703125
1629795393780,-0.52667236328125,0.14892578125,0.8248291015625
1629795393780,-0.52301025390625,0.14752197265625,0.82025146484375
1629795393780,-0.52783203125,0.15045166015625,0.82794189453125
1629795393780,-0.52728271484375,0.15045166015625,0.8243408203125
1629795393811,-0.52642822265625,0.14251708984375,0.8228759765625
1629795393811,-0.52813720703125,0.14208984375,0.8212890625
1629795393811,-0.527099609375,0.143310546875,0.82379150390625
1629795393827,-0.5274658203125,0.14459228515625,0.81927490234375
1629795393827,-0.52630615234375,0.14337158203125,0.82086181640625
1629795393827,-0.52850341796875,0.14447021484375,0.82012939453125
1629795393905,-0.5311279296875,0.13702392578125,0.8226318359375
1629795393905,-0.53265380859375,0.1365966796875,0.8267822265625
1629795393905,-0.52972412109375,0.1363525390625,0.82244873046875
1629795393936,-0.5269775390625,0.1419677734375,0.82366943359375
1629795393952,-0.5257568359375,0.1357421875,0.820068359375
1629795393952,-0.531005859375,0.13995361328125,0.821044921875
1629795394173,-0.52947998046875,0.13836669921875,0.8199462890625
1629795394173,-0.53204345703125,0.13592529296875,0.8236083984375
1629795394173,-0.53656005859375,0.13775634765625,0.82794189453125
1629795394188,-0.5301513671875,0.14031982421875,0.8253173828125
1629795394188,-0.53033447265625,0.13818359375,0.82391357421875
1629795394204,-0.529052734375,0.1400146484375,0.8199462890625
1629795394204,-0.527587890625,0.14105224609375,0.8209228515625
1629795394204,-0.5289306640625,0.1424560546875,0.820068359375
1629795394204,-0.52972412109375,0.13671875,0.82440185546875
1629795394220,-0.52960205078125,0.13897705078125,0.822509765625
1629795394220,-0.52886962890625,0.13946533203125,0.8194580078125
1629795394235,-0.5302734375,0.14013671875,0.8251953125
1629795394329,-0.5311279296875,0.143798828125,0.82879638671875
1629795394329,-0.5313720703125,0.1435546875,0.830322265625
1629795394329,-0.52947998046875,0.14288330078125,0.8233642578125
1629795394485,-0.5284423828125,0.14544677734375,0.82647705078125
1629795394485,-0.5301513671875,0.14453125,0.82373046875
1629795394485,-0.5260009765625,0.14459228515625,0.82379150390625
1629795394532,-0.5281982421875,0.14752197265625,0.81939697265625
1629795394548,-0.53271484375,0.14691162109375,0.82086181640625
1629795394548,-0.528564453125,0.14208984375,0.82159423828125
1629795394782,-0.5267333984375,0.1485595703125,0.820068359375
1629795394782,-0.52685546875,0.14642333984375,0.81854248046875
1629795394782,-0.52740478515625,0.143310546875,0.8182373046875
1629795394813,-0.5264892578125,0.14532470703125,0.820556640625
1629795394813,-0.52886962890625,0.14404296875,0.822021484375
1629795394813,-0.52862548828125,0.1446533203125,0.82183837890625
1629795394891,-0.53070068359375,0.14031982421875,0.8240966796875
1629795394891,-0.5286865234375,0.13958740234375,0.82061767578125
1629795394891,-0.52850341796875,0.14520263671875,0.8228759765625
1629795394923,-0.5281982421875,0.143310546875,0.82415771484375
1629795394938,-0.52911376953125,0.14508056640625,0.82574462890625
1629795394938,-0.529052734375,0.14422607421875,0.8214111328125
1629795394954,-0.529296875,0.1461181640625,0.82464599609375
1629795394954,-0.52947998046875,0.14447021484375,0.82470703125
1629795394954,-0.5302734375,0.1409912109375,0.82525634765625
1629795395016,-0.532470703125,0.1412353515625,0.82342529296875
1629795395016,-0.5257568359375,0.13873291015625,0.82391357421875
1629795395016,-0.52850341796875,0.1435546875,0.82623291015625
1629795395032,-0.5325927734375,0.13653564453125,0.82061767578125
1629795395048,-0.52947998046875,0.1373291015625,0.82196044921875
1629795395048,-0.53277587890625,0.1405029296875,0.821044921875
1629795395048,-0.5316162109375,0.13934326171875,0.82135009765625
1629795395048,-0.5296630859375,0.1387939453125,0.8173828125
1629795395048,-0.5316162109375,0.13958740234375,0.82000732421875
1629795395191,-0.52801513671875,0.134521484375,0.820556640625
1629795395191,-0.52813720703125,0.1380615234375,0.8265380859375
1629795395191,-0.5318603515625,0.13592529296875,0.82196044921875
1629795395191,-0.53204345703125,0.13671875,0.82452392578125
1629795395191,-0.52935791015625,0.140869140625,0.823486328125
1629795395191,-0.52850341796875,0.13787841796875,0.82354736328125
1629795395253,-0.52813720703125,0.13311767578125,0.827392578125
1629795395269,-0.53057861328125,0.13519287109375,0.82373046875
1629795395269,-0.53216552734375,0.1376953125,0.82574462890625
1629795395331,-0.530517578125,0.1287841796875,0.82080078125
1629795395331,-0.52935791015625,0.1292724609375,0.82470703125
1629795395331,-0.52685546875,0.130859375,0.82415771484375
1629795395347,-0.52606201171875,0.13323974609375,0.82232666015625
1629795395347,-0.52630615234375,0.1357421875,0.825439453125
1629795395347,-0.52947998046875,0.13262939453125,0.82598876953125
1629795395425,-0.52655029296875,0.136962890625,0.8302001953125
1629795395441,-0.529052734375,0.13543701171875,0.8280029296875
1629795395441,-0.52532958984375,0.1370849609375,0.82867431640625
1629795395456,-0.52581787109375,0.1368408203125,0.82806396484375
1629795395456,-0.52593994140625,0.14166259765625,0.82635498046875
1629795395456,-0.5255126953125,0.13446044921875,0.829833984375
1629795395706,-0.525146484375,0.14013671875,0.8267822265625
1629795395706,-0.52886962890625,0.1409912109375,0.82794189453125
1629795395706,-0.526611328125,0.13739013671875,0.825927734375
1629795396050,-0.5286865234375,0.13726806640625,0.82647705078125
1629795396050,-0.5311279296875,0.13299560546875,0.82391357421875
1629795396050,-0.530029296875,0.13885498046875,0.8223876953125
1629795396097,-0.530517578125,0.1326904296875,0.8197021484375
1629795396097,-0.5350341796875,0.13677978515625,0.82171630859375
1629795396097,-0.53790283203125,0.1375732421875,0.8212890625
1629795396097,-0.53094482421875,0.13275146484375,0.82220458984375
1629795396097,-0.53460693359375,0.13787841796875,0.82196044921875
1629795396097,-0.5328369140625,0.14007568359375,0.81610107421875
1629795396144,-0.53692626953125,0.13836669921875,0.81512451171875
1629795396144,-0.53472900390625,0.14013671875,0.8134765625
1629795396144,-0.53826904296875,0.1412353515625,0.8187255859375
1629795396224,-0.53619384765625,0.14208984375,0.814453125
1629795396224,-0.537841796875,0.1434326171875,0.81494140625
1629795396224,-0.5372314453125,0.14349365234375,0.814453125
1629795396240,-0.53619384765625,0.14190673828125,0.81787109375
1629795396240,-0.5382080078125,0.13525390625,0.81951904296875
1629795396256,-0.5379638671875,0.13568115234375,0.816650390625
1629795396256,-0.53570556640625,0.1300048828125,0.81805419921875
1629795396256,-0.537353515625,0.13507080078125,0.817626953125
1629795396256,-0.53460693359375,0.134521484375,0.81817626953125
1629795396396,-0.53131103515625,0.1365966796875,0.8189697265625
1629795396396,-0.53131103515625,0.13397216796875,0.82049560546875
1629795396396,-0.531982421875,0.134033203125,0.81951904296875
1629795396412,-0.53271484375,0.1358642578125,0.82330322265625
1629795396412,-0.53564453125,0.14056396484375,0.8248291015625
1629795396412,-0.5333251953125,0.13970947265625,0.82501220703125
1629795396443,-0.53460693359375,0.1412353515625,0.8209228515625
1629795396443,-0.5364990234375,0.14044189453125,0.81903076171875
1629795396443,-0.53558349609375,0.1405029296875,0.82305908203125
1629795396599,-0.53289794921875,0.13494873046875,0.81573486328125
1629795396599,-0.53387451171875,0.1383056640625,0.818115234375
1629795396599,-0.5330810546875,0.13946533203125,0.8157958984375
1629795396630,-0.5340576171875,0.13751220703125,0.81793212890625
1629795396630,-0.53277587890625,0.13616943359375,0.819091796875
1629795396630,-0.53570556640625,0.13458251953125,0.81561279296875
1629795396630,-0.53656005859375,0.135498046875,0.8199462890625
1629795396646,-0.53668212890625,0.13519287109375,0.821044921875
1629795396646,-0.53497314453125,0.13873291015625,0.8223876953125
1629795396662,-0.53350830078125,0.13525390625,0.81988525390625
1629795396662,-0.53216552734375,0.13555908203125,0.81982421875
1629795396662,-0.5345458984375,0.1358642578125,0.816650390625
1629795396787,-0.5343017578125,0.1380615234375,0.82159423828125
1629795396787,-0.53509521484375,0.13934326171875,0.8187255859375
1629795396787,-0.53204345703125,0.1427001953125,0.8226318359375
1629795396834,-0.53240966796875,0.14080810546875,0.82269287109375
1629795396834,-0.53399658203125,0.14208984375,0.822021484375
1629795396834,-0.5328369140625,0.1383056640625,0.82171630859375
1629795396990,-0.5325927734375,0.14007568359375,0.814208984375
1629795396990,-0.53399658203125,0.1419677734375,0.81890869140625
1629795396990,-0.53387451171875,0.13970947265625,0.82159423828125
1629795397130,-0.5294189453125,0.136962890625,0.818603515625
1629795397130,-0.52935791015625,0.1368408203125,0.81988525390625
1629795397130,-0.5284423828125,0.1365966796875,0.8248291015625
1629795397130,-0.53143310546875,0.13348388671875,0.827392578125
1629795397130,-0.53155517578125,0.13397216796875,0.82489013671875
1629795397130,-0.52850341796875,0.1392822265625,0.824462890625
1629795397146,-0.52996826171875,0.135009765625,0.82464599609375
1629795397146,-0.52679443359375,0.135986328125,0.82373046875
1629795397146,-0.53057861328125,0.1314697265625,0.8262939453125
1629795397273,-0.5291748046875,0.12957763671875,0.8280029296875
1629795397273,-0.5311279296875,0.1326904296875,0.82318115234375
1629795397273,-0.5306396484375,0.1375732421875,0.8284912109375
1629795397289,-0.52508544921875,0.14385986328125,0.82745361328125
1629795397289,-0.53082275390625,0.14111328125,0.82659912109375
1629795397289,-0.5279541015625,0.14251708984375,0.8243408203125
1629795397398,-0.52490234375,0.14276123046875,0.827392578125
1629795397398,-0.52630615234375,0.14306640625,0.8245849609375
1629795397398,-0.52764892578125,0.14453125,0.827880859375
1629795397398,-0.52557373046875,0.14459228515625,0.82550048828125
1629795397414,-0.5283203125,0.14300537109375,0.82373046875
1629795397414,-0.52386474609375,0.1446533203125,0.8236083984375
1629795397476,-0.53155517578125,0.141357421875,0.8209228515625
1629795397476,-0.52545166015625,0.140380859375,0.82275390625
1629795397476,-0.52789306640625,0.14056396484375,0.82000732421875
1629795397586,-0.52349853515625,0.13922119140625,0.82611083984375
1629795397586,-0.52972412109375,0.1365966796875,0.82928466796875
1629795397586,-0.52557373046875,0.14361572265625,0.82501220703125
1629795397648,-0.5263671875,0.13800048828125,0.83160400390625
1629795397648,-0.52813720703125,0.1396484375,0.8297119140625
1629795397648,-0.52423095703125,0.140625,0.829833984375
1629795397664,-0.52783203125,0.13720703125,0.8280029296875
1629795397664,-0.52484130859375,0.13958740234375,0.83001708984375
1629795397664,-0.52740478515625,0.13751220703125,0.831787109375
1629795397726,-0.5250244140625,0.14404296875,0.82073974609375
1629795397742,-0.52703857421875,0.14288330078125,0.8187255859375
1629795397742,-0.52362060546875,0.14581298828125,0.8223876953125
1629795397773,-0.52655029296875,0.14031982421875,0.822265625
1629795397773,-0.52593994140625,0.13677978515625,0.82421875
1629795397820,-0.52520751953125,0.13818359375,0.82318115234375
1629795397820,-0.5257568359375,0.13616943359375,0.82342529296875
1629795397820,-0.5235595703125,0.14501953125,0.82989501953125
1629795397820,-0.52294921875,0.1337890625,0.82586669921875
1629795397820,-0.52679443359375,0.134765625,0.82501220703125
1629795397820,-0.52642822265625,0.1414794921875,0.83074951171875
1629795397992,-0.52447509765625,0.14117431640625,0.8231201171875
1629795397992,-0.52947998046875,0.13946533203125,0.829345703125
1629795397992,-0.5264892578125,0.1409912109375,0.825927734375
1629795398023,-0.52508544921875,0.1396484375,0.8212890625
1629795398023,-0.52862548828125,0.1317138671875,0.82501220703125
1629795398023,-0.5277099609375,0.13287353515625,0.82122802734375
1629795398135,-0.528564453125,0.1383056640625,0.82049560546875
1629795398135,-0.52667236328125,0.13970947265625,0.8226318359375
1629795398135,-0.52874755859375,0.13909912109375,0.8206787109375
1629795398447,-0.5277099609375,0.14208984375,0.82647705078125
1629795398447,-0.52874755859375,0.137939453125,0.82794189453125
1629795398447,-0.5245361328125,0.13946533203125,0.82305908203125
1629795398635,-0.5225830078125,0.14337158203125,0.82904052734375
1629795398635,-0.52606201171875,0.140625,0.827880859375
1629795398635,-0.52691650390625,0.14208984375,0.82452392578125
1629795398744,-0.525390625,0.14019775390625,0.82501220703125
1629795398744,-0.52703857421875,0.13848876953125,0.8255615234375
1629795398744,-0.529052734375,0.1405029296875,0.8251953125
1629795398775,-0.52716064453125,0.14141845703125,0.8248291015625
1629795398791,-0.52801513671875,0.13934326171875,0.822509765625
1629795398791,-0.531982421875,0.141845703125,0.8253173828125
1629795398791,-0.53302001953125,0.1392822265625,0.81817626953125
1629795398791,-0.5281982421875,0.14312744140625,0.82733154296875
1629795398791,-0.5267333984375,0.1427001953125,0.8251953125
1629795398885,-0.53143310546875,0.13897705078125,0.82000732421875
1629795398885,-0.53424072265625,0.1358642578125,0.8160400390625
1629795398885,-0.52996826171875,0.1365966796875,0.8177490234375
1629795398900,-0.53125,0.1409912109375,0.821044921875
1629795398900,-0.5328369140625,0.1370849609375,0.820068359375
1629795398900,-0.53173828125,0.14349365234375,0.81982421875
1629795399153,-0.52972412109375,0.14520263671875,0.82452392578125
1629795399153,-0.52801513671875,0.1419677734375,0.826904296875
1629795399153,-0.52996826171875,0.1453857421875,0.823486328125
1629795399168,-0.53094482421875,0.1375732421875,0.822509765625
1629795399168,-0.53106689453125,0.13848876953125,0.822509765625
1629795399168,-0.53314208984375,0.13751220703125,0.8243408203125
1629795399184,-0.534912109375,0.13726806640625,0.8150634765625
1629795399184,-0.53460693359375,0.1363525390625,0.8153076171875
1629795399184,-0.5355224609375,0.1336669921875,0.81768798828125
1629795399278,-0.53973388671875,0.13861083984375,0.8193359375
1629795399278,-0.53466796875,0.13958740234375,0.8162841796875
1629795399278,-0.53839111328125,0.140869140625,0.81756591796875
1629795399293,-0.53851318359375,0.14990234375,0.81805419921875
1629795399293,-0.53692626953125,0.14837646484375,0.81329345703125
1629795399293,-0.54046630859375,0.146240234375,0.8150634765625
1629795399293,-0.540283203125,0.1448974609375,0.814208984375
1629795399293,-0.53912353515625,0.142822265625,0.814453125
1629795399293,-0.5377197265625,0.1473388671875,0.81500244140625
1629795399449,-0.5364990234375,0.1517333984375,0.81756591796875
1629795399449,-0.5372314453125,0.14892578125,0.81610107421875
1629795399449,-0.5394287109375,0.14739990234375,0.82080078125
1629795399746,-0.539794921875,0.13800048828125,0.81683349609375
1629795399746,-0.539794921875,0.1448974609375,0.81475830078125
1629795399746,-0.5416259765625,0.14605712890625,0.81646728515625
1629795399777,-0.53778076171875,0.1431884765625,0.81549072265625
1629795399777,-0.54083251953125,0.1361083984375,0.81744384765625
1629795399777,-0.5428466796875,0.1435546875,0.81549072265625
1629795399840,-0.54248046875,0.14288330078125,0.81768798828125
1629795399840,-0.5411376953125,0.1390380859375,0.814208984375
1629795399840,-0.54449462890625,0.13787841796875,0.81622314453125
1629795399902,-0.53924560546875,0.139892578125,0.8154296875
1629795399902,-0.53924560546875,0.14276123046875,0.8138427734375
1629795399902,-0.54425048828125,0.14202880859375,0.8155517578125
1629795400012,-0.54833984375,0.14459228515625,0.81256103515625
1629795400012,-0.54498291015625,0.14447021484375,0.81207275390625
1629795400012,-0.54583740234375,0.14483642578125,0.81146240234375
1629795400012,-0.54327392578125,0.14044189453125,0.81451416015625
1629795400012,-0.546875,0.1429443359375,0.812744140625
1629795400027,-0.547119140625,0.14208984375,0.81011962890625
1629795400217,-0.55072021484375,0.13311767578125,0.80450439453125
1629795400217,-0.547119140625,0.135986328125,0.80938720703125
1629795400217,-0.5498046875,0.13623046875,0.80743408203125
1629795400451,-0.5472412109375,0.12933349609375,0.81536865234375
1629795400451,-0.54925537109375,0.1331787109375,0.80596923828125
1629795400451,-0.5516357421875,0.1343994140625,0.80859375
1629795400467,-0.5465087890625,0.12921142578125,0.8134765625
1629795400467,-0.5491943359375,0.1334228515625,0.81475830078125
1629795400467,-0.54864501953125,0.12957763671875,0.81365966796875
1629795400561,-0.55023193359375,0.1278076171875,0.80999755859375
1629795400576,-0.5516357421875,0.12603759765625,0.81298828125
1629795400576,-0.55108642578125,0.1273193359375,0.814697265625
1629795400670,-0.55157470703125,0.12451171875,0.804931640625
1629795400670,-0.5518798828125,0.13043212890625,0.8099365234375
