timestamp,ax,ay,az
1631204255113,0.256505,-0.832894,0.475678
1631204255123,0.255285,-0.831674,0.47763
1631204255133,0.255285,-0.830149,0.47726399999999997
1631204255142,0.254797,-0.8303929999999999,0.476288
1631204255152,0.254858,-0.828807,0.474031
1631204255161,0.256566,-0.830332,0.471408
1631204255171,0.259006,-0.831186,0.469517
1631204255181,0.260836,-0.8316129999999999,0.468968
1631204255190,0.260714,-0.830637,0.46829699999999996
1631204255200,0.260714,-0.830942,0.468724
1631204255209,0.259555,-0.829539,0.469273
1631204255219,0.25925,-0.829417,0.471408
1631204255229,0.257969,-0.828685,0.473787
1631204255238,0.255468,-0.827099,0.47458
1631204255248,0.25315,-0.825025,0.476288
1631204255257,0.250283,-0.823256,0.479155
1631204255267,0.247477,-0.821548,0.48129
1631204255277,0.245891,-0.822097,0.480558
1631204255286,0.245586,-0.82167,0.479826
1631204255296,0.243756,-0.822646,0.478972
1631204255305,0.244244,-0.824232,0.480192
1631204255315,0.24326799999999998,-0.8249029999999999,0.482205
1631204255325,0.243634,-0.824476,0.484584
1631204255334,0.24326799999999998,-0.823439,0.485499
1631204255344,0.24357299999999998,-0.823622,0.484645
1631204255353,0.242292,-0.8235,0.484279
1631204255363,0.240645,-0.823195,0.48287599999999997
1631204255373,0.241499,-0.822951,0.48312
1631204255382,0.24387799999999998,-0.825269,0.483913
1631204255392,0.245525,-0.826672,0.48129
1631204255401,0.247477,-0.827404,0.47824
1631204255411,0.251869,-0.828929,0.476593
1631204135232,0.100345,-0.719556,0.665754
1631204135241,0.099857,-0.719556,0.6661199999999999
1631204135251,0.099125,-0.719312,0.664717
1631204135260,0.098637,-0.718397,0.6652049999999999
1631204135270,0.09943,-0.719678,0.665632
1631204135280,0.100894,-0.719678,0.6670349999999999
1631204135289,0.099308,-0.718275,0.666669
1631204135299,0.09851499999999999,-0.717421,0.666303
1631204135308,0.10004,-0.717482,0.668743
1631204135318,0.101382,-0.71858,0.669414
1631204135328,0.101199,-0.717909,0.665754
1631204135337,0.099186,-0.716384,0.660569
1631204135347,0.098698,-0.7166279999999999,0.658007
1631204135356,0.099369,-0.718641,0.658922
1631204135366,0.100772,-0.719556,0.662643
1631204135376,0.10065,-0.720654,0.664107
1631204135385,0.10052799999999999,-0.721752,0.665998
1631204135395,0.10083299999999999,-0.723521,0.665632
1631204135404,0.100894,-0.723704,0.664046
1631204135414,0.10083299999999999,-0.723887,0.662094
1631204135424,0.100955,-0.723582,0.6600199999999999
1631204135433,0.10004,-0.723643,0.660203
1631204135443,0.099857,-0.72346,0.660142
1631204135452,0.099796,-0.72102,0.660996
1631204135462,0.100406,-0.72163,0.663558
1631204135472,0.099735,-0.720532,0.664534
1631204135481,0.099552,-0.720593,0.664107
1631204135491,0.099247,-0.720532,0.663863
1631204135500,0.099735,-0.720532,0.664046
1631204135510,0.099796,-0.719861,0.663253
1631204135520,0.099796,-0.7198,0.664107
1631204135529,0.100162,-0.720471,0.663314
1631204135539,0.100284,-0.720227,0.663253
1631204135548,0.10113799999999999,-0.720959,0.662033
1631204135558,0.100162,-0.721935,0.6618499999999999
1631204135568,0.10083299999999999,-0.72102,0.663497
1631204135577,0.101687,-0.721691,0.664961
1631204135587,0.103273,-0.722057,0.665754
1631204135596,0.103517,-0.721569,0.665327
1631204135606,0.101199,-0.720166,0.662216
1631204135616,0.100162,-0.719129,0.6594099999999999
1631204135625,0.100589,-0.719129,0.658617
1631204135635,0.101504,-0.720166,0.659959
1631204135644,0.102541,-0.720532,0.661606
1631204135654,0.101382,-0.720654,0.663131
1631204135664,0.101504,-0.721691,0.662704
1631204135673,0.101931,-0.721752,0.662887
1631204135683,0.102541,-0.721996,0.662582
1631204135692,0.101565,-0.722606,0.663314
1631204135702,0.100711,-0.721508,0.662399
1631204135712,0.100101,-0.721874,0.6621549999999999
1631204135721,0.100467,-0.721264,0.662582
1631204135731,0.10004,-0.721508,0.6624599999999999
1631204135740,0.09943,-0.721752,0.6624599999999999
1631204135750,0.099857,-0.72102,0.662582
1631204135760,0.099613,-0.721386,0.6627649999999999
1631204135769,0.099247,-0.720715,0.663009
1631204135779,0.099674,-0.721081,0.6615449999999999
1631204135788,0.099247,-0.721203,0.661972
1631204135798,0.098576,-0.721996,0.661301
1631204135808,0.098332,-0.722057,0.662033
1631204135817,0.09851499999999999,-0.722606,0.662216
1631204135827,0.098027,-0.722301,0.662826
1631204135836,0.098637,-0.722606,0.662094
1631204135846,0.098271,-0.722484,0.662216
1631204135856,0.097417,-0.723277,0.661789
1631204135865,0.098332,-0.723216,0.661057
1631204135875,0.098027,-0.722179,0.661362
1631204135884,0.09790499999999999,-0.722545,0.661911
1631204135894,0.097844,-0.722362,0.662948
1631204135904,0.098149,-0.722545,0.6636799999999999
1631204135913,0.097844,-0.722545,0.6630699999999999
1631204135923,0.098332,-0.722484,0.663131
1631204135932,0.098942,-0.721691,0.661728
1631204135942,0.098637,-0.721386,0.662399
1631204135952,0.100345,-0.721203,0.662033
1631204135961,0.099003,-0.721081,0.661606
1631204135971,0.099613,-0.721874,0.660508
1631204135980,0.099796,-0.721813,0.660752
1631204135990,0.099735,-0.721508,0.661057
1631204136000,0.100711,-0.722118,0.661423
1631204136009,0.101077,-0.722911,0.660508
1631204136019,0.101199,-0.722911,0.661179
1631204136028,0.101565,-0.723338,0.661362
1631204136038,0.100894,-0.72285,0.660996
1631204136048,0.101626,-0.723155,0.660752
1631204136057,0.102236,-0.723399,0.660203
1631204136067,0.101931,-0.723887,0.6609349999999999
1631204136076,0.10126,-0.723399,0.662094
1631204136086,0.10187,-0.723399,0.661789
1631204136096,0.100406,-0.721386,0.660874
1631204136105,0.099613,-0.72163,0.660752
1631204136115,0.099796,-0.721508,0.661362
1631204136124,0.099064,-0.720898,0.6609349999999999
1631204136134,0.100406,-0.720532,0.6624599999999999
1631204136144,0.100406,-0.721691,0.662948
1631204136153,0.10113799999999999,-0.722179,0.662887
1631204136163,0.100772,-0.721264,0.662277
1631204136172,0.10065,-0.721142,0.662643
1631204136182,0.100162,-0.721508,0.663497
1631204136192,0.099552,-0.721264,0.662399
1631204136201,0.099308,-0.720532,0.6624599999999999
1631204136211,0.09943,-0.720593,0.6630699999999999
1631204136220,0.100162,-0.722057,0.664229
1631204136230,0.10052799999999999,-0.721386,0.6633749999999999
1631204136240,0.098942,-0.718641,0.6627649999999999
1631204136249,0.100345,-0.720898,0.665693
1631204136259,0.10174799999999999,-0.721752,0.667096
1631204136268,0.102358,-0.721874,0.664961
1631204136278,0.100894,-0.720715,0.660508
1631204136288,0.099247,-0.719861,0.656787
1631204136297,0.100406,-0.720715,0.656848
1631204136307,0.101504,-0.722057,0.658861
1631204136316,0.101504,-0.722789,0.661484
1631204136326,0.101626,-0.723033,0.6624599999999999
1631204136336,0.10248,-0.723521,0.6621549999999999
1631204136345,0.101565,-0.724558,0.660874
1631204136355,0.102419,-0.725107,0.6597149999999999
1631204136364,0.102358,-0.725778,0.6587999999999999
1631204136374,0.101565,-0.724985,0.657824
1631204136384,0.10187,-0.724802,0.657946
1631204136393,0.100589,-0.723521,0.6581899999999999
1631204136403,0.100467,-0.722118,0.659837
1631204136412,0.101077,-0.72224,0.6618499999999999
1631204136422,0.101565,-0.722118,0.663192
1631204136432,0.102114,-0.721081,0.662643
1631204136441,0.102358,-0.721996,0.662948
1631204136451,0.102175,-0.722301,0.661606
1631204136460,0.101626,-0.722057,0.660081
1631204136470,0.101687,-0.721874,0.659959
1631204136480,0.102358,-0.722606,0.659166
1631204136489,0.101931,-0.722545,0.658373
1631204136499,0.102358,-0.721508,0.657031
1631204136508,0.102541,-0.722545,0.659349
1631204136518,0.102907,-0.724131,0.6621549999999999
1631204136528,0.105103,-0.724619,0.662399
1631204136537,0.10492,-0.723094,0.6624599999999999
1631204136547,0.103212,-0.722789,0.658922
1631204136556,0.10309,-0.722484,0.657458
1631204136566,0.10315099999999999,-0.722911,0.656543
1631204136576,0.102419,-0.722423,0.657214
1631204136585,0.102663,-0.722057,0.658556
1631204136595,0.10284599999999999,-0.723033,0.660508
1631204136604,0.102602,-0.723155,0.661606
1631204136614,0.102541,-0.722728,0.662277
1631204136624,0.102663,-0.723521,0.6627649999999999
1631204136633,0.10309,-0.722972,0.662582
1631204136643,0.101565,-0.722484,0.661972
1631204136652,0.101016,-0.721874,0.6618499999999999
1631204136662,0.099125,-0.722484,0.661118
1631204136672,0.099857,-0.721386,0.661118
1631204136681,0.098881,-0.720532,0.6618499999999999
1631204136691,0.09820999999999999,-0.719373,0.662826
1631204136700,0.097661,-0.720044,0.6630699999999999
1631204136710,0.097661,-0.719617,0.662582
1631204136720,0.097051,-0.720898,0.6624599999999999
1631204136729,0.096624,-0.720898,0.661667
1631204136739,0.096136,-0.721203,0.6606299999999999
1631204136748,0.095465,-0.721569,0.661118
1631204136758,0.095404,-0.722606,0.660142
1631204136768,0.094123,-0.722667,0.661423
1631204136777,0.093391,-0.722667,0.662033
1631204136787,0.093696,-0.723277,0.6624599999999999
1631204136796,0.094306,-0.72346,0.662887
1631204136806,0.093757,-0.724131,0.6639849999999999
1631204136816,0.093452,-0.723399,0.6636799999999999
1631204136825,0.093635,-0.724192,0.664839
1631204136835,0.092964,-0.724009,0.665083
1631204136844,0.092964,-0.723155,0.664717
1631204136854,0.092903,-0.722362,0.6648999999999999
1631204136864,0.092476,-0.722362,0.665083
1631204136873,0.092781,-0.722728,0.665022
1631204136883,0.092842,-0.72224,0.665266
1631204136892,0.093025,-0.720593,0.664656
1631204136902,0.092964,-0.720532,0.665693
1631204136912,0.093391,-0.719861,0.664351
1631204136921,0.094733,-0.719922,0.664229
1631204136931,0.094489,-0.7198,0.664412
1631204136940,0.095099,-0.72041,0.664046
1631204136950,0.09528199999999999,-0.719312,0.663741
1631204136960,0.096014,-0.720105,0.664107
1631204136969,0.096441,-0.720105,0.663558
1631204136979,0.096868,-0.720044,0.662704
1631204136988,0.09698999999999999,-0.720044,0.662643
1631204136998,0.096197,-0.720776,0.662582
1631204137008,0.09698999999999999,-0.72102,0.662338
1631204137017,0.097661,-0.721325,0.661728
1631204137027,0.09759999999999999,-0.722667,0.662094
1631204137036,0.098454,-0.722606,0.661484
1631204137046,0.098332,-0.723643,0.661301
1631204137056,0.099064,-0.723704,0.661789
1631204137065,0.098942,-0.723216,0.662338
1631204137075,0.09851499999999999,-0.722362,0.663863
1631204137084,0.098576,-0.72224,0.664107
1631204137094,0.09820999999999999,-0.721142,0.664656
1631204137104,0.09820999999999999,-0.720654,0.664778
1631204137113,0.09790499999999999,-0.720105,0.664107
1631204137123,0.096868,-0.718519,0.6630699999999999
1631204137132,0.09698999999999999,-0.718702,0.661911
1631204137142,0.098027,-0.718946,0.662399
1631204137152,0.099552,-0.719312,0.6658149999999999
1631204137161,0.098332,-0.718519,0.664839
1631204137171,0.098759,-0.718824,0.665876
1631204137180,0.100284,-0.720044,0.6682549999999999
1631204137190,0.100162,-0.719861,0.667096
1631204137200,0.10052799999999999,-0.7198,0.663558
1631204137209,0.099796,-0.720105,0.659776
1631204137219,0.100162,-0.719983,0.6594099999999999
1631204137228,0.101687,-0.721569,0.662094
1631204137238,0.10284599999999999,-0.72102,0.6642899999999999
1631204137248,0.103029,-0.72224,0.664778
1631204137257,0.102358,-0.722728,0.663192
1631204137267,0.102663,-0.723521,0.661301
1631204137276,0.102907,-0.723582,0.659593
1631204137286,0.10284599999999999,-0.72346,0.659593
1631204137296,0.10376099999999999,-0.722911,0.658922
1631204137305,0.103944,-0.722423,0.658983
1631204137315,0.10376099999999999,-0.722057,0.6600199999999999
1631204137324,0.10406599999999999,-0.720715,0.660386
1631204137334,0.104493,-0.720166,0.6603249999999999
1631204137344,0.104615,-0.721264,0.661728
1631204137353,0.10431,-0.720227,0.6612399999999999
1631204137363,0.105286,-0.721142,0.660569
1631204137372,0.105896,-0.72163,0.661362
1631204137382,0.106201,-0.721508,0.660386
1631204137392,0.105652,-0.721874,0.658678
1631204137401,0.105896,-0.721935,0.656177
1631204137411,0.105469,-0.721325,0.657153
1631204137420,0.107055,-0.722728,0.660081
1631204137430,0.106933,-0.723216,0.6615449999999999
1631204137440,0.10858,-0.723704,0.661423
1631204137449,0.106933,-0.723887,0.6606299999999999
1631204137459,0.105713,-0.723521,0.658068
1631204137468,0.10675,-0.72224,0.656726
1631204137478,0.106567,-0.723399,0.657519
1631204137488,0.105408,-0.723216,0.658678
1631204137497,0.105347,-0.722179,0.659471
1631204137507,0.10431,-0.72163,0.660264
1631204137516,0.104615,-0.722118,0.661057
1631204137526,0.105225,-0.723094,0.661118
1631204137536,0.10467599999999999,-0.723948,0.662033
1631204137545,0.105042,-0.723216,0.661118
1631204137555,0.10492,-0.72346,0.6597149999999999
1631204137564,0.103029,-0.724131,0.660081
1631204137574,0.10345599999999999,-0.724131,0.660203
1631204137584,0.103822,-0.725046,0.659593
1631204137593,0.103212,-0.72407,0.659837
1631204137603,0.102297,-0.723155,0.6609349999999999
1631204137612,0.102663,-0.723277,0.6603249999999999
1631204137622,0.10248,-0.724192,0.661423
1631204137632,0.102358,-0.725168,0.661118
1631204137641,0.102419,-0.725107,0.660447
1631204137651,0.102114,-0.724741,0.659898
1631204137660,0.101565,-0.725046,0.659776
1631204137670,0.10052799999999999,-0.725107,0.660447
1631204137680,0.10083299999999999,-0.724436,0.660569
1631204137689,0.100589,-0.723704,0.660752
1631204137699,0.10065,-0.724192,0.661057
1631204137708,0.100467,-0.723338,0.662277
1631204137718,0.099674,-0.722789,0.663131
1631204137728,0.100467,-0.722362,0.663802
1631204137737,0.10004,-0.721325,0.6633749999999999
1631204137747,0.100284,-0.72102,0.662521
1631204137756,0.099247,-0.720654,0.662704
1631204137766,0.099979,-0.719922,0.662826
1631204137776,0.101504,-0.719983,0.662338
1631204137785,0.100772,-0.719434,0.6618499999999999
1631204137795,0.101809,-0.719739,0.661667
1631204137804,0.10187,-0.719678,0.662704
1631204137814,0.102785,-0.719983,0.663314
1631204137824,0.103395,-0.719434,0.662582
1631204137833,0.103822,-0.719129,0.661728
1631204137843,0.10498099999999999,-0.720471,0.661301
1631204137852,0.10498099999999999,-0.720166,0.6606299999999999
1631204137862,0.10492,-0.72102,0.659593
1631204137872,0.104798,-0.721813,0.658922
1631204137881,0.105835,-0.722667,0.657824
1631204137891,0.105896,-0.72285,0.658129
1631204137900,0.10638399999999999,-0.724924,0.658312
1631204137910,0.10760399999999999,-0.725717,0.658983
1631204137920,0.107482,-0.726632,0.659776
1631204137929,0.107055,-0.726632,0.660508
1631204137939,0.10760399999999999,-0.726022,0.661301
1631204137948,0.107665,-0.725473,0.660752
1631204137958,0.107421,-0.724558,0.660081
1631204137968,0.107055,-0.724741,0.659776
1631204137977,0.106506,-0.724314,0.660996
1631204137987,0.105652,-0.723033,0.6612399999999999
1631204137996,0.10638399999999999,-0.722545,0.661728
1631204138006,0.10607899999999999,-0.721691,0.662704
1631204138016,0.106018,-0.721935,0.662521
1631204138025,0.10577399999999999,-0.720288,0.663253
1631204138035,0.105652,-0.719007,0.6627649999999999
1631204138044,0.10675,-0.719312,0.661728
1631204138054,0.10668899999999999,-0.719434,0.662399
1631204138064,0.10760399999999999,-0.719922,0.662521
1631204138073,0.107116,-0.7178479999999999,0.663558
1631204138083,0.107177,-0.71797,0.665266
1631204138092,0.108031,-0.718214,0.665022
1631204138102,0.109068,-0.718885,0.664656
1631204138112,0.109251,-0.718336,0.661484
1631204138121,0.107482,-0.718824,0.657031
1631204138131,0.108275,-0.719312,0.654103
1631204138140,0.108336,-0.720227,0.655811
1631204138150,0.109739,-0.722179,0.6578849999999999
1631204138160,0.11053199999999999,-0.72224,0.659593
1631204138169,0.10992199999999999,-0.723277,0.6600199999999999
1631204138179,0.110105,-0.722972,0.659593
1631204138188,0.1098,-0.723887,0.658312
1631204138198,0.109739,-0.725046,0.656909
1631204138208,0.109251,-0.72468,0.656177
1631204138217,0.109068,-0.724314,0.656482
1631204138227,0.108763,-0.724741,0.6575799999999999
1631204138236,0.108824,-0.724497,0.658312
1631204138246,0.108824,-0.724009,0.659471
1631204138256,0.108824,-0.724009,0.660752
1631204138265,0.109068,-0.722911,0.660813
1631204138275,0.109373,-0.723216,0.661362
1631204138284,0.109983,-0.722606,0.662826
1631204138294,0.109373,-0.721874,0.661362
1631204138304,0.109373,-0.721203,0.660142
1631204138313,0.10961699999999999,-0.720532,0.6606299999999999
1631204138323,0.110288,-0.721203,0.660203
1631204138332,0.11114199999999999,-0.720288,0.658556
1631204138342,0.111264,-0.720349,0.6581899999999999
1631204138352,0.111813,-0.720715,0.658678
1631204138361,0.113277,-0.723704,0.6600199999999999
1631204138371,0.116205,-0.723704,0.661057
1631204138380,0.114192,-0.72285,0.659654
1631204138390,0.113887,-0.723704,0.656726
1631204138400,0.112789,-0.723155,0.654774
1631204138409,0.11284999999999999,-0.723582,0.655262
1631204138419,0.112972,-0.723948,0.656726
1631204138428,0.113643,-0.724009,0.657519
1631204138438,0.114009,-0.724192,0.658373
1631204138448,0.113643,-0.725473,0.659532
1631204138457,0.113948,-0.724924,0.659532
1631204138467,0.11345999999999999,-0.724375,0.658678
1631204138476,0.112301,-0.724497,0.657763
1631204138486,0.11163,-0.723582,0.657763
1631204138496,0.11041,-0.722911,0.657641
1631204138505,0.110105,-0.722789,0.658007
1631204138515,0.109678,-0.722362,0.658068
1631204138524,0.110105,-0.722972,0.6578849999999999
1631204138534,0.109983,-0.722606,0.658739
1631204138544,0.1098,-0.723216,0.6591049999999999
1631204138553,0.10900699999999999,-0.723826,0.659959
1631204138563,0.110105,-0.723582,0.659532
1631204138572,0.10931199999999999,-0.723765,0.659898
1631204138582,0.109068,-0.723826,0.6591049999999999
1631204138592,0.108519,-0.723277,0.657824
1631204138601,0.10931199999999999,-0.723582,0.657763
1631204138611,0.10790899999999999,-0.724436,0.6572749999999999
1631204138620,0.108397,-0.724253,0.6569699999999999
1631204138630,0.108214,-0.724802,0.656726
1631204138640,0.10797,-0.725046,0.656116
1631204138649,0.108214,-0.725412,0.658007
1631204138659,0.108458,-0.726266,0.6581899999999999
1631204138668,0.108763,-0.726754,0.659166
1631204138678,0.108214,-0.727059,0.658617
1631204138688,0.109739,-0.726144,0.657702
1631204138697,0.10858,-0.725595,0.657092
1631204138707,0.108397,-0.725778,0.658068
1631204138716,0.10900699999999999,-0.725839,0.658678
1631204138726,0.10900699999999999,-0.725534,0.659227
1631204138736,0.109678,-0.725046,0.659593
1631204138745,0.109495,-0.724741,0.659898
1631204138755,0.110288,-0.724314,0.659654
1631204138764,0.110898,-0.724253,0.659044
1631204138774,0.11041,-0.722728,0.658251
1631204138784,0.110959,-0.723216,0.658312
1631204138793,0.111996,-0.722911,0.657458
1631204138803,0.112728,-0.72346,0.656787
1631204138812,0.113094,-0.723704,0.657092
1631204138822,0.113948,-0.723338,0.655933
1631204138832,0.114253,-0.723277,0.6554449999999999
1631204138841,0.11406999999999999,-0.72407,0.655262
1631204138851,0.11486299999999999,-0.725107,0.654713
1631204138860,0.114375,-0.72468,0.655018
1631204138870,0.114741,-0.725351,0.653432
1631204138880,0.114924,-0.726083,0.653249
1631204138889,0.114253,-0.727181,0.653981
1631204138899,0.114985,-0.727669,0.654713
1631204138908,0.114009,-0.727181,0.654957
1631204138918,0.114619,-0.726998,0.655384
1631204138928,0.113582,-0.727303,0.656726
1631204138937,0.11284999999999999,-0.726998,0.658678
1631204138947,0.113521,-0.725839,0.658556
1631204138956,0.112118,-0.724741,0.657214
1631204138966,0.112362,-0.725107,0.656543
1631204138976,0.112911,-0.724924,0.658922
1631204138985,0.113094,-0.725046,0.660142
1631204138995,0.112057,-0.723338,0.6591049999999999
1631204139004,0.112972,-0.720898,0.660264
1631204139014,0.114192,-0.721874,0.661606
1631204139024,0.115412,-0.722728,0.6624599999999999
1631204139033,0.11529,-0.721752,0.6587999999999999
1631204139043,0.113277,-0.720593,0.653493
1631204139052,0.113033,-0.721142,0.650687
1631204139062,0.114314,-0.723277,0.65209
1631204139072,0.115046,-0.724558,0.654652
1631204139081,0.115961,-0.725534,0.657458
1631204139091,0.116571,-0.726571,0.657458
1631204139100,0.116876,-0.7284619999999999,0.657397
1631204139110,0.116937,-0.728706,0.657153
1631204139120,0.117059,-0.728584,0.65453
1631204139129,0.116449,-0.728645,0.653371
1631204139139,0.116937,-0.7296819999999999,0.652029
1631204139148,0.116205,-0.728645,0.651846
1631204139158,0.11608299999999999,-0.727974,0.652517
1631204139168,0.115839,-0.726815,0.654774
1631204139177,0.115412,-0.726327,0.654652
1631204139187,0.114985,-0.725412,0.656421
1631204139196,0.115656,-0.725107,0.657153
1631204139206,0.11608299999999999,-0.724375,0.657519
1631204139216,0.114619,-0.724375,0.656909
1631204139225,0.115046,-0.724436,0.657702
1631204139235,0.114558,-0.72407,0.657458
1631204139244,0.115351,-0.723887,0.656543
1631204139254,0.115412,-0.724009,0.6557499999999999
1631204139264,0.115717,-0.724131,0.6557499999999999
1631204139273,0.116205,-0.723826,0.6560549999999999
1631204139283,0.117059,-0.725595,0.656482
1631204139292,0.118157,-0.725656,0.657458
1631204139302,0.11840099999999999,-0.725595,0.6578849999999999
1631204139312,0.11699799999999999,-0.724192,0.656238
1631204139321,0.116144,-0.723094,0.655018
1631204139331,0.116449,-0.722972,0.65514
1631204139340,0.116022,-0.722728,0.655689
1631204139350,0.116876,-0.72224,0.656299
1631204139360,0.116022,-0.722911,0.657458
1631204139369,0.116022,-0.722789,0.658739
1631204139379,0.116754,-0.722789,0.658068
1631204139388,0.116937,-0.723216,0.6569699999999999
1631204139398,0.116937,-0.723765,0.656848
1631204139408,0.115717,-0.723887,0.657153
1631204139417,0.116205,-0.723582,0.6557499999999999
1631204139427,0.116144,-0.723582,0.655872
1631204139436,0.116632,-0.724802,0.655811
1631204139446,0.115961,-0.725046,0.6566649999999999
1631204139456,0.116144,-0.725046,0.657031
1631204139465,0.115839,-0.723582,0.656848
1631204139475,0.115534,-0.725229,0.655933
1631204139484,0.115961,-0.725168,0.655201
1631204139494,0.116144,-0.726083,0.655384
1631204139504,0.11529,-0.725778,0.655567
1631204139513,0.114192,-0.725595,0.656238
1631204139523,0.114497,-0.726266,0.655323
1631204139532,0.112972,-0.726144,0.655262
1631204139542,0.11223999999999999,-0.725839,0.655079
1631204139552,0.112484,-0.726144,0.655323
1631204139561,0.112301,-0.72651,0.6560549999999999
1631204139571,0.11223999999999999,-0.72712,0.6569699999999999
1631204139580,0.112484,-0.726998,0.658861
1631204139590,0.112667,-0.726144,0.658617
1631204139600,0.112484,-0.725961,0.658739
1631204139609,0.112606,-0.725839,0.659776
1631204139619,0.111569,-0.725717,0.659227
1631204139628,0.111569,-0.724863,0.658129
1631204139638,0.11193499999999999,-0.723277,0.658373
1631204139648,0.111752,-0.723277,0.658068
1631204139657,0.112911,-0.722972,0.656909
1631204139667,0.113399,-0.723155,0.6566649999999999
1631204139676,0.114253,-0.723033,0.656848
1631204139686,0.114741,-0.723338,0.656177
1631204139696,0.115046,-0.723948,0.6560549999999999
1631204139705,0.115717,-0.723765,0.655872
1631204139715,0.116754,-0.723887,0.6554449999999999
1631204139724,0.11809599999999999,-0.72468,0.65453
1631204139734,0.117913,-0.724924,0.653066
1631204139744,0.11809599999999999,-0.725229,0.653188
1631204139753,0.11809599999999999,-0.726632,0.652151
1631204139763,0.11712,-0.726632,0.652029
1631204139772,0.117364,-0.726754,0.652212
1631204139782,0.117181,-0.727669,0.651663
1631204139792,0.116754,-0.727974,0.652761
1631204139801,0.117547,-0.72834,0.654286
1631204139811,0.116754,-0.728828,0.654835
1631204139820,0.117059,-0.728218,0.6557499999999999
1631204139830,0.115534,-0.727913,0.655323
1631204139840,0.116144,-0.727669,0.657031
1631204139849,0.115412,-0.72651,0.658251
1631204139859,0.11468,-0.726571,0.658129
1631204139868,0.11345999999999999,-0.724802,0.656787
1631204139878,0.11254499999999999,-0.723155,0.655262
1631204139888,0.112118,-0.723094,0.655994
1631204139897,0.11376499999999999,-0.723704,0.658068
1631204139907,0.113216,-0.722057,0.659471
1631204139916,0.111874,-0.720715,0.658922
1631204139926,0.112911,-0.721447,0.660752
1631204139936,0.114314,-0.722728,0.662216
1631204139945,0.113948,-0.722789,0.659654
1631204139955,0.113948,-0.723094,0.655689
1631204139964,0.113094,-0.72285,0.652578
1631204139974,0.113399,-0.724741,0.652517
1631204139984,0.1159,-0.725473,0.655323
1631204139993,0.115961,-0.726876,0.657946
1631204140003,0.11577799999999999,-0.726205,0.657031
1631204140012,0.116144,-0.726998,0.657031
1631204140022,0.115717,-0.727669,0.655079
1631204140032,0.1159,-0.7281569999999999,0.65392
1631204140041,0.115534,-0.727669,0.6527
1631204140051,0.11529,-0.728828,0.65148
1631204140060,0.114619,-0.727669,0.651663
1631204140070,0.114741,-0.726754,0.653005
1631204140080,0.11547299999999999,-0.7275469999999999,0.654591
1631204140089,0.11486299999999999,-0.726266,0.656482
1631204140099,0.115351,-0.726571,0.657336
1631204140108,0.114985,-0.726022,0.658922
1631204140118,0.115107,-0.725534,0.658617
1631204140128,0.11468,-0.725656,0.657458
1631204140137,0.115046,-0.725473,0.657702
1631204140147,0.114497,-0.725778,0.658434
1631204140156,0.114558,-0.72529,0.6572749999999999
1631204140166,0.113704,-0.724253,0.65514
1631204140176,0.11376499999999999,-0.722972,0.658068
1631204140185,0.115107,-0.72346,0.660142
1631204140195,0.117242,-0.723216,0.660813
1631204140204,0.11699799999999999,-0.722118,0.6597149999999999
1631204140214,0.115717,-0.721386,0.6557499999999999
1631204140224,0.115595,-0.720837,0.653798
1631204140233,0.115351,-0.720471,0.653249
1631204140243,0.11529,-0.720166,0.653737
1631204140252,0.116632,-0.720898,0.655079
1631204140262,0.116022,-0.721691,0.654774
1631204140272,0.11608299999999999,-0.72163,0.655872
1631204140281,0.116937,-0.724131,0.655689
1631204140291,0.11730299999999999,-0.725168,0.656726
1631204140300,0.117181,-0.725778,0.656299
1631204140310,0.117608,-0.726693,0.6560549999999999
1631204140320,0.116937,-0.726815,0.655079
1631204140329,0.117364,-0.726205,0.654957
1631204140339,0.116876,-0.726998,0.655018
1631204140348,0.116937,-0.726876,0.655201
1631204140358,0.116754,-0.727669,0.655323
1631204140368,0.116266,-0.728706,0.654469
1631204140377,0.116266,-0.728218,0.654286
1631204140387,0.116022,-0.728584,0.654042
1631204140396,0.115046,-0.7287669999999999,0.653859
1631204140406,0.114619,-0.729499,0.653981
1631204140416,0.113826,-0.729499,0.654896
1631204140425,0.113216,-0.729499,0.654896
1631204140435,0.113094,-0.728706,0.655384
1631204140444,0.11254499999999999,-0.7290719999999999,0.6560549999999999
1631204140454,0.113338,-0.7290719999999999,0.6560549999999999
1631204140464,0.113033,-0.727791,0.656482
1631204140473,0.113094,-0.727486,0.655933
1631204140483,0.112118,-0.727425,0.657092
1631204140492,0.11193499999999999,-0.726388,0.656848
1631204140502,0.111752,-0.725717,0.657946
1631204140512,0.112606,-0.724924,0.6581899999999999
1631204140521,0.11223999999999999,-0.72468,0.657458
1631204140531,0.113033,-0.724009,0.657519
1631204140540,0.113582,-0.72407,0.656909
1631204140550,0.115046,-0.724253,0.656604
1631204140560,0.114924,-0.723704,0.655994
1631204140569,0.11638799999999999,-0.723765,0.655811
1631204140579,0.116632,-0.723277,0.6566649999999999
1631204140588,0.11712,-0.723338,0.65514
1631204140598,0.11669299999999999,-0.723582,0.654957
1631204140608,0.11730299999999999,-0.724314,0.652822
1631204140617,0.117852,-0.724985,0.652029
1631204140627,0.117242,-0.725961,0.65209
1631204140636,0.118035,-0.727913,0.651663
1631204140646,0.118523,-0.728523,0.65331
1631204140656,0.11840099999999999,-0.728279,0.653554
1631204140665,0.118584,-0.728584,0.653249
1631204140675,0.119682,-0.729194,0.653676
1631204140684,0.11962099999999999,-0.728706,0.654164
1631204140694,0.119133,-0.72834,0.655079
1631204140704,0.11840099999999999,-0.727486,0.655872
1631204140713,0.11834,-0.727181,0.656299
1631204140723,0.118035,-0.725778,0.657702
1631204140732,0.11834,-0.723765,0.658007
1631204140742,0.117486,-0.723521,0.6594099999999999
1631204140752,0.11773,-0.722545,0.6591049999999999
1631204140761,0.11773,-0.721935,0.657092
1631204140771,0.117913,-0.721569,0.656604
1631204140780,0.11773,-0.72163,0.656726
1631204140790,0.120109,-0.72285,0.659593
1631204140800,0.119743,-0.722179,0.6587999999999999
1631204140809,0.120048,-0.72163,0.660386
1631204140819,0.121207,-0.722728,0.6621549999999999
1631204140828,0.12261,-0.723948,0.661606
1631204140838,0.12163399999999999,-0.723887,0.657214
1631204140848,0.12102399999999999,-0.722545,0.652761
1631204140857,0.120414,-0.721996,0.651175
1631204140867,0.122305,-0.723887,0.653493
1631204140876,0.12224399999999999,-0.724863,0.655689
1631204140886,0.122,-0.724253,0.657519
1631204140896,0.121695,-0.724131,0.6575799999999999
1631204140905,0.12139,-0.724436,0.657397
1631204140915,0.12163399999999999,-0.724741,0.6566649999999999
1631204140924,0.122488,-0.724436,0.655811
1631204140934,0.121817,-0.724619,0.655567
1631204140944,0.120902,-0.724009,0.654591
1631204140953,0.120292,-0.722667,0.655018
1631204140963,0.119133,-0.72163,0.6566649999999999
1631204140972,0.120109,-0.721569,0.658312
1631204140982,0.120475,-0.720898,0.6591049999999999
1631204140992,0.11992599999999999,-0.720959,0.6606299999999999
1631204141001,0.121146,-0.721081,0.661606
1631204141011,0.120841,-0.720471,0.660691
1631204141020,0.12017,-0.720532,0.660752
1631204141030,0.12071899999999999,-0.719922,0.6606299999999999
1631204141040,0.120292,-0.72041,0.659898
1631204141049,0.120658,-0.71919,0.658678
1631204141059,0.121268,-0.719007,0.6572749999999999
1631204141068,0.120475,-0.718824,0.658129
1631204141078,0.12163399999999999,-0.720166,0.6591049999999999
1631204141088,0.122061,-0.721142,0.6597149999999999
1631204141097,0.122732,-0.72102,0.6615449999999999
1631204141107,0.121146,-0.720837,0.658739
1631204141116,0.121268,-0.721935,0.656482
1631204141126,0.12102399999999999,-0.721447,0.656421
1631204141136,0.121146,-0.721447,0.656787
1631204141145,0.120902,-0.722118,0.657763
1631204141155,0.122,-0.722484,0.657824
1631204141164,0.121512,-0.722728,0.658617
1631204141174,0.12078,-0.723338,0.657824
1631204141184,0.11956,-0.72346,0.658312
1631204141193,0.12017,-0.724619,0.657336
1631204141203,0.117852,-0.723948,0.657092
1631204141212,0.117913,-0.723887,0.657458
1631204141222,0.11712,-0.723704,0.657946
1631204141232,0.117059,-0.723948,0.659532
1631204141241,0.116815,-0.724558,0.659898
1631204141251,0.11651,-0.724314,0.660813
1631204141260,0.115595,-0.723094,0.661484
1631204141270,0.115717,-0.723033,0.661301
1631204141280,0.114985,-0.722972,0.6615449999999999
1631204141289,0.115412,-0.722789,0.661362
1631204141299,0.11486299999999999,-0.722789,0.661362
1631204141308,0.114253,-0.721508,0.6603249999999999
1631204141318,0.113948,-0.722545,0.661667
1631204141328,0.113643,-0.721447,0.6615449999999999
1631204141337,0.114741,-0.721569,0.6603249999999999
1631204141347,0.114558,-0.720532,0.660996
1631204141356,0.114314,-0.720288,0.660691
1631204141366,0.113704,-0.719861,0.6606299999999999
1631204141376,0.114802,-0.720044,0.659654
1631204141385,0.114802,-0.720471,0.659532
1631204141395,0.11468,-0.720105,0.658922
1631204141404,0.114436,-0.721386,0.658251
1631204141414,0.11516799999999999,-0.720898,0.657214
1631204141424,0.11516799999999999,-0.722484,0.6572749999999999
1631204141433,0.114619,-0.722423,0.657214
1631204141443,0.11486299999999999,-0.724436,0.657763
1631204141452,0.116449,-0.724558,0.658678
1631204141462,0.115961,-0.724009,0.657946
1631204141472,0.115961,-0.72407,0.658434
1631204141481,0.115961,-0.724436,0.658434
1631204141491,0.115839,-0.723948,0.659349
1631204141500,0.11529,-0.723582,0.658983
1631204141510,0.115412,-0.723582,0.659654
1631204141520,0.114375,-0.723277,0.659898
1631204141529,0.11547299999999999,-0.723338,0.659349
1631204141539,0.11516799999999999,-0.723826,0.660508
1631204141548,0.115412,-0.721813,0.6612399999999999
1631204141558,0.116449,-0.721508,0.661484
1631204141568,0.11577799999999999,-0.721508,0.6618499999999999
1631204141577,0.116205,-0.721386,0.661484
1631204141587,0.116022,-0.720959,0.661057
1631204141596,0.11699799999999999,-0.72041,0.6615449999999999
1631204141606,0.116937,-0.720837,0.660203
1631204141616,0.117242,-0.720044,0.659776
1631204141625,0.117913,-0.719739,0.659532
1631204141635,0.118218,-0.720593,0.660386
1631204141644,0.11956,-0.721142,0.660874
1631204141654,0.119133,-0.721142,0.660996
1631204141664,0.11834,-0.719983,0.659959
1631204141673,0.118279,-0.720959,0.659837
1631204141683,0.119255,-0.721508,0.660386
1631204141692,0.11834,-0.721203,0.662338
1631204141702,0.11809599999999999,-0.719007,0.6624599999999999
1631204141712,0.117974,-0.7187629999999999,0.6633749999999999
1631204141721,0.119072,-0.719495,0.666608
1631204141731,0.11992599999999999,-0.71919,0.666913
1631204141740,0.119255,-0.718214,0.663802
1631204141750,0.117486,-0.716872,0.6597149999999999
1631204141760,0.117486,-0.717482,0.658434
1631204141769,0.118767,-0.71797,0.658007
1631204141779,0.119072,-0.7178479999999999,0.6606299999999999
1631204141788,0.119499,-0.717909,0.662277
1631204141798,0.11870599999999999,-0.717909,0.662582
1631204141808,0.119133,-0.7175429999999999,0.663009
1631204141817,0.120414,-0.719373,0.662216
1631204141827,0.119987,-0.718641,0.661362
1631204141836,0.119682,-0.718946,0.659288
1631204141846,0.118462,-0.71858,0.6587999999999999
1631204141856,0.117608,-0.7187629999999999,0.659654
1631204141865,0.11870599999999999,-0.7190679999999999,0.661057
1631204141875,0.11931599999999999,-0.718519,0.662521
1631204141884,0.119194,-0.718641,0.664046
1631204141894,0.119072,-0.7187629999999999,0.6655099999999999
1631204141904,0.118218,-0.717726,0.664961
1631204141913,0.11779099999999999,-0.716994,0.664656
1631204141923,0.118828,-0.718336,0.6648999999999999
1631204141932,0.118218,-0.7178479999999999,0.663924
1631204141942,0.117486,-0.717482,0.663436
1631204141952,0.118035,-0.7178479999999999,0.662826
1631204141961,0.116815,-0.7187629999999999,0.661484
1631204141971,0.116876,-0.718275,0.662887
1631204141980,0.118279,-0.7198,0.664351
1631204141990,0.11870599999999999,-0.720837,0.6658149999999999
1631204142000,0.120292,-0.719739,0.666974
1631204142009,0.119499,-0.719983,0.665388
1631204142019,0.118584,-0.720288,0.662948
1631204142028,0.11870599999999999,-0.719495,0.660996
1631204142038,0.11773,-0.720105,0.660508
1631204142048,0.11840099999999999,-0.719556,0.661423
1631204142057,0.118218,-0.719312,0.6621549999999999
1631204142067,0.117364,-0.718336,0.663741
1631204142076,0.117974,-0.7175429999999999,0.6661199999999999
1631204142086,0.118584,-0.716689,0.668438
1631204142096,0.119072,-0.7166279999999999,0.667767
1631204142105,0.11834,-0.715225,0.667523
1631204142115,0.11638799999999999,-0.7151029999999999,0.667218
1631204142124,0.11608299999999999,-0.7137,0.6655099999999999
1631204142134,0.11529,-0.713456,0.664046
1631204142144,0.114314,-0.714249,0.664229
1631204142153,0.11486299999999999,-0.7137,0.663558
1631204142163,0.114375,-0.7147979999999999,0.663863
1631204142172,0.114131,-0.715652,0.664656
1631204142182,0.114436,-0.716689,0.663863
1631204142192,0.115229,-0.717665,0.6652049999999999
1631204142201,0.11529,-0.719007,0.665754
1631204142211,0.115839,-0.719434,0.665388
1631204142220,0.11516799999999999,-0.720105,0.664839
1631204142230,0.114802,-0.719617,0.664046
1631204142240,0.114802,-0.719678,0.6639849999999999
1631204142249,0.11468,-0.719312,0.665083
1631204142259,0.114009,-0.718946,0.664839
1631204142268,0.113948,-0.717787,0.664961
1631204142278,0.113338,-0.71675,0.665022
1631204142288,0.113582,-0.714859,0.667584
1631204142297,0.113826,-0.714859,0.668072
1631204142307,0.113094,-0.715286,0.667767
1631204142316,0.113826,-0.715469,0.668987
1631204142326,0.11406999999999999,-0.713761,0.669353
1631204142336,0.11468,-0.715042,0.668072
1631204142345,0.115046,-0.713517,0.6679499999999999
1631204142355,0.116876,-0.714127,0.666608
1631204142364,0.11712,-0.714737,0.667157
1631204142374,0.118279,-0.7147979999999999,0.666669
1631204142384,0.118645,-0.7144929999999999,0.6667299999999999
1631204142393,0.11956,-0.7147979999999999,0.666059
1631204142403,0.119377,-0.7157129999999999,0.666486
1631204142412,0.119804,-0.715652,0.665876
1631204142422,0.119804,-0.7163229999999999,0.6655099999999999
1631204142432,0.120841,-0.7160179999999999,0.665632
1631204142441,0.120841,-0.716872,0.665327
1631204142451,0.121207,-0.716689,0.6655099999999999
1631204142460,0.120841,-0.716994,0.665632
1631204142470,0.121207,-0.716811,0.665632
1631204142480,0.121451,-0.715286,0.6658149999999999
1631204142489,0.121573,-0.714554,0.6664249999999999
1631204142499,0.122061,-0.71431,0.667401
1631204142508,0.12261,-0.7144929999999999,0.668377
1631204142518,0.122671,-0.7141879999999999,0.667828
1631204142528,0.121451,-0.713395,0.668743
1631204142537,0.12132899999999999,-0.7120529999999999,0.669292
1631204142547,0.121268,-0.711931,0.669048
1631204142556,0.120658,-0.712419,0.668194
1631204142566,0.120475,-0.7117479999999999,0.668011
1631204142576,0.120353,-0.7120529999999999,0.668316
1631204142585,0.121512,-0.7108329999999999,0.6691699999999999
1631204142595,0.121207,-0.709857,0.670329
1631204142604,0.11931599999999999,-0.707966,0.670207
1631204142614,0.11992599999999999,-0.709674,0.672769
1631204142624,0.12078,-0.709979,0.674599
1631204142633,0.120414,-0.709552,0.673257
1631204142643,0.11962099999999999,-0.7083929999999999,0.6694749999999999
1631204142652,0.118279,-0.708515,0.666303
1631204142662,0.119743,-0.709796,0.666974
1631204142672,0.121146,-0.7111379999999999,0.668011
1631204142681,0.121146,-0.711687,0.669902
1631204142691,0.12132899999999999,-0.711687,0.668804
1631204142700,0.12139,-0.712846,0.667279
1631204142710,0.121817,-0.7137,0.666852
1631204142720,0.12102399999999999,-0.71553,0.664046
1631204142729,0.116632,-0.7141879999999999,0.655933
1631204142739,0.121146,-0.712236,0.663619
1631204142748,0.121878,-0.714554,0.667279
1631204142758,0.120048,-0.7141879999999999,0.665876
1631204142768,0.121146,-0.7138829999999999,0.667828
1631204142777,0.121512,-0.715896,0.670451
1631204142787,0.122488,-0.7169329999999999,0.671305
1631204142796,0.121451,-0.718031,0.669414
1631204142806,0.121756,-0.718885,0.669353
1631204142816,0.121146,-0.718214,0.668377
1631204142825,0.121695,-0.71858,0.668072
1631204142835,0.12102399999999999,-0.719251,0.668926
1631204142844,0.120414,-0.717909,0.668804
1631204142854,0.120475,-0.716079,0.667157
1631204142864,0.119804,-0.7138829999999999,0.668987
1631204142873,0.119987,-0.713212,0.671
1631204142883,0.11956,-0.711931,0.672159
1631204142892,0.121817,-0.710772,0.67222
1631204142902,0.11956,-0.70943,0.669902
1631204142912,0.11992599999999999,-0.70882,0.667218
1631204142921,0.11956,-0.7083929999999999,0.666608
1631204142931,0.119072,-0.709064,0.665998
1631204142940,0.119255,-0.709247,0.6673399999999999
1631204142950,0.11809599999999999,-0.710284,0.667767
1631204142960,0.119072,-0.710894,0.667706
1631204142969,0.119133,-0.7120529999999999,0.668194
1631204142979,0.11956,-0.714005,0.668377
1631204142988,0.118828,-0.715652,0.668133
1631204142998,0.118523,-0.715652,0.668743
1631204143008,0.118279,-0.716811,0.667889
1631204143017,0.118462,-0.715774,0.668438
1631204143027,0.11773,-0.715957,0.668011
1631204143036,0.116815,-0.7154079999999999,0.668316
1631204143046,0.116632,-0.714859,0.668133
1631204143056,0.116327,-0.714249,0.668438
1631204143065,0.11516799999999999,-0.7141879999999999,0.6691699999999999
1631204143075,0.11529,-0.713395,0.669536
1631204143084,0.114314,-0.712907,0.669658
1631204143094,0.114192,-0.712419,0.670268
1631204143104,0.113826,-0.712846,0.670878
1631204143113,0.114436,-0.712175,0.671244
1631204143123,0.114375,-0.71187,0.670146
1631204143132,0.113094,-0.712846,0.669414
1631204143142,0.114436,-0.712541,0.669719
1631204143152,0.114497,-0.7129679999999999,0.670024
1631204143161,0.114741,-0.713334,0.669658
1631204143171,0.114253,-0.7129679999999999,0.669292
1631204143180,0.11529,-0.712907,0.669048
1631204143190,0.115229,-0.7137,0.6694749999999999
1631204143200,0.116144,-0.714005,0.669048
1631204143209,0.115595,-0.7141879999999999,0.668133
1631204143219,0.116876,-0.7141879999999999,0.6697799999999999
1631204143228,0.118157,-0.715591,0.669536
1631204143238,0.118767,-0.7147979999999999,0.669292
1631204143248,0.119377,-0.714554,0.6697799999999999
1631204143257,0.11834,-0.715164,0.669658
1631204143267,0.119987,-0.7144929999999999,0.6679499999999999
1631204143276,0.120292,-0.714737,0.6688649999999999
1631204143286,0.11992599999999999,-0.714066,0.668011
1631204143296,0.120841,-0.7138829999999999,0.668011
1631204143305,0.120658,-0.7137,0.667401
1631204143315,0.120963,-0.713639,0.666791
1631204143324,0.121756,-0.71187,0.666303
1631204143334,0.121817,-0.7126629999999999,0.666059
1631204143344,0.12193899999999999,-0.71248,0.6664249999999999
1631204143353,0.122732,-0.7132729999999999,0.665449
1631204143363,0.12285399999999999,-0.713639,0.665144
1631204143372,0.122305,-0.713761,0.665754
1631204143382,0.122427,-0.7137,0.6670349999999999
1631204143392,0.122671,-0.7135779999999999,0.666791
1631204143401,0.122671,-0.713761,0.668133
1631204143411,0.122183,-0.71309,0.668499
1631204143420,0.122,-0.714005,0.668743
1631204143430,0.120597,-0.711931,0.669231
1631204143440,0.12078,-0.71126,0.667279
1631204143449,0.12102399999999999,-0.7120529999999999,0.667401
1631204143459,0.122427,-0.712419,0.670878
1631204143468,0.12163399999999999,-0.711504,0.671183
1631204143478,0.120353,-0.709491,0.671183
1631204143488,0.121817,-0.710955,0.672098
1631204143497,0.121756,-0.711992,0.672464
1631204143507,0.122732,-0.712236,0.668743
1631204143516,0.12224399999999999,-0.711504,0.664961
1631204143526,0.120536,-0.712114,0.660081
1631204143536,0.122,-0.7135779999999999,0.661179
1631204143545,0.123098,-0.7154079999999999,0.664168
1631204143555,0.12425699999999999,-0.716567,0.6667299999999999
1631204143564,0.124318,-0.718031,0.6670349999999999
1631204143574,0.12444,-0.717482,0.667218
1631204143584,0.12456199999999999,-0.718214,0.666486
1631204143593,0.12395199999999999,-0.718092,0.665937
1631204143603,0.124074,-0.717665,0.665083
1631204143612,0.123708,-0.7175429999999999,0.664351
1631204143622,0.12383,-0.7166279999999999,0.664778
1631204143632,0.12364699999999999,-0.715896,0.666242
1631204143641,0.124013,-0.715164,0.6673399999999999
1631204143651,0.12456199999999999,-0.7135779999999999,0.667889
1631204143660,0.124074,-0.715042,0.668438
1631204143670,0.124074,-0.7138829999999999,0.6688649999999999
1631204143680,0.12425699999999999,-0.712114,0.668804
1631204143689,0.12456199999999999,-0.713456,0.667828
1631204143699,0.124745,-0.711992,0.668011
1631204143708,0.124623,-0.711809,0.665693
1631204143718,0.124379,-0.712297,0.664412
1631204143728,0.125172,-0.711077,0.662887
1631204143737,0.125355,-0.712602,0.664168
1631204143747,0.125843,-0.714676,0.666852
1631204143756,0.127368,-0.714859,0.668011
1631204143766,0.128161,-0.7147979999999999,0.666791
1631204143776,0.127368,-0.715835,0.664656
1631204143785,0.12749,-0.714676,0.662948
1631204143795,0.126331,-0.715225,0.6630699999999999
1631204143804,0.126514,-0.714676,0.663802
1631204143814,0.126209,-0.714432,0.664412
1631204143824,0.125782,-0.71492,0.665998
1631204143833,0.124623,-0.713822,0.666974
1631204143843,0.124806,-0.713334,0.667584
1631204143852,0.123708,-0.714859,0.667584
1631204143862,0.124074,-0.713944,0.668438
1631204143872,0.12364699999999999,-0.713517,0.668438
1631204143881,0.123098,-0.7137,0.668682
1631204143891,0.123464,-0.7137,0.668316
1631204143900,0.12383,-0.713822,0.667828
1631204143910,0.123098,-0.713822,0.668621
1631204143920,0.124013,-0.713395,0.667462
1631204143929,0.123586,-0.713029,0.667462
1631204143939,0.124318,-0.712602,0.667401
1631204143948,0.124379,-0.713212,0.6667299999999999
1631204143958,0.124013,-0.714127,0.6673399999999999
1631204143968,0.123708,-0.714554,0.667218
1631204143977,0.124074,-0.714371,0.666547
1631204143987,0.123464,-0.7141879999999999,0.6667299999999999
1631204143996,0.122976,-0.714737,0.666974
1631204144006,0.12505,-0.715652,0.666242
1631204144016,0.124623,-0.715469,0.666852
1631204144025,0.124318,-0.715957,0.666669
1631204144035,0.125416,-0.714371,0.667218
1631204144044,0.125172,-0.713639,0.6667299999999999
1631204144054,0.125416,-0.713517,0.6670349999999999
1631204144064,0.12456199999999999,-0.713151,0.667462
1631204144073,0.12456199999999999,-0.712541,0.6676449999999999
1631204144083,0.124379,-0.7129679999999999,0.667584
1631204144092,0.124379,-0.712114,0.667401
1631204144102,0.124379,-0.712114,0.667096
1631204144112,0.124318,-0.712602,0.667157
1631204144121,0.125294,-0.713212,0.666547
1631204144131,0.125538,-0.712541,0.667157
1631204144140,0.126514,-0.713761,0.667462
1631204144150,0.127185,-0.713822,0.667096
1631204144160,0.126514,-0.713944,0.6667299999999999
1631204144169,0.127429,-0.713517,0.666913
1631204144179,0.127795,-0.7137,0.666364
1631204144188,0.127124,-0.713517,0.666547
1631204144198,0.127734,-0.712846,0.6667299999999999
1631204144208,0.127429,-0.71309,0.665632
1631204144217,0.127368,-0.7135779999999999,0.665022
1631204144227,0.127978,-0.713944,0.6642899999999999
1631204144236,0.127551,-0.7157129999999999,0.663436
1631204144246,0.127246,-0.714737,0.663314
1631204144256,0.127551,-0.716079,0.663802
1631204144265,0.127612,-0.71675,0.664961
1631204144275,0.127795,-0.716445,0.6655099999999999
1631204144284,0.128039,-0.71675,0.665449
1631204144294,0.1281,-0.71675,0.667584
1631204144304,0.127978,-0.7160179999999999,0.668377
1631204144313,0.127673,-0.715774,0.668743
1631204144323,0.127063,-0.71431,0.667096
1631204144332,0.126148,-0.713944,0.666059
1631204144342,0.12688,-0.714371,0.6673399999999999
1631204144352,0.127856,-0.714371,0.668194
1631204144361,0.127551,-0.712236,0.667523
1631204144371,0.127246,-0.710772,0.667767
1631204144380,0.127307,-0.71187,0.670207
1631204144390,0.129381,-0.712846,0.672159
1631204144400,0.129686,-0.711565,0.671061
1631204144409,0.12864899999999999,-0.710467,0.666669
1631204144419,0.128161,-0.710284,0.661972
1631204144428,0.12871,-0.710955,0.660813
1631204144438,0.129808,-0.711687,0.6624599999999999
1631204144448,0.129625,-0.712541,0.662948
1631204144457,0.12925899999999999,-0.714432,0.664656
1631204144467,0.130235,-0.715042,0.664839
1631204144476,0.129442,-0.715652,0.664229
1631204144486,0.128893,-0.7169329999999999,0.663009
1631204144496,0.12895399999999999,-0.717299,0.6621549999999999
1631204144505,0.128466,-0.718519,0.6621549999999999
1631204144515,0.128222,-0.718519,0.662582
1631204144524,0.1281,-0.71736,0.6636799999999999
1631204144534,0.12749,-0.716994,0.664107
1631204144544,0.127002,-0.716384,0.665083
1631204144553,0.127307,-0.71614,0.666852
1631204144563,0.126819,-0.71492,0.6688649999999999
1631204144572,0.125538,-0.714371,0.668194
1631204144582,0.125294,-0.713212,0.6685599999999999
1631204144592,0.125538,-0.7129679999999999,0.668194
1631204144601,0.124684,-0.712907,0.669536
1631204144611,0.124623,-0.712602,0.670207
1631204144620,0.126148,-0.711382,0.668804
1631204144630,0.125538,-0.710467,0.6667299999999999
1631204144640,0.126209,-0.711077,0.6670349999999999
1631204144649,0.127795,-0.7123579999999999,0.667523
1631204144659,0.12895399999999999,-0.713395,0.667706
1631204144668,0.130662,-0.7137,0.668621
1631204144678,0.129625,-0.713212,0.665571
1631204144688,0.129198,-0.713517,0.662948
1631204144697,0.128832,-0.713517,0.662704
1631204144707,0.127978,-0.7129679999999999,0.6630699999999999
1631204144716,0.128222,-0.7138829999999999,0.663619
1631204144726,0.128893,-0.714066,0.664717
1631204144736,0.127917,-0.714554,0.665754
1631204144745,0.128161,-0.715957,0.666852
1631204144755,0.127063,-0.715835,0.6661199999999999
1631204144764,0.127612,-0.715591,0.667462
1631204144774,0.126697,-0.715896,0.666669
1631204144784,0.12566,-0.7154079999999999,0.666669
1631204144793,0.125294,-0.714554,0.6670349999999999
1631204144803,0.125538,-0.714005,0.667218
1631204144812,0.124745,-0.714005,0.668499
1631204144822,0.12425699999999999,-0.71309,0.667767
1631204144832,0.124135,-0.71248,0.668194
1631204144841,0.12383,-0.712846,0.668194
1631204144851,0.12285399999999999,-0.712602,0.667096
1631204144860,0.12383,-0.712236,0.6673399999999999
1631204144870,0.123891,-0.7123579999999999,0.6667299999999999
1631204144880,0.123098,-0.7137,0.6664249999999999
1631204144889,0.123098,-0.7141879999999999,0.666669
1631204144899,0.124135,-0.713944,0.666242
1631204144908,0.124318,-0.715042,0.666364
1631204144918,0.12395199999999999,-0.71431,0.6664249999999999
1631204144928,0.123586,-0.715286,0.667523
1631204144937,0.123098,-0.7147979999999999,0.666974
1631204144947,0.12322,-0.7151029999999999,0.666486
1631204144956,0.123586,-0.71431,0.667828
1631204144966,0.12224399999999999,-0.714127,0.667096
1631204144976,0.122122,-0.714005,0.667462
1631204144985,0.123098,-0.714005,0.667401
1631204144995,0.123769,-0.713944,0.6664249999999999
1631204145004,0.123891,-0.714554,0.665754
1631204145014,0.125111,-0.7135779999999999,0.666181
1631204145024,0.12444,-0.715164,0.666242
1631204145033,0.125416,-0.71553,0.665754
1631204145043,0.12486699999999999,-0.7154079999999999,0.664839
1631204145052,0.12566,-0.714981,0.664473
1631204145062,0.127429,-0.716079,0.664107
1631204145072,0.128039,-0.716201,0.663192
1631204145081,0.127734,-0.7172379999999999,0.6630699999999999
1631204145091,0.12834399999999999,-0.7172379999999999,0.662582
1631204145100,0.1281,-0.718214,0.662338
1631204145110,0.128466,-0.718702,0.661484
1631204145120,0.128161,-0.718824,0.662948
1631204145129,0.127429,-0.7184579999999999,0.662887
1631204145139,0.127856,-0.7184579999999999,0.662826
1631204145148,0.127307,-0.7178479999999999,0.662704
1631204145158,0.126941,-0.71858,0.662521
1631204145168,0.127063,-0.7175429999999999,0.663131
1631204145177,0.126819,-0.716811,0.6636799999999999
1631204145187,0.126392,-0.7163229999999999,0.6648999999999999
1631204145196,0.125965,-0.7166279999999999,0.665266
1631204145206,0.125538,-0.7172379999999999,0.666242
1631204145216,0.125904,-0.71675,0.667706
1631204145225,0.12566,-0.715896,0.6664249999999999
1631204145235,0.125416,-0.714981,0.665266
1631204145244,0.126148,-0.715591,0.665327
1631204145254,0.126758,-0.714859,0.666852
1631204145264,0.127124,-0.713639,0.665937
1631204145273,0.125904,-0.712419,0.664778
1631204145283,0.126636,-0.712114,0.666059
1631204145292,0.12932,-0.7137,0.6685599999999999
1631204145302,0.129808,-0.712846,0.666913
1631204145312,0.128588,-0.712114,0.663863
1631204145321,0.127246,-0.71187,0.659532
1631204145331,0.126819,-0.712114,0.657214
1631204145340,0.127368,-0.714066,0.659044
1631204145350,0.128161,-0.71614,0.660752
1631204145360,0.128466,-0.715957,0.6624599999999999
1631204145369,0.128527,-0.7178479999999999,0.664046
1631204145379,0.12834399999999999,-0.719312,0.6655099999999999
1631204145388,0.128222,-0.720227,0.665693
1631204145398,0.12834399999999999,-0.720532,0.664351
1631204145408,0.127734,-0.719922,0.663741
1631204145417,0.126941,-0.7184579999999999,0.663253
1631204145427,0.126392,-0.717055,0.662887
1631204145436,0.125965,-0.716079,0.664717
1631204145446,0.126514,-0.715835,0.666242
1631204145456,0.125294,-0.71431,0.668194
1631204145465,0.125782,-0.713639,0.668499
1631204145475,0.125294,-0.712724,0.668316
1631204145484,0.125416,-0.713029,0.667889
1631204145494,0.125904,-0.712541,0.669048
1631204145504,0.126331,-0.712297,0.6682549999999999
1631204145513,0.127002,-0.711382,0.668316
1631204145523,0.127124,-0.712419,0.667462
1631204145532,0.127246,-0.712541,0.666791
1631204145542,0.128832,-0.712724,0.6658149999999999
1631204145552,0.12956399999999998,-0.713151,0.666791
1631204145561,0.130235,-0.714127,0.6682549999999999
1631204145571,0.131394,-0.713639,0.6670349999999999
1631204145580,0.12986899999999998,-0.713944,0.665144
1631204145590,0.12932,-0.713761,0.663558
1631204145600,0.129015,-0.7137,0.662948
1631204145609,0.12932,-0.714066,0.663802
1631204145619,0.129137,-0.7129679999999999,0.665144
1631204145628,0.12895399999999999,-0.7123579999999999,0.666303
1631204145638,0.129076,-0.712236,0.667584
1631204145648,0.129137,-0.711992,0.668499
1631204145657,0.128588,-0.711504,0.670207
1631204145667,0.128222,-0.710772,0.670878
1631204145676,0.126819,-0.710284,0.669841
1631204145686,0.125294,-0.7096129999999999,0.668926
1631204145696,0.124806,-0.710345,0.668682
1631204145705,0.125416,-0.70943,0.6679499999999999
1631204145715,0.124928,-0.708576,0.6682549999999999
1631204145724,0.126392,-0.7099179999999999,0.669414
1631204145734,0.126575,-0.7108329999999999,0.6697799999999999
1631204145744,0.127429,-0.710711,0.668011
1631204145753,0.126453,-0.711626,0.668438
1631204145763,0.127063,-0.711809,0.667279
1631204145772,0.127124,-0.713029,0.6670349999999999
1631204145782,0.127124,-0.71309,0.6670349999999999
1631204145792,0.126209,-0.713517,0.6667299999999999
1631204145801,0.126636,-0.7138829999999999,0.666486
1631204145811,0.125538,-0.713517,0.666913
1631204145820,0.124806,-0.713212,0.6664249999999999
1631204145830,0.125477,-0.7137,0.666486
1631204145840,0.125477,-0.713517,0.667401
1631204145849,0.125843,-0.714005,0.666974
1631204145859,0.125355,-0.7138829999999999,0.667279
1631204145868,0.125294,-0.714676,0.6670349999999999
1631204145878,0.124623,-0.714127,0.667096
1631204145888,0.12486699999999999,-0.7147979999999999,0.666791
1631204145897,0.124928,-0.714432,0.665876
1631204145907,0.125294,-0.715469,0.666242
1631204145916,0.124928,-0.71675,0.665998
1631204145926,0.126087,-0.717055,0.666486
1631204145936,0.126636,-0.7172379999999999,0.667157
1631204145945,0.126575,-0.717909,0.6661199999999999
1631204145955,0.126026,-0.7178479999999999,0.666059
1631204145964,0.126453,-0.716994,0.666486
1631204145974,0.126392,-0.7163229999999999,0.666669
1631204145984,0.126758,-0.715347,0.666974
1631204145993,0.126453,-0.715591,0.666364
1631204146003,0.126636,-0.715225,0.665754
1631204146012,0.127246,-0.713456,0.6664249999999999
1631204146022,0.126697,-0.713212,0.665571
1631204146032,0.127246,-0.711687,0.665144
1631204146041,0.127185,-0.712724,0.6648999999999999
1631204146051,0.128039,-0.713212,0.664839
1631204146060,0.128771,-0.7135779999999999,0.664778
1631204146070,0.128893,-0.713395,0.6652049999999999
1631204146080,0.12895399999999999,-0.713395,0.663924
1631204146089,0.128588,-0.71492,0.663741
1631204146099,0.128832,-0.714737,0.6636799999999999
1631204146108,0.127795,-0.715286,0.663863
1631204146118,0.127429,-0.715774,0.664107
1631204146128,0.12627,-0.71614,0.663924
1631204146137,0.126819,-0.715774,0.663741
1631204146147,0.126941,-0.715957,0.663314
1631204146156,0.126697,-0.716811,0.664778
1631204146166,0.127063,-0.715835,0.6667299999999999
1631204146176,0.126697,-0.714676,0.667401
1631204146185,0.125294,-0.714432,0.669109
1631204146195,0.126392,-0.715164,0.671122
1631204146204,0.126819,-0.714615,0.670878
1631204146214,0.124928,-0.7129679999999999,0.667706
1631204146224,0.124318,-0.712602,0.664778
1631204146233,0.124928,-0.7126629999999999,0.663741
1631204146243,0.125721,-0.713517,0.665388
1631204146252,0.126819,-0.7141879999999999,0.667706
1631204146262,0.126819,-0.714249,0.669109
1631204146272,0.127856,-0.714249,0.667706
1631204146281,0.12834399999999999,-0.714615,0.666974
1631204146291,0.128832,-0.715225,0.666242
1631204146300,0.127856,-0.7144929999999999,0.664534
1631204146310,0.127917,-0.7144929999999999,0.663802
1631204146320,0.128527,-0.713944,0.663802
1631204146329,0.1281,-0.714432,0.664534
1631204146339,0.128222,-0.713822,0.665998
1631204146348,0.12834399999999999,-0.712907,0.667157
1631204146358,0.12834399999999999,-0.7135779999999999,0.668133
1631204146368,0.1281,-0.713456,0.668804
1631204146377,0.129015,-0.712907,0.668377
1631204146387,0.128161,-0.713395,0.668438
1631204146396,0.127978,-0.712114,0.668621
1631204146406,0.1281,-0.7120529999999999,0.668804
1631204146416,0.127246,-0.7120529999999999,0.668499
1631204146425,0.126331,-0.710406,0.667828
1631204146435,0.126453,-0.710711,0.669658
1631204146444,0.128039,-0.711992,0.671854
1631204146454,0.128893,-0.71187,0.672769
1631204146464,0.12871,-0.711687,0.67283
1631204146473,0.1281,-0.710711,0.669292
1631204146483,0.128283,-0.709796,0.6652049999999999
1631204146492,0.127673,-0.710406,0.665266
1631204146502,0.129137,-0.7120529999999999,0.665022
1631204146512,0.13017399999999998,-0.712724,0.6676449999999999
1631204146521,0.12956399999999998,-0.7120529999999999,0.671488
1631204146531,0.12932,-0.71248,0.673745
1631204146540,0.12895399999999999,-0.713334,0.673928
1631204146550,0.130296,-0.71492,0.671122
1631204146560,0.129686,-0.716567,0.6676449999999999
1631204146569,0.12932,-0.71797,0.664412
1631204146579,0.127612,-0.717421,0.661911
1631204146588,0.127856,-0.718336,0.663192
1631204146598,0.126514,-0.718092,0.666852
1631204146608,0.126453,-0.7175429999999999,0.67222
1631204146617,0.125294,-0.716262,0.677405
1631204146627,0.12425699999999999,-0.714859,0.68137
1631204146636,0.12315899999999999,-0.71309,0.6840539999999999
1631204146646,0.120902,-0.71004,0.6819189999999999
1631204146656,0.118828,-0.707844,0.679052
1631204146665,0.116327,-0.70638,0.675636
1631204146675,0.117059,-0.704916,0.673989
1631204146684,0.11712,-0.703269,0.67832
1631204146694,0.11901099999999999,-0.702537,0.6816139999999999
1631204146704,0.121207,-0.702659,0.682712
1631204146713,0.124989,-0.703086,0.6861889999999999
1631204146723,0.127002,-0.70333,0.691862
1631204146732,0.12749,-0.701683,0.69784
1631204146742,0.128832,-0.698145,0.700219
1631204146752,0.127551,-0.693143,0.699914
1631204146761,0.126575,-0.687653,0.697779
1631204146771,0.12627,-0.685396,0.695766
1631204146780,0.125172,-0.683871,0.690398
1631204146790,0.125416,-0.681675,0.6849689999999999
1631204146800,0.12383,-0.681736,0.680882
1631204146809,0.123586,-0.6797839999999999,0.679235
1631204146819,0.121512,-0.677832,0.682651
1631204146828,0.119804,-0.67649,0.688812
1631204146838,0.11809599999999999,-0.673074,0.696925
1631204146848,0.115717,-0.670817,0.702293
1631204146857,0.114924,-0.667889,0.706014
1631204146867,0.111752,-0.665266,0.7083929999999999
1631204146876,0.113033,-0.6630699999999999,0.711321
1631204146886,0.112362,-0.662582,0.715896
1631204146896,0.112423,-0.662948,0.7198
1631204146905,0.112118,-0.664839,0.721813
1631204146915,0.111691,-0.665388,0.720959
1631204146924,0.1098,-0.664046,0.719678
1631204146934,0.106506,-0.6618499999999999,0.719129
1631204146944,0.104798,-0.658617,0.7166279999999999
1631204146953,0.10315099999999999,-0.654774,0.712236
1631204146963,0.103334,-0.651358,0.710406
1631204146972,0.104432,-0.649711,0.708515
1631204146982,0.106506,-0.648674,0.706929
1631204146992,0.10760399999999999,-0.64843,0.708515
1631204147001,0.108092,-0.650748,0.715225
1631204147011,0.108702,-0.65087,0.721569
1631204147020,0.10577399999999999,-0.650504,0.728096
1631204147030,0.10174799999999999,-0.650443,0.734135
1631204147040,0.098027,-0.650138,0.736819
1631204147049,0.093025,-0.648369,0.738954
1631204147059,0.088328,-0.646051,0.737856
1631204147068,0.087596,-0.644709,0.740601
1631204147078,0.08356999999999999,-0.645868,0.7357819999999999
1631204147088,0.083082,-0.646173,0.734501
1631204147097,0.081191,-0.64721,0.73444
1631204147107,0.07991,-0.647698,0.734013
1631204147116,0.07740899999999999,-0.648308,0.734806
1631204147126,0.075945,-0.647637,0.738588
1631204147136,0.074786,-0.645258,0.744627
1631204147145,0.073505,-0.644648,0.751337
1631204147155,0.072895,-0.644099,0.756949
1631204147164,0.071614,-0.642452,0.758352
1631204147174,0.07015,-0.642818,0.7616459999999999
1631204147184,0.069845,-0.6420859999999999,0.7628659999999999
1631204147193,0.066612,-0.641232,0.763842
1631204147203,0.065514,-0.640317,0.763232
1631204147212,0.062342,-0.637084,0.763232
1631204147222,0.060451,-0.633912,0.762988
1631204147232,0.059109,-0.629886,0.762439
1631204147241,0.058438,-0.625555,0.763415
1631204147251,0.057218,-0.621895,0.7643909999999999
1631204147260,0.057462,-0.617808,0.764208
1631204147270,0.057096,-0.612074,0.764757
1631204147280,0.056547,-0.605364,0.762439
1631204147289,0.055205,-0.602192,0.76311
1631204147299,0.053985,-0.604876,0.770247
1631204147308,0.051911,-0.608963,0.779763
1631204147318,0.051606,-0.609085,0.778421
1631204147328,0.053375,-0.606828,0.773968
1631204147337,0.05429,-0.606645,0.768905
1631204147347,0.053863,-0.606462,0.7619509999999999
1631204147356,0.056547,-0.605364,0.7567659999999999
1631204147366,0.057767,-0.607743,0.759145
1631204147376,0.055449,-0.610854,0.760487
1631204147385,0.056608,-0.6143919999999999,0.7643909999999999
1631204147395,0.056974,-0.6162219999999999,0.766587
1631204147404,0.055083,-0.6156119999999999,0.771833
1631204147414,0.052886999999999997,-0.612745,0.776103
1631204147424,0.049654,-0.607194,0.782386
1631204147433,0.04575,-0.601094,0.790499
1631204147443,0.044712999999999996,-0.594872,0.797453
1631204147452,0.041114,-0.588467,0.800625
1631204147462,0.037881,-0.583465,0.79971
1631204147472,0.036295,-0.576877,0.796477
1631204147481,0.033367,-0.5727289999999999,0.792451
1631204147491,0.033854999999999996,-0.568703,0.787571
1631204147500,0.033672,-0.567666,0.785558
1631204147510,0.033916,-0.567361,0.785436
1631204147520,0.035807,-0.5678489999999999,0.786534
1631204147529,0.036173,-0.56974,0.788303
1631204147539,0.038979,-0.569618,0.787083
1631204147548,0.036478,-0.569557,0.787876
1631204147558,0.037393,-0.570045,0.7884249999999999
1631204147568,0.037393,-0.569191,0.790682
1631204147577,0.03599,-0.569191,0.791658
1631204147587,0.032695999999999996,-0.5693739999999999,0.793671
1631204147596,0.031415,-0.568581,0.795623
1631204147606,0.028487,-0.567178,0.796355
1631204147616,0.028853,-0.569435,0.79788
1631204147625,0.028243,-0.569191,0.798612
1631204147635,0.027084,-0.570777,0.8002589999999999
1631204147644,0.026474,-0.57096,0.800442
1631204147654,0.026595999999999998,-0.5705939999999999,0.801662
1631204147664,0.024644,-0.5699839999999999,0.801906
1631204147673,0.025071,-0.569313,0.799161
1631204147683,0.02318,-0.568703,0.800686
1631204147692,0.024034,-0.568642,0.798612
1631204147702,0.022814,-0.5675439999999999,0.797636
1631204147712,0.021899,-0.56974,0.798551
1631204147721,0.022021,-0.5712039999999999,0.797819
1631204147731,0.021838,-0.571265,0.797392
1631204147740,0.018666,-0.572058,0.799527
1631204147750,0.017263,-0.572363,0.80032
1631204147760,0.015616,-0.573156,0.800381
1631204147769,0.014395999999999999,-0.572302,0.799832
1631204147779,0.01281,-0.573217,0.800808
1631204147788,0.012565999999999999,-0.5734,0.800137
1631204147798,0.012261,-0.573278,0.801357
1631204147808,0.010735999999999999,-0.573644,0.8017839999999999
1631204147817,0.010187,-0.575413,0.801662
1631204147827,0.009516,-0.575596,0.801601
1631204147836,0.007869,-0.57523,0.80093
1631204147846,0.0057339999999999995,-0.575169,0.800625
1631204147856,0.004575,-0.574315,0.7999539999999999
1631204147865,0.00244,-0.5734,0.799161
1631204147875,-0.000305,-0.573217,0.7993439999999999
1631204147884,-0.001769,-0.572058,0.800076
1631204147894,-0.003721,-0.571692,0.800076
1631204147904,-0.0042699999999999995,-0.573034,0.80093
1631204147913,-0.004758,-0.572851,0.800747
1631204147923,-0.006222,-0.572912,0.7993439999999999
1631204147932,-0.007503,-0.573583,0.79849
1631204147942,-0.00793,-0.573888,0.7996489999999999
1631204147952,-0.00915,-0.573278,0.7993439999999999
1631204147961,-0.010492,-0.572485,0.796599
1631204147971,-0.010126,-0.5715089999999999,0.796782
1631204147980,-0.010858,-0.57279,0.80093
1631204147990,-0.011712,-0.572058,0.800747
1631204148000,-0.014395999999999999,-0.57035,0.797392
1631204148009,-0.016714,-0.57096,0.794098
1631204148019,-0.0183,-0.572485,0.791231
1631204148028,-0.017934,-0.57401,0.7914749999999999
1631204148038,-0.018543999999999998,-0.57523,0.792207
1631204148048,-0.021167,-0.576572,0.792207
1631204148057,-0.024034,-0.576999,0.789828
1631204148067,-0.026962,-0.577609,0.788486
1631204148076,-0.027877,-0.58011,0.790133
1631204148086,-0.028731,-0.581696,0.791963
1631204148096,-0.027632999999999998,-0.584319,0.793915
1631204148105,-0.027389,-0.585295,0.794586
1631204148115,-0.02684,-0.586149,0.797209
1631204148124,-0.025863999999999998,-0.587979,0.798551
1631204148134,-0.02623,-0.589199,0.796782
1631204148144,-0.025681,-0.589626,0.795623
1631204148153,-0.024704999999999998,-0.58987,0.795196
1631204148163,-0.025436999999999998,-0.589321,0.795806
1631204148172,-0.025376,-0.587186,0.792878
1631204148182,-0.025986,-0.586332,0.793305
1631204148192,-0.02501,-0.5866979999999999,0.792756
1631204148201,-0.023607,-0.58499,0.792329
1631204148211,-0.023058,-0.584685,0.791414
1631204148220,-0.022448,-0.584807,0.7899499999999999
1631204148230,-0.021838,-0.58621,0.7896449999999999
1631204148240,-0.020557,-0.586454,0.791109
1631204148249,-0.018361,-0.5876129999999999,0.79361
1631204148259,-0.017506999999999998,-0.58682,0.794708
1631204148268,-0.018239,-0.586881,0.792451
1631204148278,-0.019215,-0.58743,0.7890349999999999
1631204148288,-0.018117,-0.586942,0.785863
1631204148297,-0.017385,-0.5856,0.786046
1631204148307,-0.015127999999999999,-0.586027,0.784094
1631204148316,-0.015921,-0.584502,0.785924
1631204148326,-0.015493999999999999,-0.582672,0.787022
1631204148336,-0.014945,-0.582733,0.787388
1631204148345,-0.012871,-0.582672,0.787449
1631204148355,-0.014274,-0.582611,0.786656
1631204148364,-0.014761999999999999,-0.5839529999999999,0.782264
1631204148374,-0.01525,-0.5851729999999999,0.780922
1631204148384,-0.016287,-0.5860879999999999,0.780983
1631204148393,-0.015738,-0.587796,0.781776
1631204148403,-0.016836,-0.589016,0.783118
1631204148412,-0.017079999999999998,-0.588772,0.783301
1631204148422,-0.017934,-0.589321,0.783484
1631204148432,-0.020862,-0.589016,0.783606
1631204148441,-0.022143,-0.58926,0.783362
1631204148451,-0.024339,-0.588589,0.786351
1631204148460,-0.025925,-0.588894,0.7878149999999999
1631204148470,-0.02623,-0.589077,0.789462
1631204148480,-0.026779,-0.59048,0.789706
1631204148489,-0.026168999999999998,-0.590846,0.789279
1631204148499,-0.027206,-0.591822,0.7899499999999999
1631204148508,-0.025986,-0.5918829999999999,0.788242
1631204148518,-0.026413,-0.5927979999999999,0.787144
1631204148528,-0.025742,-0.592615,0.786717
1631204148537,-0.02562,-0.593347,0.786046
1631204148547,-0.025193,-0.5943229999999999,0.7841549999999999
1631204148556,-0.023851,-0.594506,0.785131
1631204148566,-0.023972999999999998,-0.595177,0.784216
1631204148576,-0.02257,-0.595299,0.784643
1631204148585,-0.021045,-0.595909,0.783789
1631204148595,-0.022082,-0.596946,0.783179
1631204148604,-0.02135,-0.5970679999999999,0.7820199999999999
1631204148614,-0.020618,-0.597861,0.782142
1631204148624,-0.020252,-0.598776,0.7823249999999999
1631204148633,-0.019581,-0.599752,0.781288
1631204148643,-0.018727,-0.600057,0.781288
1631204148652,-0.017995,-0.601033,0.780007
1631204148662,-0.017751,-0.600972,0.780678
1631204148672,-0.016836,-0.600179,0.7798849999999999
1631204148681,-0.017629,-0.599264,0.780312
1631204148691,-0.018239,-0.597617,0.780922
1631204148700,-0.019825,-0.597617,0.780617
1631204148710,-0.018605,-0.597007,0.780068
1631204148720,-0.017934,-0.597373,0.779824
1631204148729,-0.017385,-0.597556,0.779702
1631204148739,-0.018178,-0.598898,0.779336
1631204148748,-0.016774999999999998,-0.598776,0.778848
1631204148758,-0.016653,-0.600545,0.777872
1631204148768,-0.017263,-0.599691,0.777933
1631204148777,-0.017263,-0.59902,0.778238
1631204148787,-0.018849,-0.5978,0.7771399999999999
1631204148796,-0.020496,-0.5961529999999999,0.776408
1631204148806,-0.02013,-0.594994,0.776896
1631204148816,-0.018849,-0.5958479999999999,0.7765299999999999
1631204148825,-0.019093,-0.596397,0.778482
1631204148835,-0.019215,-0.597373,0.777811
1631204148844,-0.01952,-0.598288,0.780434
1631204148854,-0.018543999999999998,-0.600606,0.782569
1631204148864,-0.017079999999999998,-0.60146,0.781837
1631204148873,-0.017506999999999998,-0.601826,0.778604
1631204148883,-0.018178,-0.601521,0.774761
1631204148892,-0.01891,-0.600911,0.77287
1631204148902,-0.018543999999999998,-0.600789,0.77348
1631204148912,-0.018422,-0.601338,0.775066
1631204148921,-0.018605,-0.602558,0.776408
1631204148931,-0.018239,-0.602741,0.775432
1631204148940,-0.017506999999999998,-0.602985,0.775554
1631204148950,-0.017141,-0.602619,0.776713
1631204148960,-0.016958,-0.603168,0.775859
1631204148969,-0.016409,-0.604083,0.7746999999999999
1631204148979,-0.01647,-0.604327,0.772382
1631204148988,-0.016409,-0.603168,0.771223
1631204148998,-0.017324,-0.603595,0.770125
1631204149008,-0.016897,-0.604571,0.769698
1631204149017,-0.016653,-0.605791,0.771589
1631204149027,-0.015616,-0.605913,0.77409
1631204149036,-0.014395999999999999,-0.607804,0.77409
1631204149046,-0.014029999999999999,-0.6089019999999999,0.775798
1631204149056,-0.013054,-0.610854,0.774639
1631204149065,-0.012993,-0.612013,0.773846
1631204149075,-0.012017,-0.612806,0.77348
1631204149084,-0.011833999999999999,-0.612928,0.770125
1631204149094,-0.011773,-0.6125619999999999,0.768783
1631204149104,-0.012444,-0.613294,0.769942
1631204149113,-0.010003999999999999,-0.61305,0.770247
1631204149123,-0.010492,-0.613721,0.769759
1631204149132,-0.00976,-0.613599,0.767807
1631204149142,-0.009271999999999999,-0.613294,0.765794
1631204149152,-0.008418,-0.613416,0.7640859999999999
1631204149161,-0.009271999999999999,-0.613355,0.763903
1631204149171,-0.009089,-0.613538,0.765672
1631204149180,-0.010003999999999999,-0.6125619999999999,0.76494
1631204149190,-0.010735999999999999,-0.612501,0.766648
1631204149200,-0.012261,-0.612135,0.767258
1631204149209,-0.011956,-0.613416,0.7674409999999999
1631204149219,-0.011163,-0.613599,0.76677
1631204149228,-0.011224,-0.615795,0.766038
1631204149238,-0.011041,-0.615856,0.764208
1631204149248,-0.010675,-0.617808,0.763903
1631204149257,-0.010248,-0.619089,0.763293
1631204149267,-0.008905999999999999,-0.618845,0.7628659999999999
1631204149276,-0.009394,-0.6201869999999999,0.762683
1631204149286,-0.009089,-0.621346,0.762744
1631204149296,-0.010065,-0.6204919999999999,0.76311
1631204149305,-0.010614,-0.6195769999999999,0.762744
1631204149315,-0.011651,-0.619028,0.7622559999999999
1631204149324,-0.012565999999999999,-0.619638,0.761463
1631204149334,-0.01159,-0.620675,0.761219
1631204149344,-0.011651,-0.621224,0.761097
1631204149353,-0.011163,-0.622261,0.761402
1631204149363,-0.011041,-0.622932,0.7601209999999999
1631204149372,-0.011712,-0.623542,0.758718
1631204149382,-0.012261,-0.623908,0.7601209999999999
1631204149392,-0.012627,-0.624518,0.760243
1631204149401,-0.011773,-0.625067,0.7601209999999999
1631204149411,-0.011895,-0.625006,0.760609
1631204149420,-0.010735999999999999,-0.625128,0.76006
1631204149430,-0.011041,-0.625494,0.760304
1631204149440,-0.009943,-0.626714,0.760182
1631204149449,-0.009271999999999999,-0.626226,0.759633
1631204149459,-0.009699,-0.626043,0.759633
1631204149468,-0.010553,-0.625799,0.759999
1631204149478,-0.011773,-0.623908,0.759267
1631204149488,-0.011651,-0.622993,0.759572
1631204149497,-0.011773,-0.624213,0.7582909999999999
1631204149507,-0.01159,-0.625555,0.757925
1631204149516,-0.010919,-0.624335,0.757437
1631204149526,-0.010492,-0.62586,0.757559
1631204149536,-0.010003999999999999,-0.627202,0.758779
1631204149545,-0.010065,-0.62769,0.758657
1631204149555,-0.00915,-0.628239,0.758474
1631204149564,-0.009943,-0.627751,0.759084
1631204149574,-0.010248,-0.627446,0.758779
1631204149584,-0.010369999999999999,-0.627019,0.7595109999999999
1631204149593,-0.009637999999999999,-0.626897,0.7604259999999999
1631204149603,-0.009699,-0.626592,0.759877
1631204149612,-0.008967,-0.627202,0.7592059999999999
1631204149622,-0.008235,-0.62647,0.759328
1631204149632,-0.008052,-0.627568,0.759572
1631204149641,-0.008113,-0.626836,0.758657
1631204149651,-0.008418,-0.626287,0.756949
1631204149660,-0.007991,-0.626165,0.755973
1631204149670,-0.007869,-0.626104,0.756278
1631204149680,-0.0071979999999999995,-0.62525,0.756827
1631204149689,-0.007991,-0.624396,0.756644
1631204149699,-0.007259,-0.624457,0.758352
1631204149708,-0.006344,-0.624884,0.7616459999999999
1631204149718,-0.00549,-0.625372,0.761524
1631204149728,-0.0059169999999999995,-0.625128,0.759267
1631204149737,-0.0068319999999999995,-0.624518,0.755485
1631204149747,-0.006954,-0.624884,0.752313
1631204149756,-0.005795,-0.626043,0.752862
1631204149766,-0.0044529999999999995,-0.627995,0.753899
1631204149776,-0.004575,-0.629093,0.754509
1631204149785,-0.004209,-0.628483,0.753777
1631204149795,-0.004209,-0.629154,0.754875
1631204149804,-0.0028669999999999998,-0.628727,0.755607
1631204149814,-0.00366,-0.629032,0.755912
1631204149824,-0.003538,-0.628849,0.7549359999999999
1631204149833,-0.002989,-0.628788,0.7543259999999999
1631204149843,-0.0034159999999999998,-0.62891,0.753594
1631204149852,-0.004026,-0.630008,0.7534109999999999
1631204149862,-0.0025009999999999998,-0.62952,0.754265
1631204149872,-0.002745,-0.630008,0.756217
1631204149881,-0.002074,-0.630252,0.756888
1631204149891,-0.003172,-0.628971,0.757132
1631204149900,-0.003538,-0.629276,0.757437
1631204149910,-0.0034159999999999998,-0.629032,0.756888
1631204149920,-0.002745,-0.627141,0.757132
1631204149929,-0.0034159999999999998,-0.627385,0.757803
1631204149939,-0.002806,-0.627324,0.7558509999999999
1631204149948,-0.0018909999999999999,-0.627385,0.754204
1631204149958,-0.002013,-0.627202,0.754814
1631204149968,-0.0015249999999999999,-0.629093,0.755363
1631204149977,-6.1e-05,-0.628483,0.756522
1631204149987,0.000366,-0.627995,0.7582909999999999
1631204149996,-0.00122,-0.627507,0.7558509999999999
1631204150006,-0.0006709999999999999,-0.626714,0.75396
1631204150016,-0.0013419999999999999,-0.627568,0.751642
1631204150025,-0.0021349999999999997,-0.6283,0.750056
1631204150035,-0.002196,-0.630069,0.74786
1631204150044,-0.0030499999999999998,-0.63135,0.748653
1631204150054,-0.003355,-0.632265,0.751093
1631204150064,-0.003721,-0.63135,0.753838
1631204150073,-0.003843,-0.631106,0.755912
1631204150083,-0.005246,-0.629642,0.758657
1631204150092,-0.003843,-0.62891,0.75945
1631204150102,-0.003843,-0.628849,0.760853
1631204150112,-0.004209,-0.629276,0.760365
1631204150121,-0.004026,-0.628788,0.7592059999999999
1631204150131,-0.0035989999999999998,-0.629825,0.7582909999999999
1631204150140,-0.003843,-0.630008,0.7564
1631204150150,-0.00366,-0.629825,0.754814
1631204150160,-0.002989,-0.63013,0.753472
1631204150169,-0.003538,-0.63074,0.750788
1631204150179,-0.002745,-0.63013,0.750605
1631204150188,-0.002745,-0.630862,0.751642
1631204150198,-0.003294,-0.630496,0.75213
1631204150208,-0.00244,-0.630557,0.752313
1631204150217,-0.003843,-0.6317159999999999,0.751703
1631204150227,-0.003294,-0.631411,0.752435
1631204150236,-0.0034159999999999998,-0.631533,0.7534109999999999
1631204150246,-0.00244,-0.632265,0.753228
1631204150256,-0.0023179999999999997,-0.63257,0.753228
1631204150265,-0.0017079999999999999,-0.633424,0.753228
1631204150275,-0.002379,-0.632143,0.753655
1631204150284,-0.002196,-0.6323259999999999,0.754509
1631204150294,-0.00183,-0.631228,0.755729
1631204150304,-0.001098,-0.630313,0.755424
1631204150313,-0.002013,-0.630313,0.756034
1631204150323,-0.002196,-0.628971,0.755424
1631204150332,-0.0023179999999999997,-0.629032,0.7564609999999999
1631204150342,-0.002562,-0.628544,0.75518
1631204150352,-0.002806,-0.627202,0.755058
1631204150361,-0.004331,-0.627385,0.755363
1631204150371,-0.004026,-0.626287,0.755912
1631204150380,-0.005124,-0.625433,0.756522
1631204150390,-0.005124,-0.624762,0.757559
1631204150400,-0.00488,-0.62464,0.758535
1631204150409,-0.005063,-0.624884,0.757864
1631204150419,-0.004941,-0.624274,0.757925
1631204150428,-0.004514,-0.624945,0.757193
1631204150438,-0.003843,-0.625128,0.757498
1631204150448,-0.003294,-0.625738,0.756522
1631204150457,-0.002928,-0.626043,0.756644
1631204150467,-0.0028669999999999998,-0.626531,0.757315
1631204150476,-0.0030499999999999998,-0.627385,0.758047
1631204150486,-0.00366,-0.626714,0.75762
1631204150496,-0.004148,-0.626592,0.757742
1631204150505,-0.0055509999999999995,-0.625799,0.760182
1631204150515,-0.006344,-0.625128,0.760487
1631204150524,-0.0060999999999999995,-0.623969,0.760304
1631204150534,-0.006222,-0.622261,0.75823
1631204150544,-0.0059169999999999995,-0.623542,0.760487
1631204150553,-0.006405,-0.623542,0.7610359999999999
1631204150563,-0.005978,-0.622871,0.76067
1631204150572,-0.0064659999999999995,-0.621956,0.760487
1631204150582,-0.006039,-0.622993,0.763598
1631204150592,-0.0050019999999999995,-0.623481,0.7653059999999999
1631204150601,-0.004392,-0.622688,0.762927
1631204150611,-0.0071979999999999995,-0.6201869999999999,0.75945
1631204150620,-0.007259,-0.6198819999999999,0.755485
1631204150630,-0.007808,-0.6207969999999999,0.755424
1631204150640,-0.007259,-0.6222,0.756095
1631204150649,-0.006771,-0.623908,0.757803
1631204150659,-0.006344,-0.623725,0.7592059999999999
1631204150668,-0.0062829999999999995,-0.624701,0.758962
1631204150678,-0.0050019999999999995,-0.626531,0.75945
1631204150688,-0.0055509999999999995,-0.627446,0.7582909999999999
1631204150697,-0.0059169999999999995,-0.628056,0.7582909999999999
1631204150707,-0.006161,-0.628117,0.757254
1631204150716,-0.0073809999999999995,-0.627202,0.755363
1631204150726,-0.009394,-0.625189,0.754997
1631204150736,-0.010248,-0.625372,0.756644
1631204150745,-0.010492,-0.624213,0.7592059999999999
1631204150755,-0.009637999999999999,-0.624274,0.761158
1631204150764,-0.010003999999999999,-0.62342,0.762073
1631204150774,-0.010369999999999999,-0.624091,0.762012
1631204150784,-0.010003999999999999,-0.623603,0.761524
1631204150793,-0.009699,-0.623298,0.7619509999999999
1631204150803,-0.009882,-0.623847,0.760609
1631204150812,-0.009271999999999999,-0.623481,0.75945
1631204150822,-0.009394,-0.62403,0.758535
1631204150832,-0.009882,-0.623359,0.756644
1631204150841,-0.008784,-0.623603,0.758108
1631204150851,-0.007076,-0.625311,0.759633
1631204150860,-0.007442,-0.624701,0.761158
1631204150870,-0.007503,-0.624152,0.7598159999999999
1631204150880,-0.006588,-0.623786,0.755668
1631204150889,-0.006893,-0.623786,0.7552409999999999
1631204150899,-0.0059169999999999995,-0.625433,0.755485
1631204150908,-0.005612,-0.626104,0.7549359999999999
1631204150918,-0.00488,-0.626531,0.755729
1631204150928,-0.005246,-0.62708,0.755424
1631204150937,-0.004575,-0.628178,0.756644
1631204150947,-0.004758,-0.628239,0.756095
1631204150956,-0.003843,-0.628788,0.756644
1631204150966,-0.0055509999999999995,-0.628239,0.756644
1631204150976,-0.005978,-0.627812,0.7564
1631204150985,-0.0070149999999999995,-0.62769,0.756705
1631204150995,-0.0066489999999999995,-0.627995,0.7573759999999999
1631204151004,-0.0068319999999999995,-0.627934,0.757803
1631204151014,-0.0060999999999999995,-0.62891,0.758047
1631204151024,-0.006527,-0.6283,0.7589009999999999
1631204151033,-0.0059169999999999995,-0.628544,0.759023
1631204151043,-0.0057339999999999995,-0.628605,0.757742
1631204151052,-0.006527,-0.626653,0.75701
1631204151062,-0.0071979999999999995,-0.626226,0.7564
1631204151072,-0.0075639999999999995,-0.626653,0.7558509999999999
1631204151081,-0.00793,-0.625738,0.7549359999999999
1631204151091,-0.008173999999999999,-0.626836,0.75457
1631204151100,-0.007076,-0.62708,0.754997
1631204151110,-0.007625,-0.627568,0.755668
1631204151120,-0.0068319999999999995,-0.627873,0.756217
1631204151129,-0.006954,-0.629154,0.757254
1631204151139,-0.0068319999999999995,-0.628971,0.759328
1631204151148,-0.0071979999999999995,-0.629398,0.758352
1631204151158,-0.007625,-0.629032,0.758352
1631204151168,-0.006954,-0.628361,0.7589009999999999
1631204151177,-0.007503,-0.626531,0.757803
1631204151187,-0.008173999999999999,-0.624457,0.75762
1631204151196,-0.008905999999999999,-0.624152,0.757132
1631204151206,-0.00915,-0.624823,0.758657
1631204151216,-0.008784,-0.623969,0.759084
1631204151225,-0.008173999999999999,-0.624152,0.75945
1631204151235,-0.007076,-0.623725,0.759877
1631204151244,-0.007442,-0.62403,0.760548
1631204151254,-0.0070149999999999995,-0.622871,0.761097
1631204151264,-0.00671,-0.623359,0.7598159999999999
1631204151273,-0.006161,-0.622322,0.759755
1631204151283,-0.006344,-0.622749,0.7592059999999999
1631204151292,-0.005612,-0.623176,0.757315
1631204151302,-0.0046359999999999995,-0.622749,0.757498
1631204151312,-0.004392,-0.624335,0.756827
1631204151321,-0.003904,-0.623786,0.755973
1631204151331,-0.003843,-0.624091,0.756095
1631204151340,-0.00366,-0.625006,0.7573759999999999
1631204151350,-0.003965,-0.624152,0.759023
1631204151360,-0.0034159999999999998,-0.624579,0.7607309999999999
1631204151369,-0.004209,-0.624579,0.760609
1631204151379,-0.0030499999999999998,-0.623908,0.760548
1631204151388,-0.0035989999999999998,-0.623847,0.760914
1631204151398,-0.003721,-0.623542,0.76067
1631204151408,-0.0037819999999999998,-0.624396,0.76128
1631204151417,-0.0048189999999999995,-0.623786,0.762744
1631204151427,-0.005978,-0.621224,0.760853
1631204151436,-0.005124,-0.621956,0.761158
1631204151446,-0.00488,-0.621346,0.7631709999999999
1631204151456,-0.0046359999999999995,-0.619699,0.7628659999999999
1631204151465,-0.005978,-0.61732,0.7616459999999999
1631204151475,-0.00671,-0.617991,0.7625
1631204151484,-0.00549,-0.62037,0.7659159999999999
1631204151494,-0.004941,-0.620431,0.7662209999999999
1631204151504,-0.005856,-0.619333,0.7613409999999999
1631204151513,-0.006954,-0.6195769999999999,0.757254
1631204151523,-0.005063,-0.621468,0.755668
1631204151532,-0.004331,-0.622932,0.757437
1631204151542,-0.0040869999999999995,-0.623054,0.759877
1631204151552,-0.003355,-0.62464,0.7607309999999999
1631204151561,-0.003965,-0.623969,0.7613409999999999
1631204151571,-0.004758,-0.623786,0.760914
1631204151580,-0.004514,-0.624274,0.759938
1631204151590,-0.00488,-0.624823,0.760243
1631204151600,-0.005429,-0.624457,0.759328
1631204151609,-0.00549,-0.623969,0.758962
1631204151619,-0.006527,-0.622627,0.7579859999999999
1631204151628,-0.0053679999999999995,-0.622383,0.75884
1631204151638,-0.005978,-0.622566,0.759755
1631204151648,-0.004148,-0.622932,0.759999
1631204151657,-0.0046359999999999995,-0.622566,0.76067
1631204151667,-0.0051849999999999995,-0.623298,0.762012
1631204151676,-0.004941,-0.623603,0.7616459999999999
1631204151686,-0.0048189999999999995,-0.623603,0.76189
1631204151696,-0.004514,-0.622688,0.7610359999999999
1631204151705,-0.0042699999999999995,-0.623115,0.760792
1631204151715,-0.0032329999999999998,-0.622871,0.758352
1631204151724,-0.0028669999999999998,-0.623664,0.7573759999999999
1631204151734,-0.002928,-0.624213,0.759023
1631204151744,-0.001464,-0.625128,0.760182
1631204151753,0.000122,-0.624945,0.7610359999999999
1631204151763,0.001037,-0.624762,0.759999
1631204151772,-0.0008539999999999999,-0.624152,0.756827
1631204151782,-0.000549,-0.623481,0.755485
1631204151792,-0.000732,-0.624518,0.755302
1631204151801,-0.00122,-0.624152,0.755485
1631204151811,-0.000915,-0.62403,0.757254
1631204151820,-0.0015249999999999999,-0.624579,0.759389
1631204151830,-0.000183,-0.62464,0.7592059999999999
1631204151840,-0.000976,-0.624945,0.7595109999999999
1631204151849,-0.001769,-0.625555,0.7601209999999999
1631204151859,-0.001586,-0.62586,0.759267
1631204151868,-0.002989,-0.625799,0.758718
1631204151878,-0.0028669999999999998,-0.625067,0.7598159999999999
1631204151888,-0.002806,-0.62647,0.7592059999999999
1631204151897,-0.003721,-0.62525,0.7589009999999999
1631204151907,-0.004209,-0.624457,0.758108
1631204151916,-0.003843,-0.624518,0.759328
1631204151926,-0.004026,-0.625128,0.75884
1631204151936,-0.004575,-0.624762,0.759145
1631204151945,-0.004209,-0.625189,0.759084
1631204151955,-0.004331,-0.625006,0.758718
1631204151964,-0.005246,-0.625738,0.7576809999999999
1631204151974,-0.004392,-0.625921,0.7576809999999999
1631204151984,-0.0050019999999999995,-0.625921,0.757498
1631204151993,-0.004392,-0.626653,0.757132
1631204152003,-0.003904,-0.626287,0.757254
1631204152012,-0.0042699999999999995,-0.62647,0.757437
1631204152022,-0.002989,-0.62647,0.7582909999999999
1631204152032,-0.003843,-0.627141,0.759328
1631204152041,-0.003172,-0.626958,0.7585959999999999
1631204152051,-0.0037819999999999998,-0.627019,0.75823
1631204152060,-0.003965,-0.626287,0.758108
1631204152070,-0.0037819999999999998,-0.627324,0.757742
1631204152080,-0.002989,-0.626775,0.758962
1631204152089,-0.003172,-0.626592,0.7582909999999999
1631204152099,-0.0025009999999999998,-0.626409,0.759084
1631204152108,-0.002013,-0.626348,0.759145
1631204152118,-0.002257,-0.626104,0.7582909999999999
1631204152128,-0.001464,-0.626165,0.758169
1631204152137,-0.000793,-0.626287,0.758657
1631204152147,0.000366,-0.625738,0.758535
1631204152156,0.0013419999999999999,-0.626226,0.7573759999999999
1631204152166,0.002562,-0.626775,0.757193
1631204152176,0.002745,-0.626775,0.7564609999999999
1631204152185,0.0030499999999999998,-0.626897,0.755668
1631204152195,0.003965,-0.627507,0.754814
1631204152204,0.0042699999999999995,-0.627568,0.754204
1631204152214,0.0044529999999999995,-0.626836,0.754814
1631204152224,0.004392,-0.627629,0.755302
1631204152233,0.0048189999999999995,-0.627995,0.756278
1631204152243,0.004392,-0.628178,0.755973
1631204152252,0.004575,-0.627568,0.756705
1631204152262,0.005246,-0.628422,0.7558509999999999
1631204152272,0.005612,-0.628422,0.7567659999999999
1631204152281,0.0046359999999999995,-0.628605,0.757437
1631204152291,0.004514,-0.627507,0.7555459999999999
1631204152300,0.0037819999999999998,-0.626836,0.755058
1631204152310,0.0030499999999999998,-0.627202,0.754509
1631204152320,0.003355,-0.628117,0.756278
1631204152329,0.0040869999999999995,-0.627934,0.7585959999999999
1631204152339,0.0032329999999999998,-0.625982,0.757925
1631204152348,0.0030499999999999998,-0.626165,0.759877
1631204152358,0.0037819999999999998,-0.626775,0.761829
1631204152368,0.00488,-0.627141,0.76128
1631204152377,0.005124,-0.627446,0.757193
1631204152387,0.003965,-0.626592,0.754082
1631204152396,0.0051849999999999995,-0.62769,0.753594
1631204152406,0.005978,-0.629581,0.755058
1631204152416,0.0071979999999999995,-0.629886,0.757742
1631204152425,0.007503,-0.629093,0.75884
1631204152435,0.006405,-0.6283,0.75762
1631204152444,0.006222,-0.628605,0.755912
1631204152454,0.0062829999999999995,-0.628727,0.7546309999999999
1631204152464,0.006405,-0.627873,0.752984
1631204152473,0.00793,-0.628239,0.752252
1631204152483,0.00732,-0.628422,0.752923
1631204152492,0.007686,-0.628422,0.754387
1631204152502,0.008235,-0.628178,0.75579
1631204152512,0.008601,-0.62769,0.757315
1631204152521,0.008539999999999999,-0.62708,0.757742
1631204152531,0.008723,-0.627629,0.758169
1631204152540,0.008418,-0.627202,0.757864
1631204152550,0.008418,-0.626836,0.7570709999999999
1631204152560,0.009271999999999999,-0.627141,0.756705
1631204152569,0.010126,-0.627751,0.756034
1631204152579,0.010003999999999999,-0.627934,0.754875
1631204152588,0.010858,-0.627141,0.7524959999999999
1631204152598,0.010492,-0.62708,0.7555459999999999
1631204152608,0.012627,-0.627812,0.755973
1631204152617,0.012993,-0.6283,0.7579859999999999
1631204152627,0.012688,-0.6283,0.757315
1631204152636,0.012017,-0.628239,0.755058
1631204152646,0.012139,-0.628727,0.753533
1631204152656,0.01281,-0.629581,0.7540209999999999
1631204152665,0.011895,-0.629825,0.753777
1631204152675,0.01159,-0.629581,0.755424
1631204152684,0.012627,-0.629032,0.7555459999999999
1631204152694,0.012627,-0.628788,0.757559
1631204152704,0.013603,-0.628666,0.756949
1631204152713,0.013969,-0.628605,0.757559
1631204152723,0.013297999999999999,-0.628361,0.7564609999999999
1631204152732,0.013176,-0.627751,0.7564
1631204152742,0.013054,-0.627324,0.7558509999999999
1631204152752,0.012688,-0.627141,0.756522
1631204152761,0.011346,-0.625738,0.756827
1631204152771,0.011895,-0.625189,0.757803
1631204152780,0.011895,-0.625555,0.758657
1631204152790,0.013359,-0.626226,0.75884
1631204152800,0.013725,-0.625799,0.75823
1631204152809,0.013847,-0.62586,0.758108
1631204152819,0.013054,-0.625494,0.757315
1631204152828,0.013359,-0.625677,0.756522
1631204152838,0.013603,-0.626104,0.755485
1631204152848,0.013054,-0.626897,0.7549359999999999
1631204152857,0.012749,-0.628178,0.7543259999999999
1631204152867,0.013603,-0.628178,0.75457
1631204152876,0.013054,-0.629154,0.7540209999999999
1631204152886,0.014761999999999999,-0.629459,0.753655
1631204152896,0.014274,-0.630435,0.754509
1631204152905,0.014029999999999999,-0.630191,0.75518
1631204152915,0.014152,-0.629886,0.754997
1631204152924,0.013237,-0.62952,0.75457
1631204152934,0.012993,-0.629398,0.7549359999999999
1631204152944,0.012688,-0.629154,0.754997
1631204152953,0.01159,-0.628422,0.756339
1631204152963,0.01159,-0.628544,0.7567659999999999
1631204152972,0.012444,-0.627873,0.756888
1631204152982,0.011712,-0.626348,0.756705
1631204152992,0.013297999999999999,-0.626592,0.75762
1631204153001,0.012993,-0.626836,0.756949
1631204153011,0.013359,-0.626287,0.756949
1631204153020,0.013359,-0.626897,0.756522
1631204153030,0.013786,-0.626043,0.754814
1631204153040,0.012261,-0.626958,0.7546309999999999
1631204153049,0.013603,-0.627629,0.754204
1631204153059,0.014701,-0.628544,0.754143
1631204153068,0.014518,-0.629459,0.754753
1631204153078,0.014884,-0.630984,0.75457
1631204153088,0.013908,-0.631228,0.753594
1631204153097,0.015372,-0.631655,0.753472
1631204153107,0.016165,-0.631411,0.753777
1631204153116,0.016165,-0.632143,0.7534109999999999
1631204153126,0.015677,-0.632448,0.75396
1631204153136,0.015982,-0.631899,0.753899
1631204153145,0.016653,-0.631594,0.754753
1631204153155,0.016042999999999998,-0.631106,0.754875
1631204153164,0.015982,-0.630496,0.754692
1631204153174,0.015372,-0.630191,0.755912
1631204153184,0.014884,-0.630008,0.75396
1631204153193,0.015127999999999999,-0.628483,0.753228
1631204153203,0.014884,-0.628788,0.7537159999999999
1631204153212,0.015127999999999999,-0.62891,0.754753
1631204153222,0.014457,-0.627812,0.75518
1631204153232,0.01464,-0.627385,0.7558509999999999
1631204153241,0.014091,-0.6283,0.757437
1631204153251,0.01586,-0.629764,0.759389
1631204153260,0.016165,-0.630191,0.756705
1631204153270,0.015127999999999999,-0.62952,0.751764
1631204153280,0.015127999999999999,-0.62952,0.748775
1631204153289,0.015799,-0.630801,0.748714
1631204153299,0.016531,-0.631899,0.750422
1631204153308,0.015738,-0.631655,0.752923
1631204153318,0.015677,-0.631533,0.753899
1631204153328,0.014761999999999999,-0.632143,0.755058
1631204153337,0.014213,-0.632387,0.754448
1631204153347,0.014945,-0.632692,0.754204
1631204153356,0.014152,-0.633424,0.754082
1631204153366,0.014213,-0.6326309999999999,0.753289
1631204153376,0.013969,-0.632387,0.752923
1631204153385,0.012931999999999999,-0.631167,0.7537159999999999
1631204153395,0.013481,-0.631777,0.754265
1631204153404,0.013481,-0.631167,0.755485
1631204153414,0.013908,-0.630618,0.75579
1631204153424,0.014091,-0.629947,0.756095
1631204153433,0.013969,-0.629093,0.7558509999999999
1631204153443,0.014274,-0.62952,0.755058
1631204153452,0.013481,-0.629154,0.754143
1631204153462,0.01464,-0.629032,0.75335
1631204153472,0.015616,-0.629459,0.7537159999999999
1631204153481,0.016714,-0.630679,0.752008
1631204153491,0.016774999999999998,-0.631045,0.751642
1631204153500,0.017873,-0.631655,0.753838
1631204153510,0.018543999999999998,-0.632875,0.754875
1631204153520,0.019032,-0.632692,0.755912
1631204153529,0.02013,-0.633058,0.7552409999999999
1631204153539,0.018483,-0.632143,0.7524959999999999
1631204153548,0.018056,-0.631472,0.751032
1631204153558,0.017873,-0.630923,0.750056
1631204153568,0.017385,-0.631228,0.750483
1631204153577,0.017751,-0.630191,0.75152
1631204153587,0.018239,-0.630252,0.752435
1631204153596,0.017751,-0.630557,0.754082
1631204153606,0.017995,-0.629642,0.754509
1631204153616,0.018361,-0.630618,0.75457
1631204153625,0.018117,-0.629581,0.753533
1631204153635,0.017141,-0.630862,0.7534109999999999
1631204153644,0.01647,-0.630374,0.75274
1631204153654,0.016287,-0.630191,0.752252
1631204153664,0.01464,-0.631228,0.7521909999999999
1631204153673,0.01525,-0.63196,0.753045
1631204153683,0.015982,-0.6320209999999999,0.753777
1631204153692,0.015799,-0.632082,0.754509
1631204153702,0.015493999999999999,-0.6326309999999999,0.754875
1631204153712,0.01525,-0.632265,0.754997
1631204153721,0.015677,-0.6320209999999999,0.754387
1631204153731,0.01525,-0.630618,0.752252
1631204153740,0.015067,-0.632143,0.753045
1631204153750,0.014579,-0.631655,0.752313
1631204153760,0.014823,-0.632082,0.752252
1631204153769,0.013786,-0.6329359999999999,0.752069
1631204153779,0.014091,-0.633302,0.752435
1631204153788,0.01525,-0.633119,0.751703
1631204153798,0.015616,-0.633729,0.752069
1631204153808,0.015493999999999999,-0.6335459999999999,0.752313
1631204153817,0.015799,-0.6329359999999999,0.752923
1631204153827,0.01586,-0.63318,0.752313
1631204153836,0.015189,-0.632692,0.753289
1631204153846,0.014761999999999999,-0.632204,0.7528009999999999
1631204153856,0.01464,-0.632387,0.752313
1631204153865,0.014518,-0.6323259999999999,0.7521909999999999
1631204153875,0.015493999999999999,-0.632509,0.752374
1631204153884,0.015493999999999999,-0.632997,0.753655
1631204153894,0.016104,-0.632387,0.754143
1631204153904,0.01647,-0.632814,0.753472
1631204153913,0.016653,-0.632509,0.752679
1631204153923,0.016774999999999998,-0.63257,0.752923
1631204153932,0.017629,-0.632082,0.752313
1631204153942,0.018056,-0.6323259999999999,0.751703
1631204153952,0.018422,-0.6329359999999999,0.75213
1631204153961,0.018056,-0.632753,0.752618
1631204153971,0.018605,-0.632204,0.753228
1631204153980,0.018788,-0.632509,0.752374
1631204153990,0.018971,-0.632448,0.752069
1631204154000,0.019459,-0.6320209999999999,0.752252
1631204154009,0.019215,-0.632082,0.75274
1631204154019,0.018788,-0.632692,0.7524959999999999
1631204154028,0.019154,-0.6317159999999999,0.751825
1631204154038,0.018727,-0.631289,0.75152
1631204154048,0.019398,-0.632143,0.751093
1631204154057,0.019703,-0.632692,0.7518859999999999
1631204154067,0.020069,-0.6329359999999999,0.7524959999999999
1631204154076,0.018727,-0.63318,0.752435
1631204154086,0.018605,-0.632082,0.75213
1631204154096,0.019215,-0.6329359999999999,0.75335
1631204154105,0.019581,-0.63318,0.754509
1631204154115,0.018788,-0.6320209999999999,0.754875
1631204154124,0.01891,-0.629886,0.753655
1631204154134,0.018056,-0.629886,0.755424
1631204154144,0.019642,-0.63013,0.756705
1631204154153,0.020618,-0.630252,0.756705
1631204154163,0.019947,-0.628544,0.752618
1631204154172,0.018727,-0.628239,0.748104
1631204154182,0.019642,-0.629886,0.74664
1631204154192,0.020862,-0.631289,0.747067
1631204154201,0.021777,-0.632082,0.749324
1631204154211,0.02196,-0.633302,0.750117
1631204154220,0.021045,-0.634705,0.750361
1631204154230,0.021106,-0.635254,0.749324
1631204154240,0.022082,-0.6369009999999999,0.749995
1631204154249,0.021289,-0.637694,0.748531
1631204154259,0.022326,-0.639402,0.747555
1631204154268,0.021899,-0.639829,0.747555
1631204154278,0.021289,-0.6393409999999999,0.747982
1631204154288,0.020801,-0.640134,0.748897
1631204154297,0.019642,-0.638792,0.750483
1631204154307,0.018788,-0.63745,0.7518859999999999
1631204154316,0.019093,-0.6362909999999999,0.752252
1631204154326,0.018788,-0.635132,0.75213
1631204154336,0.018543999999999998,-0.634705,0.7509709999999999
1631204154345,0.017019,-0.633302,0.751337
1631204154355,0.017385,-0.634095,0.750605
1631204154364,0.018361,-0.633485,0.750178
1631204154374,0.018117,-0.633424,0.749751
1631204154384,0.018178,-0.6344,0.747616
1631204154393,0.018361,-0.634339,0.746884
1631204154403,0.019825,-0.636047,0.748287
1631204154412,0.020618,-0.6381209999999999,0.74908
1631204154422,0.021899,-0.638182,0.750361
1631204154432,0.020801,-0.640012,0.748165
1631204154441,0.021228,-0.639585,0.746823
1631204154451,0.021716,-0.639585,0.746457
1631204154460,0.021471999999999998,-0.640744,0.746274
1631204154470,0.022387,-0.640744,0.74603
1631204154480,0.02257,-0.640073,0.746518
1631204154489,0.022692,-0.639829,0.746701
1631204154499,0.02196,-0.63928,0.748104
1631204154508,0.022753,-0.637938,0.747433
1631204154518,0.021716,-0.637328,0.747311
1631204154528,0.021045,-0.636657,0.746274
1631204154537,0.020069,-0.635742,0.74603
1631204154547,0.020557,-0.635803,0.745725
1631204154556,0.019215,-0.635864,0.747189
1631204154566,0.019581,-0.6365959999999999,0.747921
1631204154576,0.019154,-0.636718,0.748653
1631204154585,0.018971,-0.6381209999999999,0.748165
1631204154595,0.01891,-0.638792,0.748104
1631204154604,0.019154,-0.639707,0.748043
1631204154614,0.019703,-0.641537,0.747433
1631204154624,0.019459,-0.64294,0.746884
1631204154633,0.020191,-0.64294,0.74603
1631204154643,0.020618,-0.643428,0.74542
1631204154652,0.020984,-0.643672,0.744566
1631204154662,0.020313,-0.644099,0.7434069999999999
1631204154672,0.020374,-0.643977,0.7434069999999999
1631204154681,0.019581,-0.643123,0.744505
1631204154691,0.019093,-0.642574,0.744871
1631204154700,0.019093,-0.641415,0.745115
1631204154710,0.018727,-0.6405609999999999,0.746213
1631204154720,0.017995,-0.640134,0.747677
1631204154729,0.017385,-0.6390359999999999,0.747799
1631204154739,0.017446,-0.639585,0.747555
1631204154748,0.018056,-0.638243,0.748958
1631204154758,0.018788,-0.6378159999999999,0.748897
1631204154768,0.017446,-0.63684,0.748775
1631204154777,0.017751,-0.6372059999999999,0.747555
1631204154787,0.018605,-0.638365,0.74786
1631204154796,0.019337,-0.638975,0.747921
1631204154806,0.019398,-0.638914,0.74847
1631204154816,0.020984,-0.639524,0.747494
1631204154825,0.021045,-0.639524,0.747372
1631204154835,0.022509,-0.640378,0.746396
1631204154844,0.023241,-0.6408659999999999,0.745908
1631204154854,0.023667999999999998,-0.63989,0.745054
1631204154864,0.02501,-0.640744,0.745542
1631204154873,0.025925,-0.641232,0.745176
1631204154883,0.025254,-0.641232,0.74481
1631204154892,0.026291,-0.6408659999999999,0.745115
1631204154902,0.026657,-0.6405,0.744261
1631204154912,0.026779,-0.6405,0.744383
1631204154921,0.027389,-0.640744,0.745054
1631204154931,0.027511,-0.640683,0.745359
1631204154940,0.026352,-0.641537,0.744627
1631204154950,0.026168999999999998,-0.640622,0.745542
1631204154960,0.026595999999999998,-0.6399509999999999,0.746091
1631204154969,0.027084,-0.639707,0.74664
1631204154979,0.026413,-0.639463,0.747128
1631204154988,0.02623,-0.638792,0.74603
1631204154998,0.026474,-0.637938,0.745542
1631204155008,0.026413,-0.63867,0.745847
1631204155017,0.026291,-0.639707,0.74664
1631204155027,0.026595999999999998,-0.639219,0.746152
1631204155036,0.025986,-0.637267,0.745176
1631204155046,0.02562,-0.637877,0.747372
1631204155056,0.026962,-0.6399509999999999,0.749934
1631204155065,0.026962,-0.640134,0.749019
1631204155075,0.026352,-0.638975,0.745725
1631204155084,0.025315,-0.639463,0.743895
1631204155094,0.027023,-0.640073,0.742675
1631204155104,0.027999,-0.64172,0.744627
1631204155113,0.028791999999999998,-0.64294,0.746823
1631204155123,0.028975,-0.6436109999999999,0.746152
1631204155132,0.028791999999999998,-0.64294,0.74542
1631204155142,0.028731,-0.6430009999999999,0.7442
1631204155152,0.028731,-0.642818,0.744688
1631204155161,0.029585,-0.641964,0.743651
1631204155171,0.029036,-0.640744,0.74298
1631204155180,0.02928,-0.640134,0.742248
1631204155190,0.028487,-0.639707,0.742675
1631204155200,0.029096999999999998,-0.639402,0.743651
1631204155209,0.029951,-0.640012,0.74481
1631204155219,0.029646,-0.6405,0.745481
1631204155228,0.029646,-0.64111,0.745542
1631204155238,0.029951,-0.641842,0.744993
1631204155248,0.030744,-0.641537,0.745115
1631204155257,0.031415,-0.6414759999999999,0.744749
1631204155267,0.030683,-0.641293,0.744566
1631204155276,0.030317,-0.641964,0.744017
1631204155286,0.030987999999999998,-0.642025,0.743346
1631204155296,0.030439,-0.641232,0.741943
1631204155305,0.031049,-0.642208,0.744444
1631204155315,0.030987999999999998,-0.643733,0.745603
1631204155324,0.032757,-0.6439159999999999,0.74664
1631204155334,0.032025,-0.643794,0.7442
1631204155344,0.032513,-0.643184,0.741638
1631204155353,0.032574,-0.643062,0.740235
1631204155363,0.032879,-0.643062,0.7403569999999999
1631204155372,0.031964,-0.6433059999999999,0.7406619999999999
1631204155382,0.032818,-0.643245,0.741699
1631204155392,0.032818,-0.643123,0.74176
1631204155401,0.03233,-0.643489,0.743163
1631204155411,0.03233,-0.6433059999999999,0.743163
1631204155420,0.032695999999999996,-0.643855,0.744627
1631204155430,0.031415,-0.6436109999999999,0.744749
1631204155440,0.03172,-0.643184,0.744383
1631204155449,0.030134,-0.643184,0.744383
1631204155459,0.030255999999999998,-0.643428,0.744505
1631204155468,0.031415,-0.642025,0.744139
1631204155478,0.031171,-0.643062,0.743712
1631204155488,0.03111,-0.642635,0.743712
1631204155497,0.031598,-0.64294,0.743346
1631204155507,0.030987999999999998,-0.643794,0.742736
1631204155516,0.03172,-0.6439159999999999,0.742248
1631204155526,0.031293,-0.64355,0.7418819999999999
1631204155536,0.031537,-0.644099,0.741638
1631204155545,0.031354,-0.644648,0.742614
1631204155555,0.030255999999999998,-0.644648,0.7421869999999999
1631204155564,0.031476,-0.6451359999999999,0.7424919999999999
1631204155574,0.030378,-0.645624,0.74359
1631204155584,0.030805,-0.64599,0.74298
1631204155593,0.031903,-0.645685,0.74237
1631204155603,0.031842,-0.645319,0.74237
1631204155612,0.031659,-0.645624,0.7421869999999999
1631204155622,0.032513,-0.646234,0.7427969999999999
1631204155632,0.032269,-0.644953,0.742919
1631204155641,0.031964,-0.64477,0.741699
1631204155651,0.031537,-0.644343,0.7424919999999999
1631204155660,0.032695999999999996,-0.644038,0.742675
1631204155670,0.033001,-0.642879,0.743895
1631204155680,0.033062,-0.6426959999999999,0.74298
1631204155689,0.033733,-0.642757,0.743468
1631204155699,0.034343,-0.642879,0.7418819999999999
1631204155708,0.033794,-0.642818,0.741516
1631204155718,0.034892,-0.642818,0.740296
1631204155728,0.036173,-0.643489,0.73932
1631204155737,0.036782999999999996,-0.643672,0.7397469999999999
1631204155747,0.036782999999999996,-0.644343,0.740235
1631204155756,0.03721,-0.645075,0.740235
1631204155766,0.036234,-0.6454409999999999,0.740418
1631204155776,0.036112,-0.6454409999999999,0.7418819999999999
1631204155785,0.036295,-0.6457459999999999,0.7424919999999999
1631204155795,0.037698,-0.647088,0.742919
1631204155804,0.037759,-0.648308,0.742431
1631204155814,0.038613,-0.649223,0.7412719999999999
1631204155824,0.039345,-0.649345,0.741943
1631204155833,0.039284,-0.648552,0.7412719999999999
1631204155843,0.040138,-0.647698,0.7400519999999999
1631204155852,0.040504,-0.647698,0.7400519999999999
1631204155862,0.041174999999999996,-0.647515,0.741089
1631204155872,0.04087,-0.646112,0.739625
1631204155881,0.040687,-0.644587,0.738466
1631204155891,0.040015999999999996,-0.643733,0.736758
1631204155900,0.041602,-0.64477,0.738405
1631204155910,0.041663,-0.646112,0.740906
1631204155920,0.041663,-0.644343,0.740845
1631204155929,0.041114,-0.643855,0.741638
1631204155939,0.041541,-0.645502,0.743468
1631204155948,0.042761,-0.646051,0.744139
1631204155958,0.042517,-0.645807,0.742248
1631204155968,0.041724,-0.645624,0.73932
1631204155977,0.0427,-0.645258,0.738039
1631204155987,0.042761,-0.64782,0.737856
1631204155996,0.043737,-0.648491,0.7391369999999999
1631204156006,0.043188,-0.647149,0.740235
1631204156016,0.043676,-0.648247,0.7409669999999999
1631204156025,0.044469,-0.647881,0.740235
1631204156035,0.04453,-0.648491,0.739808
1631204156044,0.045994,-0.648674,0.739015
1631204156054,0.046176999999999996,-0.648552,0.7366969999999999
1631204156064,0.046116,-0.648491,0.7357819999999999
1631204156073,0.04636,-0.647027,0.734318
1631204156083,0.045566999999999996,-0.647515,0.734501
1631204156092,0.047214,-0.647393,0.735599
1631204156102,0.046482,-0.646844,0.736575
1631204156112,0.045994,-0.647027,0.736941
1631204156121,0.04514,-0.647271,0.739259
1631204156131,0.044774,-0.6466,0.740723
1631204156140,0.044957,-0.647088,0.741333
1631204156150,0.045384,-0.647515,0.740723
1631204156160,0.045262,-0.647942,0.740601
1631204156169,0.04575,-0.646844,0.739869
1631204156179,0.046116,-0.6466,0.740113
1631204156188,0.046299,-0.648552,0.741028
1631204156198,0.048799999999999996,-0.648979,0.740784
1631204156208,0.049471,-0.648674,0.740418
1631204156217,0.049104999999999996,-0.647942,0.738344
1631204156227,0.048678,-0.647576,0.736209
1631204156236,0.049715,-0.646478,0.734745
1631204156246,0.049654,-0.646966,0.735294
1631204156256,0.05002,-0.647149,0.736026
1631204156265,0.051422999999999996,-0.646478,0.735904
1631204156275,0.051667,-0.647271,0.736026
1631204156284,0.051301,-0.647698,0.736636
1631204156294,0.052582,-0.648857,0.736758
1631204156304,0.05368,-0.648369,0.7373069999999999
1631204156313,0.052521,-0.648674,0.737063
1631204156323,0.05307,-0.64965,0.735965
1631204156332,0.052886999999999997,-0.648247,0.735904
1631204156342,0.052399,-0.649223,0.73627
1631204156352,0.052216,-0.648674,0.737368
1631204156361,0.052032999999999996,-0.649772,0.738344
1631204156371,0.052521,-0.650138,0.7381
1631204156380,0.052155,-0.650321,0.7379169999999999
1631204156390,0.052032999999999996,-0.650687,0.7373069999999999
1631204156400,0.053009,-0.652456,0.736758
1631204156409,0.053009,-0.651785,0.737185
1631204156419,0.052704,-0.652578,0.736575
1631204156428,0.052521,-0.652334,0.7348669999999999
1631204156438,0.052094,-0.651968,0.7339519999999999
1631204156448,0.05246,-0.651175,0.734684
1631204156457,0.05246,-0.651358,0.73383
1631204156467,0.053191999999999996,-0.651724,0.73383
1631204156476,0.05307,-0.651968,0.73383
1631204156486,0.053009,-0.653005,0.735416
1631204156496,0.053253,-0.652761,0.734135
1631204156505,0.053741,-0.654042,0.734806
1631204156515,0.054107,-0.652639,0.7357819999999999
1631204156524,0.053436,-0.6527,0.734989
1631204156534,0.05368,-0.653005,0.735904
1631204156544,0.054412,-0.653127,0.735843
1631204156553,0.05368,-0.653737,0.73505
1631204156563,0.054168,-0.653066,0.734196
1631204156572,0.054107,-0.652761,0.733098
1631204156582,0.053924,-0.652639,0.732793
1631204156592,0.053985,-0.652822,0.733281
1631204156601,0.053985,-0.653371,0.733281
1631204156611,0.053801999999999996,-0.653676,0.733708
1631204156620,0.055144,-0.653981,0.732915
1631204156630,0.054960999999999996,-0.6560549999999999,0.734745
1631204156640,0.055570999999999995,-0.6560549999999999,0.734013
1631204156649,0.055937,-0.656848,0.731756
1631204156659,0.056547,-0.655201,0.731024
1631204156668,0.055998,-0.65514,0.730353
1631204156678,0.056486,-0.656421,0.730109
1631204156688,0.05734,-0.655628,0.7287669999999999
1631204156697,0.057401,-0.654652,0.7272419999999999
1631204156707,0.058255,-0.655384,0.727303
1631204156716,0.058926,-0.655201,0.728523
1631204156726,0.060695,-0.655506,0.7290719999999999
1631204156736,0.061426999999999995,-0.654469,0.728218
1631204156745,0.061488,-0.653981,0.7281569999999999
1631204156755,0.062708,-0.653981,0.727791
1631204156764,0.063379,-0.654835,0.72651
1631204156774,0.061975999999999996,-0.654713,0.727669
1631204156784,0.062952,-0.654713,0.72712
1631204156793,0.061488,-0.654835,0.727913
1631204156803,0.062159,-0.656116,0.7299869999999999
1631204156812,0.061183,-0.655811,0.730048
1631204156822,0.060451,-0.655506,0.731634
1631204156832,0.061183,-0.655689,0.7345619999999999
1631204156841,0.061915,-0.657336,0.735599
1631204156851,0.06417199999999999,-0.6572749999999999,0.734013
1631204156860,0.063379,-0.655567,0.729438
1631204156870,0.063013,-0.654835,0.725473
1631204156880,0.062891,-0.655018,0.721996
1631204156889,0.063379,-0.655872,0.72224
1631204156899,0.063135,-0.656238,0.721996
1631204156908,0.063623,-0.657214,0.721996
1631204156918,0.063623,-0.658007,0.721142
1631204156928,0.063074,-0.659959,0.720532
1631204156937,0.06283,-0.661606,0.720227
1631204156947,0.062342,-0.6633749999999999,0.718946
1631204156956,0.062159,-0.6639849999999999,0.719556
1631204156966,0.060268,-0.6648999999999999,0.719373
1631204156976,0.059292,-0.6636799999999999,0.720288
1631204156985,0.057645,-0.663253,0.722423
1631204156995,0.056852,-0.662399,0.724558
1631204157004,0.055754,-0.6618499999999999,0.724192
1631204157014,0.056424999999999996,-0.660142,0.72407
1631204157024,0.055205,-0.662094,0.725046
1631204157033,0.053985,-0.662582,0.725046
1631204157043,0.052582,-0.664473,0.723582
1631204157052,0.052582,-0.662216,0.721752
1631204157062,0.052277,-0.662094,0.720288
1631204157072,0.051179,-0.662582,0.718824
1631204157081,0.049227,-0.662826,0.717726
1631204157091,0.047945999999999996,-0.660813,0.715957
1631204157100,0.046543,-0.6612399999999999,0.718214
1631204157110,0.045994,-0.662704,0.720471
1631204157120,0.046787,-0.6648999999999999,0.722545
1631204157129,0.045445,-0.6658149999999999,0.721569
1631204157139,0.044225,-0.665937,0.720105
1631204157148,0.043066,-0.6685599999999999,0.719495
1631204157158,0.04209,-0.670817,0.719739
1631204157168,0.041541,-0.67283,0.72041
1631204157177,0.040320999999999996,-0.675514,0.720288
1631204157187,0.039345,-0.675514,0.721508
1631204157196,0.03721,-0.674782,0.720471
1631204157206,0.037332,-0.675209,0.719983
1631204157216,0.036539,-0.673989,0.718824
1631204157225,0.035136,-0.672647,0.716079
1631204157235,0.033123,-0.671427,0.7132729999999999
1631204157244,0.031842,-0.672708,0.7123579999999999
1631204157254,0.031537,-0.67283,0.7117479999999999
1631204157264,0.030012,-0.674233,0.710955
1631204157273,0.028609,-0.67405,0.710894
1631204157283,0.027084,-0.673501,0.7120529999999999
1631204157292,0.024827,-0.67283,0.712907
1631204157302,0.02318,-0.67283,0.7151029999999999
1631204157312,0.021471999999999998,-0.673928,0.716079
1631204157321,0.020618,-0.672891,0.716506
1631204157331,0.018178,-0.673135,0.717299
1631204157340,0.016958,-0.670817,0.71614
1631204157350,0.015433,-0.6700849999999999,0.714127
1631204157360,0.015493999999999999,-0.670512,0.712602
1631204157369,0.013847,-0.672159,0.713395
1631204157379,0.013297999999999999,-0.676124,0.715652
1631204157388,0.013969,-0.679906,0.717726
1631204157398,0.013663999999999999,-0.680028,0.716567
1631204157408,0.013725,-0.68137,0.71614
1631204157417,0.012871,-0.681126,0.7144929999999999
1631204157427,0.012565999999999999,-0.682895,0.71553
1631204157436,0.011956,-0.685518,0.716567
1631204157446,0.010553,-0.68442,0.71431
1631204157456,0.008662,-0.6819189999999999,0.7132729999999999
1631204157465,0.008479,-0.682041,0.712907
1631204157475,0.008418,-0.68137,0.712724
1631204157484,0.005612,-0.683383,0.709552
1631204157494,0.0057339999999999995,-0.685152,0.710162
1631204157504,0.0046359999999999995,-0.687592,0.707966
1631204157513,0.004758,-0.688202,0.706746
1631204157523,0.0046359999999999995,-0.68991,0.7065629999999999
1631204157532,0.003477,-0.690032,0.706441
1631204157542,0.003477,-0.692045,0.7090029999999999
1631204157552,0.0037819999999999998,-0.6935089999999999,0.7108329999999999
1631204157561,0.0042699999999999995,-0.695278,0.714432
1631204157571,0.0046359999999999995,-0.694485,0.7166279999999999
1631204157580,0.004697,-0.693021,0.717421
1631204157590,0.0042699999999999995,-0.6910689999999999,0.717299
1631204157600,0.0053679999999999995,-0.690581,0.71858
1631204157609,0.0059169999999999995,-0.687348,0.715225
1631204157619,0.0057339999999999995,-0.683932,0.71126
1631204157628,0.0055509999999999995,-0.6810039999999999,0.708881
1631204157638,0.006893,-0.679357,0.705465
1631204157648,0.008173999999999999,-0.6797839999999999,0.70272
1631204157657,0.010614,-0.679357,0.701134
1631204157667,0.01281,-0.679967,0.700646
1631204157676,0.014823,-0.68015,0.701134
1631204157686,0.016165,-0.67954,0.703147
1631204157696,0.018543999999999998,-0.681553,0.701683
1631204157705,0.018605,-0.68381,0.702171
1631204157715,0.020069,-0.6843589999999999,0.702659
1631204157724,0.019398,-0.682407,0.701561
1631204157734,0.019642,-0.681248,0.701195
1631204157744,0.021594,-0.6819189999999999,0.703452
1631204157753,0.023546,-0.682956,0.703879
1631204157763,0.02257,-0.684481,0.7035129999999999
1631204157772,0.022935999999999998,-0.686921,0.702049
1631204157782,0.024095,-0.6864939999999999,0.698267
1631204157792,0.024583,-0.685335,0.695522
1631204157801,0.025498,-0.684481,0.695888
1631204157811,0.025131999999999998,-0.686555,0.699182
1631204157820,0.026779,-0.687592,0.703086
1631204157830,0.028121,-0.687958,0.704062
1631204157840,0.027999,-0.68808,0.704062
1631204157849,0.028059999999999998,-0.688751,0.704672
1631204157859,0.027327999999999998,-0.686006,0.70333
1631204157868,0.027327999999999998,-0.6819189999999999,0.700402
1631204157878,0.027145,-0.678442,0.698633
1631204157888,0.027511,-0.676795,0.698267
1631204157897,0.026779,-0.6771,0.701134
1631204157907,0.029096999999999998,-0.67954,0.704977
1631204157916,0.0305,-0.682895,0.708942
1631204157926,0.033549999999999996,-0.6867989999999999,0.71187
1631204157936,0.035868,-0.687958,0.713944
1631204157945,0.037332,-0.6893,0.715286
1631204157955,0.036417,-0.687348,0.712724
1631204157964,0.0366,-0.684298,0.711626
1631204157974,0.036966,-0.681126,0.708942
1631204157984,0.036112,-0.678686,0.706746
1631204157993,0.03782,-0.676124,0.706441
1631204158003,0.039345,-0.675941,0.706197
1631204158012,0.04209,-0.676063,0.707356
1631204158022,0.044164,-0.676002,0.70821
1631204158032,0.04453,-0.677405,0.7074779999999999
1631204158041,0.046299,-0.679662,0.7093079999999999
1631204158051,0.04819,-0.681187,0.711504
1631204158060,0.048678,-0.682956,0.7123579999999999
1631204158070,0.049654,-0.6837489999999999,0.715469
1631204158080,0.050508,-0.6852739999999999,0.718214
1631204158089,0.05124,-0.686067,0.720532
1631204158099,0.051545,-0.685091,0.722545
1631204158108,0.051179,-0.684115,0.72346
1631204158118,0.050996,-0.682468,0.722484
1631204158128,0.051606,-0.67832,0.716994
1631204158137,0.049288,-0.676307,0.7147979999999999
1631204158147,0.048678,-0.678564,0.716506
1631204158156,0.049227,-0.680943,0.718824
1631204158166,0.049532,-0.67893,0.716506
1631204158176,0.049409999999999996,-0.674172,0.713456
1631204158185,0.04758,-0.671549,0.71431
1631204158195,0.04514,-0.669597,0.7138829999999999
1631204158204,0.04453,-0.667828,0.714981
1631204158214,0.042761,-0.666364,0.713334
1631204158224,0.043248999999999996,-0.663436,0.71004
1631204158233,0.041663,-0.663802,0.708027
1631204158243,0.042334,-0.664778,0.705404
1631204158252,0.042822,-0.665876,0.704001
1631204158262,0.043615,-0.667889,0.701988
1631204158272,0.044896,-0.671915,0.700951
1631204158281,0.046176999999999996,-0.676002,0.701744
1631204158291,0.046787,-0.678137,0.698816
1631204158300,0.046055,-0.679601,0.695644
1631204158310,0.045201,-0.681126,0.694302
1631204158320,0.044591,-0.682712,0.6941189999999999
1631204158329,0.042395,-0.684115,0.6954
1631204158339,0.041479999999999996,-0.685518,0.697962
1631204158348,0.038735,-0.685701,0.700829
1631204158358,0.037637,-0.684481,0.704062
1631204158368,0.035685,-0.6840539999999999,0.706136
1631204158377,0.032574,-0.6834439999999999,0.7080879999999999
1631204158387,0.030866,-0.6849689999999999,0.709735
1631204158396,0.031293,-0.686006,0.7090029999999999
1631204158406,0.030622,-0.686311,0.709796
1631204158416,0.03172,-0.686738,0.709674
1631204158425,0.031598,-0.6871039999999999,0.708515
1631204158435,0.032269,-0.686616,0.708332
1631204158444,0.033001,-0.685762,0.708515
1631204158454,0.033611,-0.68381,0.7086979999999999
1631204158464,0.034099,-0.681858,0.707661
1631204158473,0.034709,-0.68137,0.7077829999999999
1631204158483,0.035502,-0.681553,0.7068679999999999
1631204158492,0.036844,-0.680516,0.704916
1631204158502,0.036478,-0.679906,0.703391
1631204158512,0.037332,-0.6803939999999999,0.701805
1631204158521,0.039406,-0.682895,0.702354
1631204158531,0.040565,-0.684481,0.701988
1631204158540,0.041846,-0.6858839999999999,0.70028
1631204158550,0.042395,-0.687226,0.699914
1631204158560,0.042456,-0.688202,0.69967
1631204158569,0.04331,-0.688202,0.702171
1631204158579,0.04331,-0.689971,0.70577
1631204158588,0.042761,-0.690642,0.7059529999999999
1631204158598,0.040504,-0.69052,0.7071729999999999
1631204158608,0.040992,-0.690398,0.70943
1631204158617,0.041114,-0.69174,0.710894
1631204158627,0.039894,-0.691008,0.707417
1631204158636,0.039772,-0.6913739999999999,0.704794
1631204158646,0.037576,-0.691252,0.704977
1631204158656,0.037698,-0.6913739999999999,0.705526
1631204158665,0.037454,-0.691801,0.7076
1631204158675,0.036661,-0.690642,0.708332
1631204158684,0.034892,-0.688568,0.708271
1631204158694,0.033733,-0.687653,0.7080879999999999
1631204158704,0.033367,-0.686128,0.707112
1631204158713,0.032513,-0.6849689999999999,0.706014
1631204158723,0.03172,-0.683688,0.707905
1631204158732,0.032025,-0.68442,0.71126
1631204158742,0.031903,-0.681736,0.712236
1631204158752,0.030927,-0.6803939999999999,0.714432
1631204158761,0.030439,-0.677771,0.71675
1631204158771,0.029402,-0.675148,0.718092
1631204158780,0.027877,-0.673806,0.718031
1631204158790,0.027572,-0.672525,0.717177
1631204158800,0.027389,-0.672098,0.717421
1631204158809,0.028304,-0.671854,0.717299
1631204158819,0.030012,-0.671427,0.715957
1631204158828,0.030195,-0.671976,0.7137
1631204158838,0.031476,-0.671976,0.7129679999999999
1631204158848,0.032208,-0.672586,0.711626
1631204158857,0.032818,-0.673562,0.710955
1631204158867,0.032390999999999996,-0.670512,0.7086979999999999
1631204158876,0.02989,-0.669414,0.706136
1631204158886,0.030255999999999998,-0.669292,0.7059529999999999
1631204158896,0.031232,-0.669658,0.708515
1631204158905,0.032879,-0.671183,0.7083929999999999
1631204158915,0.033733,-0.671671,0.7076
1631204158924,0.034282,-0.673074,0.707539
1631204158934,0.034465,-0.674294,0.708332
1631204158944,0.036173,-0.677527,0.710101
1631204158953,0.037637,-0.679418,0.712175
1631204158963,0.037942,-0.681126,0.713212
1631204158972,0.037515,-0.682468,0.713395
1631204158982,0.036966,-0.683993,0.713517
1631204158992,0.03599,-0.684481,0.712907
1631204159001,0.034465,-0.685213,0.711687
1631204159011,0.034038,-0.6843589999999999,0.712907
1631204159020,0.033062,-0.685396,0.7135779999999999
1631204159030,0.032269,-0.685091,0.714249
1631204159040,0.032513,-0.684908,0.7157129999999999
1631204159049,0.032269,-0.6837489999999999,0.715957
1631204159059,0.03172,-0.6825289999999999,0.717055
1631204159068,0.032390999999999996,-0.681492,0.7172379999999999
1631204159078,0.032390999999999996,-0.680333,0.714249
1631204159088,0.031293,-0.6791739999999999,0.7120529999999999
1631204159097,0.030255999999999998,-0.676978,0.7117479999999999
1631204159107,0.029828999999999998,-0.67588,0.711687
1631204159116,0.028304,-0.675209,0.713029
1631204159126,0.027999,-0.673806,0.7144929999999999
1631204159136,0.027084,-0.671427,0.7163229999999999
1631204159145,0.025559,-0.6697799999999999,0.718702
1631204159155,0.024399999999999998,-0.667462,0.720105
1631204159164,0.023729,-0.666059,0.720471
1631204159174,0.022692,-0.665022,0.722728
1631204159184,0.022692,-0.665266,0.722728
1631204159193,0.023546,-0.665083,0.722484
1631204159203,0.02135,-0.664778,0.72163
1631204159212,0.022021,-0.665022,0.72041
1631204159222,0.020923,-0.665144,0.721325
1631204159232,0.020984,-0.665876,0.72285
1631204159241,0.022814,-0.666669,0.723033
1631204159251,0.022509,-0.6673399999999999,0.724314
1631204159260,0.024034,-0.667584,0.725046
1631204159270,0.025131999999999998,-0.667401,0.7269369999999999
1631204159280,0.024888,-0.666486,0.726571
1631204159289,0.025315,-0.666913,0.725351
1631204159299,0.026108,-0.665266,0.722789
1631204159308,0.025925,-0.6645949999999999,0.721874
1631204159318,0.026535,-0.665022,0.723033
1631204159328,0.026291,-0.664717,0.724192
1631204159337,0.02623,-0.665022,0.72651
1631204159347,0.027877,-0.664412,0.725839
1631204159356,0.028121,-0.663436,0.72529
1631204159366,0.029402,-0.664168,0.72651
1631204159376,0.029463,-0.663558,0.728828
1631204159385,0.03111,-0.663924,0.727913
1631204159395,0.031964,-0.663314,0.7272419999999999
1631204159404,0.031781,-0.662094,0.726083
1631204159414,0.033062,-0.662216,0.725168
1631204159424,0.033184,-0.6627649999999999,0.726571
1631204159433,0.032025,-0.662887,0.725961
1631204159443,0.032879,-0.662948,0.726693
1631204159452,0.033489,-0.663741,0.72895
1631204159462,0.034038,-0.663619,0.730109
1631204159472,0.03538,-0.662582,0.727364
1631204159481,0.035441,-0.661728,0.723887
1631204159491,0.033733,-0.6606299999999999,0.72041
1631204159500,0.033733,-0.661423,0.719922
1631204159510,0.034282,-0.662216,0.720288
1631204159520,0.034465,-0.6624599999999999,0.721752
1631204159529,0.034404,-0.661911,0.722972
1631204159539,0.033794,-0.661911,0.723887
1631204159548,0.032879,-0.661179,0.72529
1631204159558,0.033916,-0.660569,0.724802
1631204159568,0.033184,-0.659776,0.725107
1631204159577,0.032025,-0.658434,0.724619
1631204159587,0.030622,-0.6566649999999999,0.725717
1631204159596,0.030378,-0.655384,0.726449
1631204159606,0.029523999999999998,-0.653188,0.728584
1631204159616,0.028791999999999998,-0.653005,0.729804
1631204159625,0.027816,-0.652273,0.73139
1631204159635,0.028304,-0.653188,0.7321219999999999
1631204159644,0.026595999999999998,-0.653127,0.732976
1631204159654,0.026657,-0.653371,0.734806
1631204159664,0.025986,-0.653676,0.7351719999999999
1631204159673,0.026718,-0.653676,0.7348669999999999
1631204159683,0.02623,-0.652944,0.735538
1631204159692,0.026168999999999998,-0.653432,0.733708
1631204159702,0.025681,-0.652151,0.7336469999999999
1631204159712,0.025681,-0.651968,0.736148
1631204159721,0.026595999999999998,-0.65331,0.736575
1631204159731,0.028426,-0.652639,0.737246
1631204159740,0.028731,-0.651724,0.7354769999999999
