timestamp,ax,ay,az
1631106796174,-0.21844482421875,-0.00225830078125,0.96405029296875
1631106796174,-0.2178955078125,-0.00286865234375,0.96746826171875
1631106796174,-0.22088623046875,0.0001220703125,0.96282958984375
1631106796236,-0.21722412109375,-0.0015869140625,0.97283935546875
1631106796236,-0.21875,0.00225830078125,0.97894287109375
1631106796236,-0.219482421875,0.0047607421875,0.97808837890625
1631106796283,-0.2186279296875,0.0047607421875,0.97723388671875
1631106796298,-0.22027587890625,-0.007080078125,0.97039794921875
1631106796298,-0.2178955078125,-0.00030517578125,0.97314453125
1631106796361,-0.2215576171875,0.00164794921875,0.9735107421875
1631106796361,-0.21868896484375,-0.0045166015625,0.9693603515625
1631106796361,-0.21954345703125,-0.0078125,0.968994140625
1631106796423,-0.2200927734375,0.00439453125,0.9736328125
1631106796423,-0.21990966796875,0.0020751953125,0.9700927734375
1631106796423,-0.2210693359375,0.004150390625,0.96392822265625
1631106796470,-0.2196044921875,-0.01007080078125,0.97100830078125
1631106796470,-0.2178955078125,-0.00384521484375,0.96551513671875
1631106796470,-0.2203369140625,-0.0111083984375,0.9693603515625
1631106796533,-0.2200927734375,-0.01104736328125,0.9722900390625
1631106796533,-0.21868896484375,-0.0107421875,0.96966552734375
1631106796533,-0.22247314453125,-0.01434326171875,0.97314453125
1631106796595,-0.221435546875,-0.01043701171875,0.96807861328125
1631106796595,-0.21722412109375,-0.01513671875,0.969482421875
1631106796595,-0.22003173828125,-0.0098876953125,0.966064453125
1631106796642,-0.21881103515625,-0.0155029296875,0.9759521484375
1631106796642,-0.220458984375,-0.01776123046875,0.98095703125
1631106796642,-0.21990966796875,-0.01361083984375,0.97979736328125
1631106796705,-0.2197265625,-0.01019287109375,0.97015380859375
1631106796705,-0.22186279296875,-0.0125732421875,0.97125244140625
1631106796705,-0.2210693359375,-0.0155029296875,0.97320556640625
1631106796752,-0.22247314453125,-0.009521484375,0.971435546875
1631106796752,-0.2220458984375,-0.006103515625,0.96728515625
1631106796752,-0.2264404296875,-0.008544921875,0.974365234375
1631106796830,-0.22833251953125,-0.0015869140625,0.96978759765625
1631106796830,-0.2269287109375,0.010498046875,0.9757080078125
1631106796830,-0.222900390625,0.00262451171875,0.96942138671875
1631106796876,-0.22406005859375,0.00787353515625,0.96795654296875
1631106796876,-0.22705078125,0.010986328125,0.9703369140625
1631106796876,-0.22576904296875,0.007568359375,0.9632568359375
1631106796923,-0.21881103515625,-6.103515625e-05,0.97491455078125
1631106796939,-0.22149658203125,0.011474609375,0.9619140625
1631106796939,-0.2203369140625,0.0015869140625,0.96636962890625
1631106797017,-0.219970703125,0.008544921875,0.9775390625
1631106797017,-0.2216796875,0.00750732421875,0.97808837890625
1631106797017,-0.2191162109375,0.00518798828125,0.9759521484375
1631106797064,-0.22314453125,-0.00201416015625,0.9666748046875
1631106797064,-0.2205810546875,0.0035400390625,0.97174072265625
1631106797064,-0.22210693359375,-0.00030517578125,0.968017578125
1631106797111,-0.22320556640625,-0.008056640625,0.96966552734375
1631106797111,-0.2242431640625,-0.00286865234375,0.96734619140625
1631106797111,-0.22222900390625,0.00225830078125,0.96856689453125
1631106797189,-0.22613525390625,-0.009765625,0.97125244140625
1631106797189,-0.22552490234375,-0.007568359375,0.9698486328125
1631106797205,-0.2183837890625,-0.00347900390625,0.96771240234375
1631106797251,-0.225830078125,-0.0108642578125,0.96966552734375
1631106797251,-0.22259521484375,-0.00439453125,0.97259521484375
1631106797251,-0.22454833984375,-0.0084228515625,0.9713134765625
1631106797283,-0.22393798828125,-0.014892578125,0.9720458984375
1631106797283,-0.22259521484375,-0.008544921875,0.97442626953125
1631106797283,-0.227294921875,-0.009765625,0.9739990234375
1631106797345,-0.22119140625,-0.0074462890625,0.97210693359375
1631106797345,-0.220703125,-0.0089111328125,0.97027587890625
1631106797345,-0.22564697265625,-0.009521484375,0.97222900390625
1631106797392,-0.22283935546875,-0.00396728515625,0.96771240234375
1631106797392,-0.222412109375,-0.00189208984375,0.96771240234375
1631106797408,-0.2235107421875,-0.01116943359375,0.96612548828125
1631106797486,-0.22418212890625,0.0010986328125,0.96832275390625
1631106797486,-0.2255859375,0.003662109375,0.97015380859375
1631106797501,-0.22259521484375,-0.00396728515625,0.9658203125
1631106797533,-0.22406005859375,-0.01287841796875,0.96405029296875
1631106797533,-0.21893310546875,-0.021484375,0.97216796875
1631106797533,-0.2239990234375,-0.0189208984375,0.970458984375
1631106797579,-0.2237548828125,-0.009033203125,0.9779052734375
1631106797579,-0.2203369140625,-0.00750732421875,0.974853515625
1631106797595,-0.22174072265625,-0.011474609375,0.97607421875
1631106797658,-0.2159423828125,-0.0047607421875,0.9705810546875
1631106797673,-0.2188720703125,-0.005126953125,0.96783447265625
1631106797673,-0.22027587890625,-0.00347900390625,0.968505859375
1631106797736,-0.22296142578125,0.00048828125,0.97216796875
1631106797736,-0.218994140625,-0.0003662109375,0.97247314453125
1631106797751,-0.22003173828125,0.00238037109375,0.97137451171875
1631106797767,-0.219482421875,-0.0047607421875,0.9688720703125
1631106797767,-0.221435546875,-0.0076904296875,0.97540283203125
1631106797767,-0.2225341796875,-0.006103515625,0.97003173828125
1631106797814,-0.2276611328125,-0.003173828125,0.96832275390625
1631106797814,-0.225341796875,-0.01129150390625,0.97283935546875
1631106797814,-0.22674560546875,-0.0106201171875,0.974609375
1631106797876,-0.2235107421875,0.00048828125,0.9654541015625
1631106797876,-0.225341796875,0.00048828125,0.9677734375
1631106797876,-0.22509765625,0.000244140625,0.965087890625
1631106797954,-0.2237548828125,-0.0009765625,0.97369384765625
1631106797970,-0.2296142578125,-0.0032958984375,0.96710205078125
1631106797970,-0.22174072265625,-0.00067138671875,0.97125244140625
1631106798017,-0.2244873046875,-0.006591796875,0.9715576171875
1631106798017,-0.226806640625,-0.007080078125,0.9747314453125
1631106798017,-0.22344970703125,-0.010498046875,0.96942138671875
1631106798064,-0.23089599609375,-0.0052490234375,0.96807861328125
1631106798079,-0.22662353515625,-0.00689697265625,0.970458984375
1631106798079,-0.22564697265625,-0.00909423828125,0.96881103515625
1631106798160,-0.23345947265625,-0.01129150390625,0.974365234375
1631106798160,-0.23297119140625,-0.00799560546875,0.97515869140625
1631106798176,-0.23699951171875,-0.01348876953125,0.9622802734375
1631106798176,-0.23297119140625,-0.01031494140625,0.9698486328125
1631106798176,-0.2318115234375,-0.00750732421875,0.9691162109375
1631106798176,-0.2354736328125,-0.0126953125,0.9595947265625
1631106798254,-0.23321533203125,-0.0081787109375,0.95660400390625
1631106798254,-0.22991943359375,-0.00274658203125,0.95440673828125
1631106798254,-0.2330322265625,-0.00946044921875,0.959228515625
1631106798285,-0.2213134765625,-0.00042724609375,0.963134765625
1631106798285,-0.2266845703125,-0.004150390625,0.9530029296875
1631106798285,-0.22320556640625,-0.00115966796875,0.953857421875
1631106798363,-0.223388671875,0.001708984375,0.97186279296875
1631106798363,-0.2218017578125,0.00579833984375,0.98681640625
1631106798363,-0.2239990234375,0.0025634765625,0.9791259765625
1631106798441,-0.223876953125,0.00140380859375,0.9813232421875
1631106798457,-0.2220458984375,-0.00665283203125,0.97259521484375
1631106798457,-0.2218017578125,-0.0064697265625,0.96875
1631106798457,-0.22235107421875,0.00262451171875,0.9847412109375
1631106798457,-0.2259521484375,-0.00653076171875,0.971923828125
1631106798457,-0.22637939453125,-0.00115966796875,0.9788818359375
1631106798535,-0.22735595703125,-0.0045166015625,0.9739990234375
1631106798535,-0.2225341796875,-0.0030517578125,0.9747314453125
1631106798551,-0.21923828125,0.001953125,0.96722412109375
1631106798613,-0.2197265625,0.00762939453125,0.9620361328125
1631106798613,-0.22039794921875,0.0096435546875,0.96649169921875
1631106798613,-0.2191162109375,0.005615234375,0.96502685546875
1631106798644,-0.22027587890625,-0.00518798828125,0.9681396484375
1631106798644,-0.2181396484375,-0.0035400390625,0.96820068359375
1631106798644,-0.21771240234375,0.00146484375,0.9652099609375
1631106798691,-0.20916748046875,0.00115966796875,0.97222900390625
1631106798691,-0.213623046875,0.0020751953125,0.97052001953125
1631106798707,-0.21502685546875,0.000732421875,0.96954345703125
1631106798754,-0.21099853515625,-0.004638671875,0.97564697265625
1631106798754,-0.21075439453125,0.0057373046875,0.97991943359375
1631106798754,-0.2115478515625,-0.00244140625,0.98443603515625
1631106798832,-0.21337890625,-0.0037841796875,0.98223876953125
1631106798832,-0.212158203125,-0.0040283203125,0.97735595703125
1631106798832,-0.21331787109375,-0.0052490234375,0.9796142578125
1631106798879,-0.205810546875,-0.01190185546875,0.9749755859375
1631106798879,-0.20819091796875,-0.009033203125,0.9757080078125
1631106798879,-0.2059326171875,-0.012939453125,0.97515869140625
1631106798957,-0.21044921875,0.0072021484375,0.97998046875
1631106798957,-0.20892333984375,0.00421142578125,0.98028564453125
1631106798957,-0.21044921875,-0.005859375,0.9764404296875
1631106799019,-0.21209716796875,0.009521484375,0.97705078125
1631106799019,-0.21746826171875,0.00909423828125,0.96661376953125
1631106799050,-0.22003173828125,0.0047607421875,0.96600341796875
1631106799050,-0.21795654296875,-0.00775146484375,0.96673583984375
1631106799050,-0.2242431640625,-0.00604248046875,0.96722412109375
1631106799129,-0.22125244140625,-0.0069580078125,0.9688720703125
1631106799129,-0.2203369140625,-0.01275634765625,0.972900390625
1631106799129,-0.22314453125,-0.01068115234375,0.9766845703125
1631106799160,-0.21826171875,-0.01519775390625,0.973388671875
1631106799160,-0.21868896484375,-0.01214599609375,0.974609375
1631106799160,-0.2186279296875,0.0018310546875,0.96209716796875
1631106799238,-0.214599609375,0.00970458984375,0.9610595703125
1631106799238,-0.213623046875,0.00775146484375,0.97216796875
1631106799238,-0.21563720703125,0.00762939453125,0.9547119140625
1631106799300,-0.21160888671875,-0.00872802734375,0.9786376953125
1631106799300,-0.20806884765625,-0.02569580078125,0.9791259765625
1631106799316,-0.21478271484375,0.0003662109375,0.978759765625
1631106799347,-0.20361328125,-0.05389404296875,0.97027587890625
1631106799347,-0.19830322265625,-0.036865234375,0.982177734375
1631106799347,-0.207275390625,-0.04119873046875,0.9735107421875
1631106799441,-0.197021484375,-0.03271484375,0.99322509765625
1631106799441,-0.20428466796875,-0.03240966796875,1.001953125
1631106799441,-0.20831298828125,-0.0152587890625,0.99951171875
1631106799472,-0.21649169921875,0.0189208984375,0.9930419921875
1631106799472,-0.213134765625,0.01708984375,0.9947509765625
1631106799472,-0.20721435546875,0.0035400390625,0.9981689453125
1631106799550,-0.23016357421875,0.0152587890625,0.97979736328125
1631106799550,-0.2227783203125,0.01837158203125,0.98919677734375
1631106799550,-0.23065185546875,0.00469970703125,0.9609375
1631106799613,-0.2515869140625,-0.027587890625,0.94366455078125
1631106799628,-0.26885986328125,-0.0501708984375,0.94366455078125
1631106799628,-0.2646484375,-0.0458984375,0.9429931640625
1631106799628,-0.2376708984375,-6.103515625e-05,0.94525146484375
1631106799628,-0.2452392578125,-0.01080322265625,0.94586181640625
1631106799628,-0.25836181640625,-0.0361328125,0.9420166015625
1631106799722,-0.2689208984375,-0.03851318359375,0.94390869140625
1631106799722,-0.27081298828125,-0.04803466796875,0.9427490234375
1631106799722,-0.26812744140625,-0.0419921875,0.9422607421875
1631106799769,-0.2607421875,-0.02777099609375,0.94354248046875
1631106799769,-0.260009765625,-0.0159912109375,0.953369140625
1631106799785,-0.2679443359375,-0.03863525390625,0.94256591796875
1631106799816,-0.25628662109375,-0.00836181640625,0.9725341796875
1631106799816,-0.26025390625,-0.0042724609375,0.980224609375
1631106799831,-0.26123046875,-6.103515625e-05,0.97906494140625
1631106799878,-0.2637939453125,0.02496337890625,0.9676513671875
1631106799894,-0.2574462890625,0.02337646484375,0.97320556640625
1631106799894,-0.2607421875,0.01531982421875,0.97637939453125
1631106799925,-0.26483154296875,0.02215576171875,0.96368408203125
1631106799925,-0.266357421875,0.0244140625,0.96142578125
1631106799925,-0.266845703125,0.03656005859375,0.95526123046875
1631106800019,-0.2720947265625,0.0411376953125,0.95416259765625
1631106800019,-0.27252197265625,0.04351806640625,0.95648193359375
1631106800019,-0.2686767578125,0.038330078125,0.9522705078125
1631106800066,-0.2689208984375,0.0496826171875,0.94415283203125
1631106800066,-0.2718505859375,0.0521240234375,0.9410400390625
1631106800066,-0.27459716796875,0.04522705078125,0.9468994140625
1631106800128,-0.26934814453125,0.047607421875,0.94769287109375
1631106800128,-0.2720947265625,0.04705810546875,0.9478759765625
1631106800144,-0.27178955078125,0.048583984375,0.940673828125
1631106800193,-0.266845703125,0.042236328125,0.95013427734375
1631106800193,-0.26800537109375,0.0406494140625,0.95001220703125
1631106800193,-0.26727294921875,0.03753662109375,0.95404052734375
1631106800256,-0.2606201171875,0.0230712890625,0.961181640625
1631106800256,-0.26220703125,0.03240966796875,0.95745849609375
1631106800256,-0.26165771484375,0.03216552734375,0.958984375
1631106800287,-0.25927734375,0.02490234375,0.9637451171875
1631106800303,-0.25921630859375,0.01849365234375,0.9664306640625
1631106800303,-0.26226806640625,0.01995849609375,0.9638671875
1631106800365,-0.25653076171875,0.014892578125,0.9632568359375
1631106800365,-0.25726318359375,0.0164794921875,0.968505859375
1631106800381,-0.25970458984375,0.01611328125,0.97076416015625
1631106800443,-0.2626953125,0.01171875,0.9713134765625
1631106800443,-0.2657470703125,0.00396728515625,0.97259521484375
1631106800459,-0.266357421875,0.0084228515625,0.96478271484375
1631106800475,-0.2685546875,0.0035400390625,0.9771728515625
1631106800490,-0.268798828125,0.00238037109375,0.95452880859375
1631106800490,-0.26885986328125,0.00628662109375,0.955078125
1631106800522,-0.27471923828125,0.00421142578125,0.9547119140625
1631106800538,-0.27398681640625,0.00701904296875,0.95074462890625
1631106800600,-0.274658203125,0.00579833984375,0.95196533203125
1631106800600,-0.27569580078125,0.00921630859375,0.9571533203125
1631106800600,-0.27301025390625,0.00701904296875,0.9459228515625
1631106800647,-0.275146484375,0.0009765625,0.9493408203125
1631106800647,-0.2764892578125,0.006103515625,0.94244384765625
1631106800647,-0.274169921875,0.011962890625,0.94659423828125
1631106800709,-0.2724609375,0.0150146484375,0.946533203125
1631106800709,-0.266845703125,0.0115966796875,0.943603515625
1631106800725,-0.26885986328125,0.01409912109375,0.95281982421875
1631106800771,-0.27191162109375,0.007080078125,0.95648193359375
1631106800771,-0.2708740234375,0.004150390625,0.96173095703125
1631106800771,-0.27105712890625,0.00750732421875,0.96002197265625
1631106800818,-0.277587890625,0.00360107421875,0.97528076171875
1631106800834,-0.2706298828125,0.003173828125,0.9609375
1631106800834,-0.2701416015625,-0.00299072265625,0.96295166015625
1631106800866,-0.2716064453125,-0.00250244140625,0.9576416015625
1631106800866,-0.26806640625,0.00140380859375,0.962646484375
1631106800881,-0.27044677734375,0.001708984375,0.95458984375
1631106800928,-0.26654052734375,0.008544921875,0.95745849609375
1631106800928,-0.26800537109375,0.00897216796875,0.96142578125
1631106800928,-0.2666015625,0.01068115234375,0.95574951171875
1631106801021,-0.26922607421875,0.01214599609375,0.9630126953125
1631106801021,-0.26678466796875,0.01141357421875,0.9561767578125
1631106801021,-0.2669677734375,0.0115966796875,0.95428466796875
1631106801068,-0.2669677734375,0.01629638671875,0.95660400390625
1631106801068,-0.2701416015625,0.014404296875,0.95770263671875
1631106801068,-0.2684326171875,0.01275634765625,0.9564208984375
1631106801115,-0.26654052734375,0.0218505859375,0.9541015625
1631106801115,-0.26849365234375,0.01751708984375,0.95513916015625
1631106801133,-0.2686767578125,0.0181884765625,0.957763671875
1631106801181,-0.26422119140625,0.01806640625,0.9559326171875
1631106801181,-0.2608642578125,0.02215576171875,0.9559326171875
1631106801181,-0.2645263671875,0.02032470703125,0.95684814453125
1631106801228,-0.2630615234375,0.0150146484375,0.95574951171875
1631106801228,-0.26092529296875,0.015869140625,0.95556640625
1631106801243,-0.26617431640625,0.01416015625,0.95599365234375
1631106801290,-0.2637939453125,0.01239013671875,0.9619140625
1631106801290,-0.26214599609375,0.00787353515625,0.9639892578125
1631106801290,-0.26336669921875,0.0078125,0.9617919921875
1631106801384,-0.26312255859375,0.005859375,0.96148681640625
1631106801384,-0.2613525390625,0.00897216796875,0.95916748046875
1631106801384,-0.2593994140625,0.00506591796875,0.96429443359375
1631106801415,-0.26055908203125,0.00653076171875,0.96240234375
1631106801415,-0.258056640625,0.00372314453125,0.9637451171875
1631106801431,-0.26318359375,0.00518798828125,0.96600341796875
1631106801493,-0.25994873046875,0.00762939453125,0.96875
1631106801493,-0.265869140625,0.00927734375,0.96173095703125
1631106801493,-0.2635498046875,0.00445556640625,0.96630859375
1631106801556,-0.26763916015625,0.00518798828125,0.95721435546875
1631106801571,-0.2659912109375,0.019287109375,0.95245361328125
1631106801571,-0.2701416015625,0.01025390625,0.95428466796875
1631106801618,-0.26300048828125,0.015380859375,0.95465087890625
1631106801618,-0.26226806640625,0.01751708984375,0.95233154296875
1631106801618,-0.26239013671875,0.0181884765625,0.94873046875
1631106801665,-0.26251220703125,0.01995849609375,0.95928955078125
1631106801665,-0.26361083984375,0.0194091796875,0.95489501953125
1631106801681,-0.2611083984375,0.02276611328125,0.9622802734375
1631106801712,-0.26483154296875,0.01812744140625,0.96478271484375
1631106801712,-0.26202392578125,0.0118408203125,0.95794677734375
1631106801712,-0.26776123046875,0.0162353515625,0.96197509765625
1631106801774,-0.26470947265625,0.01251220703125,0.96002197265625
1631106801774,-0.26324462890625,0.00994873046875,0.960693359375
1631106801774,-0.26318359375,0.0146484375,0.957275390625
1631106801868,-0.262451171875,0.01104736328125,0.96209716796875
1631106801868,-0.26300048828125,0.0145263671875,0.95892333984375
1631106801868,-0.26409912109375,0.018798828125,0.9588623046875
1631106801899,-0.26580810546875,0.01873779296875,0.96002197265625
1631106801899,-0.26409912109375,0.0223388671875,0.95550537109375
1631106801899,-0.26666259765625,0.016845703125,0.96173095703125
1631106801962,-0.26641845703125,0.01910400390625,0.960205078125
1631106801962,-0.266845703125,0.01898193359375,0.9605712890625
1631106801962,-0.264892578125,0.019287109375,0.9598388671875
1631106802024,-0.2657470703125,0.01611328125,0.95745849609375
1631106802024,-0.26409912109375,0.01953125,0.96063232421875
1631106802040,-0.26983642578125,0.02001953125,0.9588623046875
1631106802071,-0.2716064453125,0.02490234375,0.95489501953125
1631106802071,-0.2667236328125,0.02227783203125,0.95330810546875
1631106802071,-0.27142333984375,0.019775390625,0.9544677734375
1631106802149,-0.27081298828125,0.0196533203125,0.954833984375
1631106802149,-0.26904296875,0.02044677734375,0.9520263671875
1631106802149,-0.27178955078125,0.0189208984375,0.950927734375
1631106802180,-0.26904296875,0.01678466796875,0.95831298828125
1631106802180,-0.27056884765625,0.01751708984375,0.9576416015625
1631106802196,-0.26788330078125,0.01776123046875,0.95245361328125
1631106802287,-0.26763916015625,0.0177001953125,0.958984375
1631106802287,-0.26904296875,0.019287109375,0.9600830078125
1631106802287,-0.26678466796875,0.02032470703125,0.9603271484375
1631106802303,-0.26971435546875,0.02215576171875,0.958251953125
1631106802303,-0.26654052734375,0.0203857421875,0.95782470703125
1631106802303,-0.26678466796875,0.02301025390625,0.9581298828125
1631106802366,-0.2681884765625,0.02130126953125,0.96002197265625
1631106802366,-0.2679443359375,0.0203857421875,0.95849609375
1631106802367,-0.27056884765625,0.01995849609375,0.957763671875
1631106802444,-0.2725830078125,0.0223388671875,0.95721435546875
1631106802444,-0.27471923828125,0.01556396484375,0.95928955078125
1631106802489,-0.27264404296875,0.01171875,0.95147705078125
1631106802490,-0.2767333984375,0.02301025390625,0.94989013671875
1631106802505,-0.275390625,0.0166015625,0.950927734375
1631106802567,-0.26959228515625,0.02117919921875,0.95013427734375
1631106802568,-0.2716064453125,0.02325439453125,0.9530029296875
1631106802570,-0.26971435546875,0.02386474609375,0.951416015625
1631106802599,-0.2706298828125,0.02386474609375,0.95758056640625
1631106802601,-0.26983642578125,0.022705078125,0.9508056640625
1631106802613,-0.2734375,0.0205078125,0.9588623046875
1631106802671,-0.27325439453125,0.01385498046875,0.95989990234375
1631106802671,-0.2706298828125,0.01519775390625,0.95562744140625
1631106802671,-0.27227783203125,0.01544189453125,0.96258544921875
1631106802765,-0.27154541015625,0.01593017578125,0.95428466796875
1631106802765,-0.27069091796875,0.018310546875,0.95550537109375
1631106802765,-0.27117919921875,0.0196533203125,0.9541015625
1631106802781,-0.2725830078125,0.01806640625,0.9581298828125
1631106802796,-0.27685546875,0.0201416015625,0.95574951171875
1631106802796,-0.2735595703125,0.0208740234375,0.95697021484375
1631106802843,-0.2728271484375,0.02398681640625,0.96002197265625
1631106802843,-0.27154541015625,0.01544189453125,0.95819091796875
1631106802843,-0.27362060546875,0.022216796875,0.95892333984375
1631106802874,-0.27215576171875,0.01904296875,0.95819091796875
1631106802874,-0.2781982421875,0.02264404296875,0.95703125
1631106802890,-0.27325439453125,0.02337646484375,0.95758056640625
1631106802937,-0.2784423828125,0.02239990234375,0.9527587890625
1631106802939,-0.27423095703125,0.01953125,0.95361328125
1631106802939,-0.2772216796875,0.0234375,0.95147705078125
1631106803014,-0.27496337890625,0.0216064453125,0.95220947265625
1631106803014,-0.2767333984375,0.02288818359375,0.95452880859375
1631106803014,-0.27630615234375,0.0240478515625,0.954833984375
1631106803076,-0.2752685546875,0.02215576171875,0.9517822265625
1631106803076,-0.2723388671875,0.0198974609375,0.95281982421875
1631106803076,-0.27752685546875,0.02276611328125,0.95281982421875
1631106803156,-0.27789306640625,0.0164794921875,0.9522705078125
1631106803156,-0.27545166015625,0.0167236328125,0.95538330078125
1631106803156,-0.27703857421875,0.01568603515625,0.95416259765625
1631106803189,-0.27508544921875,0.0164794921875,0.95806884765625
1631106803189,-0.27398681640625,0.01629638671875,0.95697021484375
1631106803190,-0.27777099609375,0.01531982421875,0.953857421875
1631106803236,-0.2762451171875,0.022705078125,0.9578857421875
1631106803238,-0.27606201171875,0.0211181640625,0.95452880859375
1631106803238,-0.2745361328125,0.020751953125,0.95635986328125
1631106803298,-0.27325439453125,0.020751953125,0.95709228515625
1631106803298,-0.27581787109375,0.02020263671875,0.95684814453125
1631106803317,-0.27691650390625,0.01971435546875,0.95648193359375
1631106803377,-0.2796630859375,0.022705078125,0.95233154296875
1631106803381,-0.28045654296875,0.02276611328125,0.9521484375
1631106803381,-0.27728271484375,0.0244140625,0.95269775390625
1631106803423,-0.28106689453125,0.0242919921875,0.95404052734375
1631106803423,-0.28082275390625,0.0250244140625,0.95184326171875
1631106803485,-0.28314208984375,0.01385498046875,0.952880859375
1631106803485,-0.285400390625,0.0186767578125,0.95965576171875
1631106803498,-0.27886962890625,0.02032470703125,0.95733642578125
1631106803517,-0.28155517578125,0.02459716796875,0.951416015625
1631106803517,-0.27825927734375,0.02813720703125,0.95184326171875
1631106803518,-0.2818603515625,0.015625,0.94610595703125
1631106803610,-0.27484130859375,0.02239990234375,0.95025634765625
1631106803610,-0.2752685546875,0.02557373046875,0.95355224609375
1631106803610,-0.27752685546875,0.02740478515625,0.950439453125
1631106803658,-0.27685546875,0.01934814453125,0.96441650390625
1631106803706,-0.2825927734375,0.0218505859375,0.95123291015625
1631106803706,-0.27935791015625,0.0,0.958740234375
1631106803710,-0.27984619140625,0.01458740234375,0.9520263671875
1631106803767,-0.28045654296875,0.019775390625,0.95123291015625
1631106803767,-0.28082275390625,0.01873779296875,0.95556640625
1631106803767,-0.2830810546875,0.01739501953125,0.9525146484375
1631106803840,-0.281982421875,0.02191162109375,0.953857421875
1631106803840,-0.27801513671875,0.022216796875,0.95562744140625
1631106803840,-0.279296875,0.02301025390625,0.95562744140625
1631106803902,-0.2784423828125,0.0205078125,0.95538330078125
1631106803902,-0.27642822265625,0.023681640625,0.9525146484375
1631106803902,-0.28057861328125,0.0225830078125,0.955322265625
1631106803934,-0.27874755859375,0.02105712890625,0.9534912109375
1631106803934,-0.27593994140625,0.0218505859375,0.95684814453125
1631106803934,-0.2811279296875,0.02252197265625,0.95660400390625
1631106804013,-0.280517578125,0.02337646484375,0.95367431640625
1631106804013,-0.278564453125,0.02593994140625,0.95361328125
1631106804013,-0.2791748046875,0.0250244140625,0.9530029296875
1631106804091,-0.280029296875,0.02337646484375,0.954345703125
1631106804094,-0.277099609375,0.02532958984375,0.95196533203125
1631106804094,-0.275390625,0.02752685546875,0.95111083984375
1631106804123,-0.27752685546875,0.01824951171875,0.951904296875
1631106804123,-0.2779541015625,0.020263671875,0.95172119140625
1631106804123,-0.28094482421875,0.01824951171875,0.9525146484375
1631106804184,-0.2767333984375,0.02154541015625,0.9581298828125
1631106804184,-0.27996826171875,0.01654052734375,0.95806884765625
1631106804248,-0.27667236328125,0.02203369140625,0.9542236328125
1631106804248,-0.2772216796875,0.01995849609375,0.95574951171875
1631106804249,-0.2774658203125,0.02056884765625,0.95721435546875
1631106804294,-0.2760009765625,0.01959228515625,0.9556884765625
1631106804294,-0.2755126953125,0.019775390625,0.95526123046875
1631106804294,-0.27685546875,0.01910400390625,0.95892333984375
1631106804373,-0.2779541015625,0.0228271484375,0.95751953125
1631106804380,-0.277587890625,0.019287109375,0.95343017578125
1631106804381,-0.279541015625,0.01666259765625,0.95794677734375
1631106804419,-0.2733154296875,0.00677490234375,0.946044921875
1631106804419,-0.27642822265625,0.00830078125,0.9512939453125
1631106804419,-0.27703857421875,0.01202392578125,0.952392578125
1631106804483,-0.27569580078125,0.00042724609375,0.95452880859375
1631106804498,-0.278076171875,0.00909423828125,0.95709228515625
1631106804545,-0.2816162109375,0.024169921875,0.95794677734375
1631106804546,-0.27801513671875,0.01434326171875,0.95452880859375
1631106804561,-0.279052734375,0.017822265625,0.95196533203125
1631106804593,-0.27874755859375,0.0345458984375,0.952880859375
1631106804593,-0.27801513671875,0.02777099609375,0.950927734375
1631106804594,-0.2813720703125,0.0267333984375,0.95654296875
1631106804639,-0.26861572265625,0.03759765625,0.95062255859375
1631106804639,-0.27764892578125,0.03887939453125,0.9517822265625
1631106804640,-0.2760009765625,0.038330078125,0.9503173828125
1631106804701,-0.27447509765625,0.03973388671875,0.95281982421875
1631106804703,-0.27740478515625,0.04107666015625,0.957763671875
1631106804706,-0.2767333984375,0.0474853515625,0.9593505859375
1631106804782,-0.28314208984375,0.04669189453125,0.95037841796875
1631106804782,-0.28125,0.04827880859375,0.958251953125
1631106804782,-0.27935791015625,0.04656982421875,0.96282958984375
1631106804840,-0.28240966796875,0.0479736328125,0.95074462890625
1631106804840,-0.2843017578125,0.042236328125,0.949951171875
1631106804840,-0.281494140625,0.0509033203125,0.9490966796875
1631106804887,-0.284423828125,0.03790283203125,0.95086669921875
1631106804887,-0.28460693359375,0.0308837890625,0.9503173828125
1631106804887,-0.28326416015625,0.02825927734375,0.94921875
1631106804940,-0.27935791015625,0.01824951171875,0.95135498046875
1631106804943,-0.279296875,0.025634765625,0.94903564453125
1631106804944,-0.281005859375,0.02313232421875,0.95196533203125
1631106805001,-0.2799072265625,0.0166015625,0.95550537109375
1631106805001,-0.2808837890625,0.01678466796875,0.95703125
1631106805001,-0.28076171875,0.02130126953125,0.95391845703125
1631106805090,-0.27923583984375,0.01788330078125,0.9560546875
1631106805090,-0.2744140625,0.0184326171875,0.9556884765625
1631106805090,-0.277587890625,0.01873779296875,0.9569091796875
1631106805121,-0.27734375,0.01776123046875,0.9521484375
1631106805121,-0.27655029296875,0.01629638671875,0.95562744140625
1631106805121,-0.2734375,0.0177001953125,0.956787109375
1631106805184,-0.27392578125,0.01690673828125,0.9541015625
1631106805184,-0.27398681640625,0.01617431640625,0.9576416015625
1631106805262,-0.2730712890625,0.0135498046875,0.95745849609375
1631106805263,-0.275634765625,0.01416015625,0.9583740234375
1631106805264,-0.27398681640625,0.01788330078125,0.9600830078125
1631106805296,-0.2755126953125,0.01336669921875,0.9580078125
1631106805296,-0.27166748046875,0.01458740234375,0.95635986328125
1631106805296,-0.27593994140625,0.01849365234375,0.9603271484375
1631106805358,-0.27703857421875,0.016845703125,0.95654296875
1631106805358,-0.2755126953125,0.01727294921875,0.957763671875
1631106805358,-0.27447509765625,0.0145263671875,0.95843505859375
1631106805452,-0.2767333984375,0.01446533203125,0.955078125
1631106805452,-0.27642822265625,0.01397705078125,0.954345703125
1631106805468,-0.277099609375,0.0133056640625,0.9530029296875
1631106805515,-0.27313232421875,0.01373291015625,0.9530029296875
1631106805515,-0.27398681640625,0.01678466796875,0.95458984375
1631106805515,-0.27508544921875,0.01739501953125,0.9534912109375
1631106805531,-0.2777099609375,0.0150146484375,0.9566650390625
1631106805531,-0.2752685546875,0.01397705078125,0.95697021484375
1631106805531,-0.2781982421875,0.014404296875,0.9583740234375
1631106805608,-0.27581787109375,0.01556396484375,0.9603271484375
1631106805608,-0.2783203125,0.0068359375,0.95306396484375
1631106805608,-0.27508544921875,0.00775146484375,0.9605712890625
1631106805655,-0.27398681640625,0.01458740234375,0.9442138671875
1631106805655,-0.275634765625,0.017578125,0.94842529296875
1631106805655,-0.27410888671875,0.00543212890625,0.946533203125
1631106805775,-0.27008056640625,0.0098876953125,0.96246337890625
1631106805775,-0.2747802734375,0.0137939453125,0.95294189453125
1631106805775,-0.2728271484375,0.01068115234375,0.95654296875
1631106805775,-0.27142333984375,0.00750732421875,0.95880126953125
1631106805775,-0.26934814453125,0.01068115234375,0.95831298828125
1631106805775,-0.27130126953125,0.006103515625,0.9613037109375
1631106805838,-0.275634765625,0.00823974609375,0.95440673828125
1631106805838,-0.2723388671875,0.00579833984375,0.9583740234375
1631106805838,-0.27496337890625,0.0052490234375,0.95513916015625
1631106805868,-0.2728271484375,0.007080078125,0.955078125
1631106805868,-0.27490234375,0.0125732421875,0.95501708984375
1631106805868,-0.27423095703125,0.0098876953125,0.95263671875
1631106805993,-0.2767333984375,0.01007080078125,0.954833984375
1631106805993,-0.27667236328125,0.01318359375,0.95770263671875
1631106805993,-0.27935791015625,0.01202392578125,0.9541015625
1631106806040,-0.2781982421875,0.0150146484375,0.9561767578125
1631106806040,-0.279052734375,0.015625,0.95361328125
1631106806040,-0.277099609375,0.0164794921875,0.95452880859375
1631106806087,-0.28289794921875,0.0172119140625,0.95123291015625
1631106806087,-0.27838134765625,0.0179443359375,0.95404052734375
1631106806087,-0.28143310546875,0.01507568359375,0.9552001953125
1631106806165,-0.283203125,0.01593017578125,0.95269775390625
1631106806165,-0.2779541015625,0.013671875,0.952880859375
1631106806165,-0.284912109375,0.018310546875,0.951171875
1631106806197,-0.2796630859375,0.0118408203125,0.9515380859375
1631106806197,-0.28094482421875,0.014404296875,0.94915771484375
1631106806197,-0.282958984375,0.013916015625,0.951416015625
1631106806259,-0.279541015625,0.01019287109375,0.95001220703125
1631106806259,-0.28094482421875,0.01397705078125,0.947021484375
1631106806259,-0.2764892578125,0.0123291015625,0.95147705078125
1631106806307,-0.2784423828125,0.01055908203125,0.95404052734375
1631106806307,-0.27337646484375,0.00714111328125,0.95880126953125
1631106806307,-0.27630615234375,0.01171875,0.9537353515625
1631106806403,-0.278076171875,0.010498046875,0.95843505859375
1631106806403,-0.2767333984375,0.010009765625,0.95819091796875
1631106806403,-0.27642822265625,0.008056640625,0.96075439453125
1631106806418,-0.278564453125,0.018798828125,0.9549560546875
1631106806418,-0.27471923828125,0.01190185546875,0.9580078125
1631106806418,-0.278564453125,0.01397705078125,0.95574951171875
1631106806481,-0.2772216796875,0.01446533203125,0.95599365234375
1631106806496,-0.27777099609375,0.01409912109375,0.95330810546875
1631106806496,-0.28082275390625,0.01739501953125,0.953125
1631106806559,-0.2803955078125,0.01666259765625,0.9544677734375
1631106806574,-0.28521728515625,0.01251220703125,0.96051025390625
1631106806574,-0.28289794921875,0.01824951171875,0.9610595703125
1631106806606,-0.283447265625,0.0108642578125,0.9490966796875
1631106806606,-0.285400390625,0.02099609375,0.94525146484375
1631106806606,-0.2850341796875,0.01416015625,0.94769287109375
1631106806684,-0.2803955078125,0.0167236328125,0.9476318359375
1631106806684,-0.2786865234375,0.02142333984375,0.94476318359375
1631106806684,-0.2822265625,0.0186767578125,0.9453125
1631106806731,-0.277587890625,0.01361083984375,0.95745849609375
1631106806731,-0.27899169921875,0.013427734375,0.94952392578125
1631106806731,-0.27490234375,0.00921630859375,0.94952392578125
1631106806762,-0.27886962890625,0.009033203125,0.959716796875
1631106806762,-0.2796630859375,0.01312255859375,0.96002197265625
1631106806778,-0.27880859375,0.0113525390625,0.9583740234375
1631106806871,-0.27545166015625,0.01470947265625,0.95703125
1631106806871,-0.2786865234375,0.010009765625,0.9549560546875
1631106806871,-0.27838134765625,0.013671875,0.95892333984375
1631106806887,-0.279541015625,0.012939453125,0.9549560546875
1631106806887,-0.28265380859375,0.0067138671875,0.95343017578125
1631106806887,-0.28436279296875,0.014404296875,0.954345703125
1631106806949,-0.28045654296875,0.0,0.95355224609375
1631106806949,-0.28436279296875,0.0130615234375,0.9521484375
1631106806949,-0.281982421875,0.0130615234375,0.9534912109375
1631106807012,-0.28118896484375,0.015380859375,0.9541015625
1631106807028,-0.2880859375,0.013916015625,0.95550537109375
1631106807028,-0.28350830078125,0.01495361328125,0.95294189453125
1631106807059,-0.2886962890625,0.0128173828125,0.95196533203125
1631106807059,-0.28216552734375,0.01397705078125,0.94866943359375
1631106807074,-0.2847900390625,0.01324462890625,0.949462890625
1631106807137,-0.283203125,0.01654052734375,0.95062255859375
1631106807137,-0.28424072265625,0.01605224609375,0.94769287109375
1631106807137,-0.28277587890625,0.02191162109375,0.9501953125
1631106807199,-0.28369140625,0.0203857421875,0.95062255859375
1631106807199,-0.2818603515625,0.01788330078125,0.94903564453125
1631106807199,-0.27947998046875,0.0181884765625,0.95111083984375
1631106807262,-0.27874755859375,0.018310546875,0.9532470703125
1631106807262,-0.2783203125,0.0166015625,0.95391845703125
1631106807309,-0.2755126953125,0.01690673828125,0.95513916015625
1631106807312,-0.279296875,0.01214599609375,0.9593505859375
1631106807316,-0.27618408203125,0.01641845703125,0.958251953125
1631106807376,-0.27606201171875,0.015380859375,0.95623779296875
1631106807376,-0.2772216796875,0.018310546875,0.95855712890625
1631106807392,-0.27874755859375,0.0162353515625,0.95452880859375
1631106807423,-0.2796630859375,0.0169677734375,0.95526123046875
1631106807423,-0.2752685546875,0.01947021484375,0.95098876953125
1631106807423,-0.2833251953125,0.015869140625,0.9503173828125
1631106807485,-0.2825927734375,0.0169677734375,0.954345703125
1631106807485,-0.2794189453125,0.01519775390625,0.9510498046875
1631106807485,-0.28509521484375,0.0145263671875,0.95306396484375
1631106807532,-0.280517578125,0.01165771484375,0.94903564453125
1631106807532,-0.28411865234375,0.01629638671875,0.95904541015625
1631106807532,-0.28350830078125,0.0179443359375,0.958740234375
1631106807610,-0.283203125,0.0191650390625,0.9461669921875
1631106807610,-0.28033447265625,0.02227783203125,0.95233154296875
1631106807610,-0.2855224609375,0.0133056640625,0.94586181640625
1631106807673,-0.2786865234375,0.01837158203125,0.95257568359375
1631106807673,-0.2786865234375,0.017822265625,0.95135498046875
1631106807673,-0.28125,0.01934814453125,0.951171875
1631106807704,-0.28192138671875,0.02008056640625,0.96051025390625
1631106807704,-0.27581787109375,0.01568603515625,0.95391845703125
1631106807704,-0.283203125,0.01507568359375,0.96099853515625
1631106807813,-0.281494140625,0.01220703125,0.949462890625
1631106807813,-0.28167724609375,0.00946044921875,0.95635986328125
1631106807813,-0.28057861328125,0.0087890625,0.95404052734375
1631106807845,-0.28228759765625,0.01666259765625,0.95294189453125
1631106807845,-0.28155517578125,0.012451171875,0.95098876953125
1631106807845,-0.27813720703125,0.0076904296875,0.9532470703125
1631106807891,-0.2830810546875,0.01605224609375,0.95245361328125
1631106807891,-0.28515625,0.0145263671875,0.95135498046875
1631106807891,-0.28741455078125,0.01812744140625,0.9530029296875
1631106807970,-0.28155517578125,0.02032470703125,0.9525146484375
1631106807986,-0.281005859375,0.0166015625,0.95440673828125
1631106807986,-0.2789306640625,0.01727294921875,0.9530029296875
1631106808032,-0.2802734375,0.019287109375,0.9541015625
1631106808032,-0.2823486328125,0.01873779296875,0.95550537109375
1631106808032,-0.28057861328125,0.01763916015625,0.9547119140625
1631106808063,-0.28143310546875,0.02056884765625,0.9537353515625
1631106808063,-0.28265380859375,0.016845703125,0.95379638671875
1631106808063,-0.280517578125,0.02081298828125,0.9534912109375
1631106808141,-0.2808837890625,0.023193359375,0.9515380859375
1631106808141,-0.2828369140625,0.02032470703125,0.95233154296875
1631106808141,-0.28314208984375,0.0208740234375,0.949951171875
1631106808204,-0.27838134765625,0.01507568359375,0.95306396484375
1631106808204,-0.27960205078125,0.0135498046875,0.954345703125
1631106808204,-0.28076171875,0.01788330078125,0.952392578125
1631106808251,-0.27716064453125,0.00860595703125,0.958251953125
1631106808251,-0.27392578125,0.0118408203125,0.9552001953125
1631106808251,-0.27508544921875,0.01153564453125,0.95440673828125
1631106808314,-0.27850341796875,0.01483154296875,0.95452880859375
1631106808329,-0.279052734375,0.01885986328125,0.957763671875
1631106808380,-0.28192138671875,0.01495361328125,0.95050048828125
1631106808380,-0.28167724609375,0.01580810546875,0.9515380859375
1631106808380,-0.2806396484375,0.0155029296875,0.95489501953125
1631106808425,-0.28118896484375,0.01483154296875,0.9520263671875
1631106808425,-0.2867431640625,0.0174560546875,0.95220947265625
1631106808441,-0.28204345703125,0.01861572265625,0.95013427734375
1631106808488,-0.28326416015625,0.0189208984375,0.9527587890625
1631106808488,-0.284423828125,0.01873779296875,0.95123291015625
1631106808488,-0.28277587890625,0.02081298828125,0.955322265625
1631106808566,-0.28350830078125,0.020751953125,0.95611572265625
1631106808566,-0.28265380859375,0.02142333984375,0.9537353515625
1631106808566,-0.28497314453125,0.01715087890625,0.95751953125
1631106808628,-0.28802490234375,0.013671875,0.9466552734375
1631106808628,-0.28717041015625,0.0220947265625,0.947509765625
1631106808628,-0.286376953125,0.010986328125,0.9483642578125
1631106808681,-0.27874755859375,0.0225830078125,0.94622802734375
1631106808681,-0.28326416015625,0.0223388671875,0.95159912109375
1631106808681,-0.28106689453125,0.02642822265625,0.952880859375
1631106808744,-0.28204345703125,0.019775390625,0.9532470703125
1631106808744,-0.28143310546875,0.0233154296875,0.95306396484375
1631106808744,-0.28057861328125,0.02044677734375,0.95849609375
1631106808790,-0.28363037109375,0.01025390625,0.9527587890625
1631106808790,-0.281494140625,0.01324462890625,0.95379638671875
1631106808791,-0.28631591796875,0.015625,0.95916748046875
1631106808852,-0.28399658203125,0.02130126953125,0.95172119140625
1631106808852,-0.28424072265625,0.02056884765625,0.9482421875
1631106808852,-0.28411865234375,0.02099609375,0.95379638671875
1631106808899,-0.2825927734375,0.02569580078125,0.9527587890625
1631106808899,-0.28167724609375,0.01953125,0.94866943359375
1631106808899,-0.2822265625,0.02294921875,0.95367431640625
1631106808977,-0.28759765625,0.02423095703125,0.950927734375
1631106808977,-0.2864990234375,0.0247802734375,0.95452880859375
1631106808977,-0.28253173828125,0.02471923828125,0.9525146484375
1631106809024,-0.28411865234375,0.0244140625,0.95526123046875
1631106809039,-0.28692626953125,0.02490234375,0.95367431640625
1631106809039,-0.28302001953125,0.024658203125,0.953857421875
1631106809074,-0.28594970703125,0.02880859375,0.9521484375
1631106809090,-0.28424072265625,0.02655029296875,0.9520263671875
1631106809090,-0.28399658203125,0.0277099609375,0.95086669921875
1631106809139,-0.287109375,0.028076171875,0.95294189453125
1631106809139,-0.28717041015625,0.029052734375,0.9481201171875
1631106809139,-0.28375244140625,0.030029296875,0.95013427734375
1631106809217,-0.28814697265625,0.02587890625,0.9485473632812
1631106809217,-0.2860107421875,0.0269775390625,0.95135498046875
1631106809248,-0.2821044921875,0.0208740234375,0.950439453125
1631106809248,-0.2806396484375,0.0203857421875,0.95111083984375
1631106809248,-0.28399658203125,0.0244140625,0.9505615234375
1631106809311,-0.2816162109375,0.0233154296875,0.9532470703125
1631106809311,-0.28167724609375,0.0247802734375,0.95257568359375
1631106809311,-0.283447265625,0.020263671875,0.95257568359375
1631106809373,-0.279052734375,0.02301025390625,0.9554443359375
1631106809373,-0.2811279296875,0.0257568359375,0.95556640625
1631106809373,-0.2845458984375,0.0284423828125,0.9556884765625
1631106809436,-0.28289794921875,0.02679443359375,0.958984375
1631106809436,-0.27960205078125,0.02581787109375,0.953125
1631106809436,-0.28369140625,0.02288818359375,0.95526123046875
1631106809482,-0.28265380859375,0.0269775390625,0.95098876953125
1631106809482,-0.28338623046875,0.02947998046875,0.953369140625
1631106809482,-0.28778076171875,0.02752685546875,0.95111083984375
1631106809548,-0.2860107421875,0.02862548828125,0.951416015625
1631106809548,-0.28045654296875,0.02783203125,0.95062255859375
1631106809548,-0.285888671875,0.0264892578125,0.94976806640625
1631106809624,-0.286865234375,0.01873779296875,0.9461669921875
1631106809624,-0.28680419921875,0.02288818359375,0.95245361328125
1631106809625,-0.28912353515625,0.02569580078125,0.9580078125
1631106809640,-0.28192138671875,0.03179931640625,0.94866943359375
1631106809640,-0.287109375,0.03533935546875,0.95013427734375
1631106809640,-0.28668212890625,0.02435302734375,0.9461669921875
1631106809726,-0.285400390625,0.02899169921875,0.94927978515625
1631106809726,-0.28314208984375,0.031982421875,0.9464111328125
1631106809726,-0.2821044921875,0.0279541015625,0.95196533203125
1631106809805,-0.2855224609375,0.02197265625,0.9569091796875
1631106809805,-0.28564453125,0.0279541015625,0.96173095703125
1631106809805,-0.28125,0.028564453125,0.95867919921875
1631106809866,-0.2835693359375,0.02349853515625,0.95697021484375
1631106809867,-0.2882080078125,0.029541015625,0.952880859375
1631106809868,-0.283935546875,0.0291748046875,0.95257568359375
1631106809907,-0.28118896484375,0.0263671875,0.95465087890625
1631106809923,-0.2860107421875,0.02764892578125,0.95416259765625
1631106809923,-0.28411865234375,0.02935791015625,0.9482421875
1631106809985,-0.28570556640625,0.03289794921875,0.9512939453125
1631106809985,-0.28631591796875,0.03271484375,0.95294189453125
1631106809985,-0.2862548828125,0.03033447265625,0.95208740234375
1631106810001,-0.28619384765625,0.03131103515625,0.95123291015625
1631106810001,-0.28741455078125,0.03326416015625,0.951171875
1631106810001,-0.28765869140625,0.02972412109375,0.9539794921875
1631106810124,-0.28594970703125,0.033935546875,0.94970703125
1631106810124,-0.28424072265625,0.03057861328125,0.95416259765625
1631106810124,-0.28802490234375,0.030029296875,0.9505615234375
1631106810155,-0.28973388671875,0.0325927734375,0.94818115234375
1631106810155,-0.28643798828125,0.033935546875,0.95135498046875
1631106810155,-0.2862548828125,0.0330810546875,0.95050048828125
1631106810217,-0.2879638671875,0.03173828125,0.9493408203125
1631106810217,-0.290283203125,0.02996826171875,0.94732666015625
1631106810217,-0.2882080078125,0.02972412109375,0.9478759765625
1631106810264,-0.2877197265625,0.02862548828125,0.95013427734375
1631106810264,-0.28863525390625,0.0306396484375,0.94732666015625
1631106810264,-0.28973388671875,0.0283203125,0.94732666015625
1631106810311,-0.2861328125,0.0252685546875,0.952880859375
1631106810311,-0.28692626953125,0.02734375,0.952880859375
1631106810311,-0.28619384765625,0.027099609375,0.9534912109375
1631106810405,-0.28692626953125,0.0294189453125,0.95501708984375
1631106810405,-0.2852783203125,0.03070068359375,0.9530029296875
1631106810405,-0.28546142578125,0.0283203125,0.953369140625
1631106810467,-0.28594970703125,0.0311279296875,0.95361328125
1631106810467,-0.28472900390625,0.0357666015625,0.951904296875
1631106810467,-0.28460693359375,0.03143310546875,0.9560546875
1631106810514,-0.28765869140625,0.03021240234375,0.94970703125
1631106810514,-0.28643798828125,0.03173828125,0.953125
1631106810514,-0.28741455078125,0.029541015625,0.955810546875
1631106810577,-0.288818359375,0.03521728515625,0.9512939453125
1631106810577,-0.29071044921875,0.03009033203125,0.94940185546875
1631106810577,-0.2891845703125,0.03326416015625,0.9522705078125
1631106810639,-0.2872314453125,0.033935546875,0.95147705078125
1631106810639,-0.2884521484375,0.0303955078125,0.95147705078125
1631106810639,-0.2867431640625,0.031005859375,0.94677734375
1631106810670,-0.2901611328125,0.0299072265625,0.95721435546875
1631106810670,-0.29205322265625,0.02642822265625,0.95245361328125
1631106810670,-0.2904052734375,0.02520751953125,0.94439697265625
1631106810748,-0.28253173828125,0.03564453125,0.94964599609375
1631106810748,-0.2900390625,0.03814697265625,0.94964599609375
1631106810748,-0.2904052734375,0.0277099609375,0.9464111328125
1631106810795,-0.28619384765625,0.0322265625,0.9483642578125
1631106810795,-0.28515625,0.0325927734375,0.9517822265625
1631106810795,-0.28326416015625,0.03485107421875,0.95135498046875
1631106810861,-0.2880859375,0.024169921875,0.95989990234375
1631106810861,-0.28375244140625,0.02728271484375,0.9569091796875
1631106810861,-0.2890625,0.02276611328125,0.958251953125
1631106810907,-0.28857421875,0.02496337890625,0.95196533203125
1631106810907,-0.28955078125,0.02520751953125,0.94769287109375
1631106810907,-0.2880859375,0.02874755859375,0.9503173828125
1631106810970,-0.2919921875,0.02423095703125,0.948486328125
1631106810970,-0.2900390625,0.02734375,0.94921875
1631106810985,-0.29107666015625,0.0296630859375,0.94732666015625
1631106811032,-0.2869873046875,0.02899169921875,0.94659423828125
1631106811032,-0.2877197265625,0.025390625,0.949462890625
1631106811032,-0.28656005859375,0.0303955078125,0.94873046875
1631106811095,-0.28936767578125,0.0313720703125,0.9521484375
1631106811095,-0.29010009765625,0.0338134765625,0.953125
1631106811095,-0.2886962890625,0.032470703125,0.94976806640625
1631106811142,-0.2882080078125,0.032470703125,0.9510498046875
1631106811142,-0.28729248046875,0.03045654296875,0.9500732421875
1631106811142,-0.29034423828125,0.0311279296875,0.95379638671875
1631106811208,-0.28759765625,0.032958984375,0.95220947265625
1631106811208,-0.28741455078125,0.03533935546875,0.94940185546875
1631106811208,-0.28619384765625,0.03277587890625,0.951416015625
1631106811254,-0.28985595703125,0.0308837890625,0.95147705078125
1631106811254,-0.28961181640625,0.031005859375,0.94769287109375
1631106811270,-0.28759765625,0.031982421875,0.95123291015625
1631106811348,-0.285400390625,0.02276611328125,0.94866943359375
1631106811364,-0.28753662109375,0.02508544921875,0.949462890625
1631106811364,-0.28729248046875,0.02362060546875,0.94891357421875
1631106811364,-0.28582763671875,0.02459716796875,0.951904296875
1631106811364,-0.28363037109375,0.02520751953125,0.95135498046875
1631106811364,-0.28717041015625,0.023681640625,0.95721435546875
1631106811458,-0.28173828125,0.0260009765625,0.95220947265625
1631106811473,-0.28411865234375,0.0245361328125,0.95477294921875
1631106811473,-0.2880859375,0.02490234375,0.9542236328125
1631106811489,-0.28546142578125,0.02960205078125,0.95635986328125
1631106811489,-0.28240966796875,0.027099609375,0.95440673828125
1631106811489,-0.28643798828125,0.030029296875,0.952880859375
1631106811551,-0.28912353515625,0.030029296875,0.9501953125
1631106811567,-0.28680419921875,0.02978515625,0.95068359375
1631106811567,-0.2872314453125,0.03070068359375,0.95184326171875
1631106811614,-0.28680419921875,0.03204345703125,0.948486328125
1631106811614,-0.2869873046875,0.02880859375,0.94677734375
1631106811614,-0.28924560546875,0.028564453125,0.94708251953125
1631106811662,-0.2889404296875,0.02630615234375,0.95025634765625
1631106811662,-0.28790283203125,0.030029296875,0.9488525390625
1631106811663,-0.29510498046875,0.0274658203125,0.94989013671875
1631106811723,-0.2916259765625,0.03472900390625,0.95050048828125
1631106811724,-0.29278564453125,0.0262451171875,0.95599365234375
1631106811725,-0.2890625,0.026123046875,0.9547119140625
1631106811774,-0.2845458984375,0.0372314453125,0.94769287109375
1631106811780,-0.29266357421875,0.03240966796875,0.947265625
1631106811780,-0.2877197265625,0.02001953125,0.947509765625
1631106811856,-0.28533935546875,0.03369140625,0.95123291015625
1631106811870,-0.28509521484375,0.03741455078125,0.9483642578125
1631106811870,-0.28277587890625,0.0343017578125,0.9541015625
1631106811906,-0.2794189453125,0.031982421875,0.9521484375
1631106811906,-0.2857666015625,0.02471923828125,0.95819091796875
1631106811906,-0.2860107421875,0.0294189453125,0.9569091796875
1631106811967,-0.287109375,0.0244140625,0.94976806640625
1631106811968,-0.28863525390625,0.02362060546875,0.946533203125
1631106811968,-0.2874755859375,0.0230712890625,0.95654296875
1631106812040,-0.2894287109375,0.0296630859375,0.94854736328125
1631106812040,-0.28564453125,0.02886962890625,0.94842529296875
1631106812040,-0.288330078125,0.02606201171875,0.94970703125
1631106812087,-0.286865234375,0.02960205078125,0.95477294921875
1631106812087,-0.2896728515625,0.031005859375,0.949951171875
1631106812087,-0.287353515625,0.02960205078125,0.9515380859375
1631106812150,-0.287353515625,0.03216552734375,0.9525146484375
1631106812167,-0.28704833984375,0.03424072265625,0.949951171875
1631106812167,-0.28826904296875,0.0311279296875,0.94989013671875
1631106812199,-0.285888671875,0.0318603515625,0.95458984375
1631106812199,-0.287353515625,0.033447265625,0.95147705078125
1631106812199,-0.28521728515625,0.0343017578125,0.95330810546875
1631106812261,-0.287109375,0.03436279296875,0.95050048828125
1631106812261,-0.2861328125,0.032958984375,0.952880859375
1631106812261,-0.28839111328125,0.0308837890625,0.95220947265625
1631106812339,-0.2874755859375,0.03302001953125,0.95062255859375
1631106812339,-0.28680419921875,0.03460693359375,0.94818115234375
1631106812339,-0.28973388671875,0.0367431640625,0.94720458984375
1631106812370,-0.28619384765625,0.02777099609375,0.94525146484375
1631106812370,-0.28961181640625,0.02752685546875,0.94921875
1631106812370,-0.2884521484375,0.03009033203125,0.94512939453125
1631106812433,-0.2879638671875,0.02972412109375,0.95159912109375
1631106812433,-0.28546142578125,0.02911376953125,0.9508056640625
1631106812433,-0.2882080078125,0.0264892578125,0.95306396484375
1631106812495,-0.28594970703125,0.031982421875,0.9534912109375
1631106812495,-0.2894287109375,0.02899169921875,0.95452880859375
1631106812511,-0.2850341796875,0.03265380859375,0.95068359375
1631106812560,-0.28546142578125,0.0321044921875,0.9549560546875
1631106812560,-0.28662109375,0.0308837890625,0.9542236328125
1631106812560,-0.2838134765625,0.03265380859375,0.95294189453125
1631106812620,-0.2847900390625,0.033935546875,0.95465087890625
1631106812620,-0.2860107421875,0.0323486328125,0.953857421875
1631106812681,-0.28662109375,0.029541015625,0.953369140625
1631106812681,-0.28839111328125,0.0311279296875,0.95037841796875
1631106812682,-0.287841796875,0.03167724609375,0.94873046875
1631106812744,-0.285400390625,0.03057861328125,0.94976806640625
1631106812744,-0.28656005859375,0.0306396484375,0.9503173828125
1631106812744,-0.2879638671875,0.031982421875,0.94708251953125
1631106812812,-0.2900390625,0.0328369140625,0.9549560546875
1631106812812,-0.28515625,0.0367431640625,0.94903564453125
1631106812812,-0.2845458984375,0.03656005859375,0.95037841796875
1631106812869,-0.291015625,0.02545166015625,0.95294189453125
1631106812869,-0.2908935546875,0.026611328125,0.94598388671875
1631106812870,-0.288330078125,0.03216552734375,0.9488525390625
1631106812931,-0.28863525390625,0.0364990234375,0.94683837890625
1631106812937,-0.2872314453125,0.04107666015625,0.95196533203125
1631106812949,-0.29022216796875,0.03753662109375,0.95263671875
1631106812966,-0.2880859375,0.03167724609375,0.95458984375
1631106812977,-0.2816162109375,0.0338134765625,0.95025634765625
1631106812977,-0.285888671875,0.03656005859375,0.95257568359375
1631106813041,-0.28778076171875,0.033447265625,0.9559326171875
1631106813041,-0.29119873046875,0.02703857421875,0.956787109375
1631106813042,-0.28985595703125,0.02606201171875,0.95159912109375
1631106813103,-0.29095458984375,0.029296875,0.94842529296875
1631106813103,-0.2900390625,0.0299072265625,0.94537353515625
1631106813103,-0.29107666015625,0.03143310546875,0.94635009765625
1631106813134,-0.29241943359375,0.035400390625,0.95135498046875
1631106813134,-0.2940673828125,0.0306396484375,0.94781494140625
1631106813135,-0.2899169921875,0.02899169921875,0.9522705078125
1631106813212,-0.29058837890625,0.033935546875,0.95001220703125
1631106813212,-0.28411865234375,0.03369140625,0.94879150390625
1631106813274,-0.2911376953125,0.03515625,0.95001220703125
1631106813274,-0.290771484375,0.03753662109375,0.952392578125
1631106813274,-0.29046630859375,0.03436279296875,0.9521484375
1631106813322,-0.28515625,0.03594970703125,0.9498291015625
1631106813322,-0.29095458984375,0.03314208984375,0.9505615234375
1631106813385,-0.28692626953125,0.03515625,0.94891357421875
1631106813385,-0.28936767578125,0.034912109375,0.94921875
1631106813386,-0.28765869140625,0.0343017578125,0.9486083984375
1631106813448,-0.288818359375,0.02862548828125,0.94805908203125
1631106813449,-0.2904052734375,0.02911376953125,0.94830322265625
1631106813494,-0.2862548828125,0.0291748046875,0.9512939453125
1631106813494,-0.28973388671875,0.030029296875,0.95416259765625
1631106813494,-0.29345703125,0.0313720703125,0.951904296875
1631106813560,-0.28790283203125,0.0306396484375,0.9544677734375
1631106813560,-0.28851318359375,0.02972412109375,0.95208740234375
1631106813561,-0.28521728515625,0.03302001953125,0.951904296875
1631106813620,-0.2843017578125,0.03350830078125,0.9512939453125
1631106813620,-0.2852783203125,0.03173828125,0.95068359375
1631106813620,-0.28631591796875,0.0323486328125,0.9521484375
1631106813681,-0.28851318359375,0.03271484375,0.95257568359375
1631106813681,-0.2886962890625,0.03521728515625,0.94989013671875
1631106813681,-0.2906494140625,0.0345458984375,0.95367431640625
1631106813744,-0.28851318359375,0.0340576171875,0.951171875
1631106813744,-0.29473876953125,0.033447265625,0.94842529296875
1631106813744,-0.29071044921875,0.03326416015625,0.94952392578125
1631106813790,-0.29052734375,0.03045654296875,0.94659423828125
1631106813790,-0.29156494140625,0.03466796875,0.94427490234375
1631106813790,-0.293212890625,0.03350830078125,0.947265625
1631106813885,-0.29541015625,0.033447265625,0.95428466796875
1631106813885,-0.28955078125,0.0316162109375,0.9456787109375
1631106813887,-0.29486083984375,0.0335693359375,0.9478759765625
1631106813917,-0.2923583984375,0.02960205078125,0.9461669921875
1631106813918,-0.29534912109375,0.0299072265625,0.9578857421875
1631106813918,-0.29278564453125,0.02386474609375,0.94281005859375
1631106814025,-0.285400390625,0.032470703125,0.95361328125
1631106814025,-0.284912109375,0.0362548828125,0.94720458984375
1631106814025,-0.29168701171875,0.04022216796875,0.94940185546875
1631106814025,-0.28778076171875,0.037841796875,0.94830322265625
1631106814047,-0.2939453125,0.03375244140625,0.9490966796875
1631106814049,-0.2864990234375,0.039306640625,0.94610595703125
1631106814087,-0.2884521484375,0.028564453125,0.960205078125
1631106814087,-0.29168701171875,0.02105712890625,0.9530029296875
1631106814087,-0.28619384765625,0.03106689453125,0.958740234375
1631106814155,-0.29132080078125,0.0306396484375,0.9449462890625
1631106814155,-0.29046630859375,0.03033447265625,0.94927978515625
1631106814155,-0.2899169921875,0.02783203125,0.9490966796875
1631106814186,-0.2896728515625,0.03558349609375,0.951416015625
1631106814186,-0.2913818359375,0.0296630859375,0.9483642578125
1631106814186,-0.289306640625,0.031005859375,0.947021484375
1631106814280,-0.286865234375,0.03369140625,0.95391845703125
1631106814280,-0.29180908203125,0.03204345703125,0.9476318359375
1631106814280,-0.29150390625,0.034423828125,0.94927978515625
1631106814311,-0.28924560546875,0.03826904296875,0.955322265625
1631106814311,-0.2901611328125,0.0379638671875,0.94989013671875
1631106814312,-0.2908935546875,0.0374755859375,0.951904296875
1631106814388,-0.2890625,0.03668212890625,0.9490966796875
1631106814388,-0.287109375,0.035400390625,0.951904296875
1631106814435,-0.29266357421875,0.03692626953125,0.94891357421875
1631106814435,-0.28839111328125,0.0379638671875,0.95123291015625
1631106814450,-0.291259765625,0.03765869140625,0.95147705078125
1631106814522,-0.292724609375,0.029052734375,0.9468994140625
1631106814522,-0.2933349609375,0.0340576171875,0.949462890625
1631106814523,-0.28924560546875,0.03228759765625,0.9456787109375
1631106814593,-0.29095458984375,0.02947998046875,0.95208740234375
1631106814594,-0.290283203125,0.02764892578125,0.9495849609375
1631106814594,-0.29248046875,0.03082275390625,0.94769287109375
1631106814609,-0.28704833984375,0.03271484375,0.95074462890625
1631106814611,-0.28851318359375,0.03204345703125,0.950927734375
1631106814611,-0.290283203125,0.03399658203125,0.95172119140625
1631106814685,-0.29058837890625,0.0335693359375,0.9510498046875
1631106814685,-0.28594970703125,0.0372314453125,0.95147705078125
1631106814686,-0.29180908203125,0.03570556640625,0.95062255859375
1631106814701,-0.2884521484375,0.031982421875,0.95306396484375
1631106814701,-0.290771484375,0.03826904296875,0.9537353515625
1631106814706,-0.2864990234375,0.0322265625,0.9532470703125
1631106814778,-0.2906494140625,0.037109375,0.9501953125
1631106814778,-0.289794921875,0.03472900390625,0.95147705078125
1631106814793,-0.2860107421875,0.0362548828125,0.94659423828125
1631106814857,-0.2918701171875,0.03460693359375,0.9478759765625
1631106814857,-0.2916259765625,0.03497314453125,0.9500732421875
1631106814858,-0.288818359375,0.03118896484375,0.9476318359375
1631106814902,-0.28692626953125,0.03424072265625,0.94854736328125
1631106814918,-0.29290771484375,0.03350830078125,0.95166015625
1631106814918,-0.290283203125,0.031494140625,0.9586181640625
1631106814979,-0.29302978515625,0.033203125,0.94683837890625
1631106814979,-0.2923583984375,0.0245361328125,0.94610595703125
1631106814979,-0.29193115234375,0.04156494140625,0.94683837890625
1631106815026,-0.28839111328125,0.0411376953125,0.95086669921875
1631106815026,-0.29058837890625,0.04107666015625,0.94903564453125
1631106815026,-0.28631591796875,0.03607177734375,0.94879150390625
1631106815088,-0.28509521484375,0.03399658203125,0.9483642578125
1631106815088,-0.289794921875,0.0311279296875,0.95733642578125
1631106815088,-0.28955078125,0.03717041015625,0.94744873046875
1631106815165,-0.29022216796875,0.0323486328125,0.947509765625
1631106815167,-0.28741455078125,0.0323486328125,0.95611572265625
1631106815168,-0.29095458984375,0.0311279296875,0.95159912109375
1631106815229,-0.29168701171875,0.0389404296875,0.94598388671875
1631106815230,-0.2906494140625,0.0377197265625,0.9501953125
1631106815231,-0.295166015625,0.04119873046875,0.94598388671875
1631106815259,-0.29522705078125,0.0360107421875,0.9493408203125
1631106815260,-0.29180908203125,0.0347900390625,0.94854736328125
1631106815260,-0.2943115234375,0.03607177734375,0.94964599609375
1631106815307,-0.2911376953125,0.036376953125,0.94683837890625
1631106815307,-0.29193115234375,0.0364990234375,0.94891357421875
1631106815307,-0.29132080078125,0.04022216796875,0.94952392578125
1631106815401,-0.2921142578125,0.03778076171875,0.953857421875
1631106815401,-0.29083251953125,0.034912109375,0.9559326171875
1631106815401,-0.2923583984375,0.03619384765625,0.95416259765625
1631106815461,-0.28790283203125,0.04876708984375,0.9447021484375
1631106815461,-0.29669189453125,0.03875732421875,0.94976806640625
1631106815462,-0.29461669921875,0.040283203125,0.95440673828125
1631106815492,-0.2890625,0.0660400390625,0.945068359375
1631106815492,-0.283447265625,0.07501220703125,0.9508056640625
1631106815493,-0.291259765625,0.05224609375,0.94482421875
1631106815554,-0.2838134765625,0.0751953125,0.9534912109375
1631106815554,-0.2869873046875,0.0506591796875,0.95330810546875
1631106815555,-0.2857666015625,0.06268310546875,0.9534912109375
1631106815600,-0.28704833984375,0.0140380859375,0.94622802734375
1631106815601,-0.28509521484375,0.03826904296875,0.95166015625
1631106815601,-0.2860107421875,0.0216064453125,0.9486083984375
1631106815679,-0.2901611328125,0.0062255859375,0.94927978515625
1631106815679,-0.29229736328125,-0.01739501953125,0.9476318359375
1631106815679,-0.2877197265625,-0.00634765625,0.94647216796875
1631106815726,-0.29315185546875,-0.0216064453125,0.94769287109375
1631106815726,-0.2940673828125,-0.0286865234375,0.94873046875
1631106815773,-0.29254150390625,-0.0489501953125,0.9483642578125
1631106815773,-0.29364013671875,-0.04547119140625,0.94732666015625
1631106815773,-0.29486083984375,-0.0411376953125,0.946044921875
1631106815851,-0.29443359375,-0.0576171875,0.94342041015625
1631106815851,-0.2960205078125,-0.0634765625,0.947509765625
1631106815851,-0.296875,-0.0587158203125,0.9483642578125
1631106815898,-0.2994384765625,-0.0770263671875,0.94927978515625
1631106815898,-0.2989501953125,-0.08087158203125,0.9456787109375
1631106815898,-0.2950439453125,-0.0726318359375,0.94580078125
1631106815960,-0.2947998046875,-0.09515380859375,0.94140625
1631106815960,-0.29736328125,-0.08837890625,0.9493408203125
1631106815960,-0.29864501953125,-0.09979248046875,0.9393310546875
1631106816054,-0.29571533203125,-0.0966796875,0.93707275390625
1631106816054,-0.29559326171875,-0.09344482421875,0.9361572265625
1631106816055,-0.29779052734375,-0.0968017578125,0.93475341796875
1631106816091,-0.295166015625,-0.09906005859375,0.9400634765625
1631106816091,-0.2955322265625,-0.095703125,0.94073486328125
1631106816091,-0.29638671875,-0.0958251953125,0.9412841796875
1631106816138,-0.2962646484375,-0.09063720703125,0.94317626953125
1631106816138,-0.29644775390625,-0.09320068359375,0.940185546875
1631106816138,-0.295166015625,-0.09271240234375,0.94580078125
1631106816200,-0.2987060546875,-0.08514404296875,0.94549560546875
1631106816200,-0.2969970703125,-0.08526611328125,0.940185546875
1631106816200,-0.29473876953125,-0.08251953125,0.94610595703125
1631106816284,-0.2940673828125,-0.0745849609375,0.94805908203125
1631106816284,-0.29791259765625,-0.07855224609375,0.9486083984375
1631106816284,-0.29541015625,-0.07073974609375,0.94866943359375
1631106816315,-0.2921142578125,-0.06658935546875,0.94610595703125
1631106816315,-0.296142578125,-0.071044921875,0.94512939453125
1631106816315,-0.28985595703125,-0.0704345703125,0.94732666015625
1631106816378,-0.293701171875,-0.064453125,0.9500732421875
1631106816379,-0.29278564453125,-0.065673828125,0.95111083984375
1631106816393,-0.29443359375,-0.06591796875,0.94635009765625
1631106816426,-0.29534912109375,-0.0677490234375,0.9473876953125
1631106816441,-0.29620361328125,-0.06353759765625,0.9539794921875
1631106816441,-0.2921142578125,-0.0615234375,0.94866943359375
1631106816524,-0.297119140625,-0.06689453125,0.94293212890625
1631106816525,-0.297607421875,-0.06524658203125,0.94683837890625
1631106816525,-0.29486083984375,-0.06500244140625,0.94122314453125
1631106816570,-0.29510498046875,-0.070068359375,0.94158935546875
1631106816570,-0.29498291015625,-0.07275390625,0.94207763671875
1631106816570,-0.29595947265625,-0.07391357421875,0.93994140625
1631106816617,-0.2952880859375,-0.07415771484375,0.94195556640625
1631106816617,-0.29449462890625,-0.07440185546875,0.9432373046875
1631106816617,-0.2972412109375,-0.07440185546875,0.94329833984375
1631106816696,-0.2952880859375,-0.078857421875,0.94317626953125
1631106816697,-0.2940673828125,-0.07818603515625,0.94696044921875
1631106816713,-0.29351806640625,-0.078125,0.94317626953125
1631106816728,-0.2947998046875,-0.07598876953125,0.9459228515625
1631106816729,-0.29620361328125,-0.07720947265625,0.94390869140625
1631106816729,-0.29534912109375,-0.07135009765625,0.947021484375
1631106816820,-0.2940673828125,-0.07122802734375,0.94415283203125
1631106816820,-0.293701171875,-0.06842041015625,0.94720458984375
1631106816820,-0.29107666015625,-0.07049560546875,0.945068359375
1631106816853,-0.29022216796875,-0.06982421875,0.94744873046875
1631106816853,-0.29644775390625,-0.0650634765625,0.9537353515625
1631106816854,-0.2935791015625,-0.0667724609375,0.95184326171875
1631106816930,-0.2969970703125,-0.06524658203125,0.9443359375
1631106816946,-0.2977294921875,-0.06805419921875,0.9476318359375
1631106816949,-0.29974365234375,-0.0640869140625,0.95361328125
1631106816993,-0.29638671875,-0.059326171875,0.93829345703125
1631106816997,-0.29669189453125,-0.0604248046875,0.936767578125
1631106816999,-0.29638671875,-0.05902099609375,0.93719482421875
1631106817068,-0.29473876953125,-0.05548095703125,0.943115234375
1631106817068,-0.2943115234375,-0.05682373046875,0.94415283203125
1631106817068,-0.2982177734375,-0.06103515625,0.94110107421875
1631106817083,-0.29803466796875,-0.05718994140625,0.95037841796875
1631106817083,-0.29718017578125,-0.057373046875,0.94476318359375
1631106817084,-0.29388427734375,-0.05364990234375,0.9451904296875
1631106817146,-0.298828125,-0.05670166015625,0.943603515625
1631106817147,-0.301513671875,-0.06195068359375,0.94378662109375
1631106817147,-0.2999267578125,-0.05706787109375,0.94091796875
1631106817192,-0.29766845703125,-0.05645751953125,0.94097900390625
1631106817192,-0.29913330078125,-0.055908203125,0.9493408203125
1631106817193,-0.298095703125,-0.06427001953125,0.94842529296875
1631106817270,-0.298095703125,-0.0540771484375,0.945068359375
1631106817270,-0.29864501953125,-0.05694580078125,0.9462890625
1631106817270,-0.29766845703125,-0.0537109375,0.94677734375
1631106817316,-0.29840087890625,-0.05535888671875,0.94842529296875
1631106817316,-0.2978515625,-0.05780029296875,0.94940185546875
1631106817331,-0.297607421875,-0.05767822265625,0.94964599609375
1631106817394,-0.295654296875,-0.0606689453125,0.9462890625
1631106817394,-0.30120849609375,-0.0552978515625,0.94354248046875
1631106817395,-0.29754638671875,-0.0557861328125,0.9461669921875
1631106817460,-0.3001708984375,-0.053466796875,0.94317626953125
1631106817461,-0.29974365234375,-0.05316162109375,0.94281005859375
1631106817463,-0.3009033203125,-0.05902099609375,0.94049072265625
1631106817510,-0.2999267578125,-0.05340576171875,0.943115234375
1631106817511,-0.2987060546875,-0.06231689453125,0.9429931640625
1631106817511,-0.2977294921875,-0.05841064453125,0.94122314453125
1631106817573,-0.297607421875,-0.0589599609375,0.93988037109375
1631106817573,-0.297607421875,-0.06072998046875,0.94134521484375
1631106817573,-0.2999267578125,-0.06524658203125,0.9422607421875
1631106817633,-0.29876708984375,-0.0604248046875,0.945068359375
1631106817633,-0.29693603515625,-0.06085205078125,0.9437255859375
1631106817633,-0.298095703125,-0.062744140625,0.9464111328125
1631106817680,-0.3011474609375,-0.055908203125,0.94598388671875
1631106817681,-0.29876708984375,-0.0550537109375,0.94482421875
1631106817688,-0.30059814453125,-0.06005859375,0.9493408203125
1631106817726,-0.30120849609375,-0.05401611328125,0.94476318359375
1631106817726,-0.3038330078125,-0.05328369140625,0.945556640625
1631106817726,-0.30078125,-0.053466796875,0.9468994140625
1631106817807,-0.30120849609375,-0.05340576171875,0.94464111328125
1631106817807,-0.30291748046875,-0.051025390625,0.94378662109375
1631106817807,-0.3004150390625,-0.054931640625,0.948486328125
1631106817856,-0.30218505859375,-0.052001953125,0.94744873046875
1631106817856,-0.30474853515625,-0.05877685546875,0.94683837890625
1631106817856,-0.30609130859375,-0.0565185546875,0.95245361328125
1631106817919,-0.30712890625,-0.04852294921875,0.936279296875
1631106817919,-0.30670166015625,-0.056640625,0.93731689453125
1631106817919,-0.30584716796875,-0.0587158203125,0.93975830078125
1631106817981,-0.304931640625,-0.05047607421875,0.935302734375
1631106817981,-0.30487060546875,-0.04974365234375,0.9332275390625
1631106817981,-0.3048095703125,-0.04986572265625,0.93359375
1631106818044,-0.30145263671875,-0.0499267578125,0.9385986328125
1631106818044,-0.301513671875,-0.04998779296875,0.94622802734375
1631106818044,-0.30621337890625,-0.04833984375,0.94384765625
1631106818106,-0.30096435546875,-0.05694580078125,0.9417724609375
1631106818106,-0.30218505859375,-0.0516357421875,0.9453125
1631106818106,-0.30426025390625,-0.0528564453125,0.9481201171875
1631106818138,-0.303955078125,-0.05377197265625,0.9442138671875
1631106818138,-0.30279541015625,-0.05609130859375,0.9443359375
1631106818138,-0.30029296875,-0.05108642578125,0.9403076171875
1631106818200,-0.3040771484375,-0.0555419921875,0.9476318359375
1631106818200,-0.30120849609375,-0.05224609375,0.94732666015625
1631106818200,-0.2994384765625,-0.04931640625,0.94488525390625
1631106818263,-0.2979736328125,-0.047607421875,0.946533203125
1631106818263,-0.30218505859375,-0.04827880859375,0.947509765625
1631106818263,-0.30084228515625,-0.04974365234375,0.9434814453125
1631106818369,-0.301025390625,-0.04766845703125,0.94537353515625
1631106818369,-0.302001953125,-0.04888916015625,0.94757080078125
1631106818369,-0.30377197265625,-0.0477294921875,0.94586181640625
1631106818401,-0.30218505859375,-0.043701171875,0.9437255859375
1631106818401,-0.301513671875,-0.04632568359375,0.94281005859375
1631106818401,-0.29998779296875,-0.0474853515625,0.94378662109375
1631106818448,-0.30377197265625,-0.04156494140625,0.941650390625
1631106818448,-0.3037109375,-0.03985595703125,0.94207763671875
1631106818463,-0.2991943359375,-0.04193115234375,0.9383544921875
1631106818537,-0.2982177734375,-0.0379638671875,0.9425048828125
1631106818537,-0.30279541015625,-0.04071044921875,0.93817138671875
1631106818537,-0.3031005859375,-0.04107666015625,0.94036865234375
1631106818599,-0.29534912109375,-0.0419921875,0.94293212890625
1631106818599,-0.2994384765625,-0.043212890625,0.94146728515625
1631106818599,-0.29815673828125,-0.04888916015625,0.9442138671875
1631106818631,-0.29296875,-0.04833984375,0.9488525390625
1631106818631,-0.29473876953125,-0.04559326171875,0.94921875
1631106818631,-0.2947998046875,-0.05364990234375,0.95263671875
1631106818692,-0.29376220703125,-0.05194091796875,0.95111083984375
1631106818692,-0.2930908203125,-0.052001953125,0.9515380859375
1631106818692,-0.291015625,-0.053466796875,0.951904296875
1631106818739,-0.29638671875,-0.0526123046875,0.947509765625
1631106818740,-0.29119873046875,-0.0526123046875,0.9501953125
1631106818740,-0.29180908203125,-0.05535888671875,0.94989013671875
1631106818853,-0.29400634765625,-0.054443359375,0.94256591796875
1631106818853,-0.29681396484375,-0.05816650390625,0.94647216796875
1631106818855,-0.2926025390625,-0.0576171875,0.9493408203125
1631106818890,-0.29962158203125,-0.0611572265625,0.93902587890625
1631106818890,-0.297607421875,-0.05938720703125,0.9390869140625
1631106818890,-0.29864501953125,-0.05841064453125,0.9442138671875
1631106818936,-0.296142578125,-0.0596923828125,0.944580078125
1631106818936,-0.2979736328125,-0.05621337890625,0.941162109375
1631106818952,-0.29541015625,-0.06005859375,0.94775390625
1631106818983,-0.29388427734375,-0.064208984375,0.94610595703125
1631106818983,-0.2962646484375,-0.06695556640625,0.94439697265625
1631106818983,-0.297607421875,-0.06201171875,0.9515380859375
1631106819077,-0.2930908203125,-0.05987548828125,0.9434814453125
1631106819077,-0.29052734375,-0.051025390625,0.94635009765625
1631106819077,-0.295166015625,-0.0499267578125,0.9456787109375
1631106819108,-0.29132080078125,-0.0555419921875,0.944580078125
1631106819108,-0.28924560546875,-0.04998779296875,0.95263671875
1631106819108,-0.2933349609375,-0.04998779296875,0.947265625
1631106819140,-0.29205322265625,-0.05615234375,0.950927734375
1631106819140,-0.2921142578125,-0.05059814453125,0.9517822265625
1631106819140,-0.29254150390625,-0.05145263671875,0.955810546875
1631106819218,-0.29534912109375,-0.05340576171875,0.9442138671875
1631106819218,-0.296875,-0.04754638671875,0.94146728515625
1631106819218,-0.2938232421875,-0.053466796875,0.94940185546875
1631106819264,-0.30291748046875,-0.05029296875,0.94415283203125
1631106819264,-0.29705810546875,-0.052001953125,0.94195556640625
1631106819264,-0.299072265625,-0.0517578125,0.94183349609375
1631106819314,-0.30096435546875,-0.0484619140625,0.94207763671875
1631106819314,-0.30010986328125,-0.05181884765625,0.94378662109375
1631106819314,-0.29986572265625,-0.046630859375,0.9425048828125
1631106819392,-0.29962158203125,-0.05255126953125,0.94451904296875
1631106819392,-0.30126953125,-0.0498046875,0.942138671875
1631106819392,-0.30194091796875,-0.048583984375,0.94256591796875
1631106819454,-0.2994384765625,-0.0550537109375,0.94573974609375
1631106819454,-0.2991943359375,-0.0518798828125,0.94427490234375
1631106819454,-0.29840087890625,-0.0540771484375,0.9447021484375
1631106819509,-0.29583740234375,-0.04931640625,0.945068359375
1631106819509,-0.29766845703125,-0.05303955078125,0.94183349609375
1631106819509,-0.29669189453125,-0.04962158203125,0.9443359375
1631106819591,-0.300048828125,-0.05889892578125,0.9483642578125
1631106819591,-0.29937744140625,-0.05438232421875,0.94647216796875
1631106819591,-0.29559326171875,-0.0472412109375,0.946533203125
1631106819653,-0.2994384765625,-0.05621337890625,0.944091796875
1631106819669,-0.29473876953125,-0.04736328125,0.94573974609375
1631106819669,-0.29498291015625,-0.052734375,0.9443359375
1631106819727,-0.29412841796875,-0.04718017578125,0.94671630859375
1631106819727,-0.2965087890625,-0.04901123046875,0.94390869140625
1631106819727,-0.2952880859375,-0.04705810546875,0.9443359375
1631106819743,-0.29571533203125,-0.041259765625,0.9473876953125
1631106819743,-0.29461669921875,-0.0426025390625,0.94482421875
1631106819743,-0.29571533203125,-0.04052734375,0.94781494140625
1631106819790,-0.293701171875,-0.04345703125,0.9482421875
1631106819790,-0.2901611328125,-0.03564453125,0.9486083984375
1631106819790,-0.29736328125,-0.03656005859375,0.948974609375
1631106819852,-0.2955322265625,-0.0325927734375,0.948486328125
1631106819852,-0.2947998046875,-0.02899169921875,0.94921875
1631106819852,-0.29302978515625,-0.02752685546875,0.94964599609375
1631106819915,-0.2945556640625,-0.02557373046875,0.9461669921875
1631106819930,-0.294677734375,-0.02667236328125,0.94659423828125
1631106819930,-0.2930908203125,-0.029296875,0.95111083984375
1631106819993,-0.29400634765625,-0.02386474609375,0.94744873046875
1631106819993,-0.29473876953125,-0.02459716796875,0.94830322265625
1631106819993,-0.29193115234375,-0.01678466796875,0.94384765625
1631106820040,-0.29364013671875,-0.01171875,0.94842529296875
1631106820040,-0.29376220703125,-0.01727294921875,0.94976806640625
1631106820040,-0.29443359375,-0.013671875,0.954345703125
1631106820134,-0.29107666015625,-0.0106201171875,0.948486328125
1631106820134,-0.292724609375,-0.01251220703125,0.9515380859375
1631106820134,-0.2957763671875,-0.01629638671875,0.95001220703125
1631106820149,-0.29150390625,-0.00323486328125,0.94708251953125
1631106820149,-0.28765869140625,-0.00616455078125,0.9447021484375
1631106820149,-0.290283203125,-0.00384521484375,0.94384765625
1631106820211,-0.28912353515625,-0.0032958984375,0.95330810546875
1631106820211,-0.29180908203125,-0.00054931640625,0.95355224609375
1631106820211,-0.28985595703125,-0.006103515625,0.9486083984375
1631106820274,-0.28790283203125,-0.0025634765625,0.95477294921875
1631106820289,-0.28936767578125,-0.0040283203125,0.95208740234375
1631106820289,-0.2930908203125,-0.00421142578125,0.950439453125
1631106820320,-0.28973388671875,-0.00213623046875,0.94635009765625
1631106820339,-0.29022216796875,-0.00616455078125,0.9505615234375
1631106820339,-0.291259765625,-0.0040283203125,0.946533203125
1631106820417,-0.29339599609375,-0.00128173828125,0.95147705078125
1631106820417,-0.29266357421875,-0.00592041015625,0.951904296875
1631106820417,-0.29119873046875,-0.00445556640625,0.9483642578125
1631106820433,-0.29388427734375,0.00115966796875,0.95184326171875
1631106820433,-0.2884521484375,-0.00177001953125,0.94921875
1631106820433,-0.2864990234375,0.00390625,0.94757080078125
1631106820511,-0.292724609375,-0.002197265625,0.953125
1631106820511,-0.28948974609375,0.00042724609375,0.95379638671875
1631106820511,-0.29132080078125,-0.00128173828125,0.950439453125
1631106820558,-0.29376220703125,-0.00067138671875,0.94610595703125
1631106820558,-0.29193115234375,-0.0025634765625,0.9482421875
1631106820558,-0.2913818359375,-0.000732421875,0.95037841796875
1631106820620,-0.2884521484375,0.0029296875,0.9498291015625
1631106820620,-0.2916259765625,0.00311279296875,0.94964599609375
1631106820620,-0.28924560546875,0.0028076171875,0.9476318359375
1631106820682,-0.2900390625,0.0067138671875,0.948974609375
1631106820682,-0.2939453125,0.00408935546875,0.94921875
1631106820697,-0.28936767578125,0.00433349609375,0.951171875
1631106820728,-0.294677734375,0.0068359375,0.94891357421875
1631106820728,-0.29278564453125,0.0048828125,0.9512939453125
1631106820728,-0.28717041015625,0.0028076171875,0.95001220703125
1631106820808,-0.2921142578125,0.006103515625,0.94970703125
1631106820808,-0.28997802734375,0.0059814453125,0.9488525390625
1631106820808,-0.29144287109375,0.00799560546875,0.9541015625
1631106820871,-0.28948974609375,0.00823974609375,0.9488525390625
1631106820871,-0.2891845703125,0.004638671875,0.94830322265625
1631106820871,-0.29052734375,0.007080078125,0.9498291015625
1631106820902,-0.290771484375,0.01629638671875,0.94818115234375
1631106820902,-0.287109375,0.0128173828125,0.9481201171875
1631106820902,-0.29119873046875,0.01190185546875,0.9466552734375
1631106821004,-0.29254150390625,0.0,0.95196533203125
1631106821004,-0.294189453125,0.0137939453125,0.945556640625
1631106821004,-0.28839111328125,0.01531982421875,0.9495849609375
1631106821067,-0.29559326171875,0.010009765625,0.94970703125
1631106821067,-0.2947998046875,0.01507568359375,0.95068359375
1631106821067,-0.29351806640625,0.01104736328125,0.95166015625
1631106821101,-0.291259765625,0.00970458984375,0.95098876953125
1631106821101,-0.2911376953125,0.0081787109375,0.94915771484375
1631106821101,-0.29376220703125,0.00579833984375,0.9532470703125
1631106821179,-0.2938232421875,-0.00018310546875,0.9468994140625
1631106821179,-0.2938232421875,0.004638671875,0.9537353515625
1631106821195,-0.2877197265625,0.0040283203125,0.9471435546875
1631106821226,-0.2847900390625,0.00848388671875,0.9493408203125
1631106821226,-0.28466796875,0.01153564453125,0.945068359375
1631106821226,-0.28759765625,0.01092529296875,0.94293212890625
1631106821257,-0.28265380859375,0.00390625,0.95306396484375
1631106821257,-0.28125,0.0029296875,0.9556884765625
1631106821257,-0.28594970703125,0.0037841796875,0.9510498046875
1631106821323,-0.281982421875,0.0028076171875,0.95526123046875
1631106821323,-0.287109375,0.00048828125,0.95452880859375
1631106821323,-0.28521728515625,0.0042724609375,0.9537353515625
1631106821386,-0.28619384765625,0.00042724609375,0.94879150390625
1631106821386,-0.28460693359375,0.00140380859375,0.95294189453125
1631106821433,-0.28765869140625,-0.0008544921875,0.955322265625
1631106821433,-0.28582763671875,-0.00482177734375,0.9554443359375
1631106821433,-0.28790283203125,0.00323486328125,0.957275390625
1631106821511,-0.28314208984375,0.00628662109375,0.953857421875
1631106821511,-0.28607177734375,0.0069580078125,0.94976806640625
1631106821511,-0.29046630859375,0.00616455078125,0.95172119140625
1631106821605,-0.2911376953125,0.00775146484375,0.95208740234375
1631106821605,-0.2869873046875,0.01123046875,0.953125
1631106821605,-0.28839111328125,0.0079345703125,0.9580078125
1631106821636,-0.29248046875,0.00830078125,0.94921875
1631106821636,-0.288818359375,0.00433349609375,0.9525146484375
1631106821636,-0.29345703125,0.0064697265625,0.9488525390625
1631106821698,-0.2919921875,0.00714111328125,0.949462890625
1631106821698,-0.2947998046875,0.0054931640625,0.94891357421875
1631106821698,-0.29217529296875,0.00604248046875,0.94580078125
1631106821761,-0.29425048828125,0.00244140625,0.946044921875
1631106821761,-0.29315185546875,0.005615234375,0.94451904296875
1631106821761,-0.292236328125,0.00274658203125,0.94366455078125
1631106821823,-0.28851318359375,0.00177001953125,0.94952392578125
1631106821823,-0.2950439453125,0.00152587890625,0.9471435546875
1631106821823,-0.2921142578125,0.0020751953125,0.9459228515625
1631106821870,-0.29150390625,-0.0020751953125,0.94744873046875
1631106821870,-0.29290771484375,-0.00286865234375,0.951416015625
1631106821870,-0.292236328125,-0.00396728515625,0.95391845703125
1631106821948,-0.28692626953125,-0.00347900390625,0.9537353515625
1631106821948,-0.2891845703125,-0.00018310546875,0.9561767578125
1631106821964,-0.29412841796875,-0.00042724609375,0.9527587890625
1631106821995,-0.2899169921875,0.00128173828125,0.951904296875
1631106821995,-0.293701171875,0.00390625,0.9495849609375
1631106821995,-0.29693603515625,0.0008544921875,0.9461669921875
1631106822089,-0.294677734375,0.0045166015625,0.94775390625
1631106822089,-0.29339599609375,0.00506591796875,0.950927734375
1631106822089,-0.2930908203125,0.00653076171875,0.94964599609375
1631106822137,-0.30023193359375,0.0020751953125,0.95147705078125
1631106822153,-0.29412841796875,0.005615234375,0.94927978515625
1631106822153,-0.2950439453125,0.0030517578125,0.95025634765625
1631106822184,-0.29779052734375,0.0008544921875,0.9434814453125
1631106822184,-0.29833984375,0.001953125,0.94757080078125
1631106822184,-0.29791259765625,0.009765625,0.93988037109375
1631106822215,-0.2933349609375,0.010986328125,0.9403076171875
1631106822231,-0.29425048828125,0.00616455078125,0.9429931640625
1631106822246,-0.29205322265625,0.00433349609375,0.94342041015625
1631106822293,-0.2891845703125,0.00372314453125,0.95306396484375
1631106822293,-0.292724609375,0.00439453125,0.9482421875
1631106822293,-0.2886962890625,0.00225830078125,0.94677734375
1631106822340,-0.28955078125,-0.00335693359375,0.95166015625
1631106822340,-0.29052734375,-0.00250244140625,0.95428466796875
1631106822340,-0.2923583984375,-0.00146484375,0.9549560546875
1631106822403,-0.29034423828125,0.00299072265625,0.9521484375
1631106822403,-0.28985595703125,0.0045166015625,0.9481201171875
1631106822403,-0.290771484375,0.00164794921875,0.94769287109375
1631106822481,-0.2957763671875,0.00836181640625,0.95556640625
1631106822481,-0.29534912109375,0.0029296875,0.954833984375
1631106822481,-0.29144287109375,0.0032958984375,0.953857421875
1631106822528,-0.29339599609375,0.00958251953125,0.94818115234375
1631106822528,-0.2918701171875,0.01031494140625,0.951171875
1631106822528,-0.29559326171875,0.01019287109375,0.95086669921875
1631106822575,-0.2991943359375,0.01251220703125,0.95074462890625
1631106822590,-0.29949951171875,0.01129150390625,0.94940185546875
1631106822590,-0.29571533203125,0.011962890625,0.94921875
1631106822652,-0.29498291015625,0.0152587890625,0.94873046875
1631106822652,-0.298583984375,0.014892578125,0.94696044921875
1631106822676,-0.29608154296875,0.01458740234375,0.944091796875
1631106822708,-0.29803466796875,0.0155029296875,0.94708251953125
1631106822708,-0.29730224609375,0.014892578125,0.94610595703125
1631106822708,-0.298095703125,0.0159912109375,0.945556640625
1631106822755,-0.29400634765625,0.00933837890625,0.94708251953125
1631106822755,-0.29510498046875,0.013916015625,0.94329833984375
1631106822755,-0.2952880859375,0.01031494140625,0.94281005859375
1631106822817,-0.2919921875,0.00677490234375,0.9495849609375
1631106822817,-0.29290771484375,0.00079345703125,0.95062255859375
1631106822817,-0.2921142578125,0.00714111328125,0.94805908203125
1631106822896,-0.2918701171875,0.00341796875,0.952392578125
1631106822896,-0.293701171875,0.00164794921875,0.953125
1631106822896,-0.29193115234375,0.003662109375,0.953369140625
1631106822942,-0.29193115234375,0.0001220703125,0.9515380859375
1631106822942,-0.2891845703125,0.00390625,0.952392578125
1631106822942,-0.290283203125,0.00042724609375,0.95343017578125
1631106823005,-0.2911376953125,0.0064697265625,0.95025634765625
1631106823005,-0.2916259765625,0.00689697265625,0.94635009765625
1631106823005,-0.29345703125,0.00506591796875,0.95037841796875
1631106823051,-0.29205322265625,0.00738525390625,0.950439453125
1631106823067,-0.29058837890625,0.0103759765625,0.95343017578125
1631106823067,-0.2926025390625,0.0050048828125,0.95074462890625
1631106823114,-0.29193115234375,0.00799560546875,0.95220947265625
1631106823114,-0.29498291015625,0.00323486328125,0.95684814453125
1631106823114,-0.29290771484375,0.0107421875,0.95050048828125
1631106823176,-0.29376220703125,0.00323486328125,0.9461669921875
1631106823176,-0.2921142578125,0.0146484375,0.94427490234375
1631106823176,-0.29638671875,0.00555419921875,0.9427490234375
1631106823239,-0.290283203125,0.01318359375,0.94586181640625
1631106823239,-0.28814697265625,0.0125732421875,0.94915771484375
1631106823239,-0.28912353515625,0.01513671875,0.9482421875
1631106823286,-0.28668212890625,0.011474609375,0.94927978515625
1631106823286,-0.2857666015625,0.01190185546875,0.95245361328125
1631106823286,-0.28778076171875,0.0106201171875,0.95538330078125
1631106823348,-0.294189453125,0.0091552734375,0.95440673828125
1631106823348,-0.29254150390625,0.0068359375,0.9493408203125
1631106823348,-0.2879638671875,0.01104736328125,0.957275390625
1631106823395,-0.292724609375,0.010986328125,0.94915771484375
1631106823395,-0.29034423828125,0.00909423828125,0.94720458984375
1631106823395,-0.2933349609375,0.01153564453125,0.94818115234375
1631106823457,-0.29949951171875,0.0054931640625,0.94769287109375
1631106823457,-0.297607421875,0.01153564453125,0.947265625
1631106823457,-0.2930908203125,0.006591796875,0.94622802734375
1631106823489,-0.295166015625,0.01287841796875,0.9464111328125
1631106823489,-0.29437255859375,0.0123291015625,0.94921875
1631106823489,-0.2958984375,0.0147705078125,0.94525146484375
1631106823567,-0.2918701171875,0.0128173828125,0.94921875
1631106823567,-0.29449462890625,0.01318359375,0.94964599609375
1631106823567,-0.29150390625,0.01446533203125,0.95159912109375
1631106823629,-0.29095458984375,0.011962890625,0.95361328125
1631106823645,-0.29473876953125,0.01495361328125,0.9468994140625
1631106823645,-0.29437255859375,0.01434326171875,0.949462890625
1631106823708,-0.29241943359375,0.015380859375,0.94677734375
1631106823708,-0.29559326171875,0.01513671875,0.94830322265625
1631106823708,-0.29156494140625,0.01446533203125,0.94964599609375
1631106823770,-0.29083251953125,0.01263427734375,0.94635009765625
1631106823770,-0.292236328125,0.010986328125,0.9456787109375
1631106823770,-0.2923583984375,0.0152587890625,0.9464111328125
1631106823833,-0.2938232421875,0.00885009765625,0.94989013671875
1631106823833,-0.2918701171875,0.0076904296875,0.9500732421875
1631106823833,-0.2916259765625,0.01239013671875,0.9486083984375
1631106823879,-0.29248046875,0.011474609375,0.95123291015625
1631106823879,-0.2911376953125,0.009033203125,0.952392578125
1631106823879,-0.290283203125,0.00860595703125,0.951416015625
1631106823942,-0.287841796875,0.0089111328125,0.94915771484375
1631106823942,-0.291015625,0.00811767578125,0.94873046875
1631106823942,-0.28826904296875,0.01202392578125,0.95233154296875
1631106823989,-0.2882080078125,0.01361083984375,0.9512939453125
1631106823989,-0.292724609375,0.01007080078125,0.95074462890625
1631106824005,-0.2918701171875,0.013427734375,0.950927734375
1631106824051,-0.29541015625,0.0130615234375,0.946533203125
1631106824051,-0.29364013671875,0.0147705078125,0.948974609375
1631106824051,-0.29351806640625,0.01202392578125,0.94805908203125
1631106824098,-0.29833984375,0.0106201171875,0.9483642578125
1631106824098,-0.2938232421875,0.01025390625,0.946533203125
1631106824098,-0.2943115234375,0.0091552734375,0.94744873046875
1631106824161,-0.29302978515625,0.01300048828125,0.94921875
1631106824161,-0.295654296875,0.00885009765625,0.95111083984375
1631106824177,-0.29736328125,0.00726318359375,0.949462890625
1631106824223,-0.29193115234375,0.019287109375,0.94927978515625
1631106824223,-0.29541015625,0.01220703125,0.9417724609375
1631106824223,-0.29620361328125,0.00213623046875,0.9423828125
1631106824286,-0.2896728515625,0.01806640625,0.9483642578125
1631106824286,-0.2890625,0.0125732421875,0.946533203125
1631106824286,-0.29205322265625,0.02032470703125,0.9481201171875
1631106824348,-0.28961181640625,0.0169677734375,0.9498291015625
1631106824364,-0.2896728515625,0.0140380859375,0.95465087890625
1631106824364,-0.2900390625,0.01800537109375,0.9549560546875
1631106824395,-0.29144287109375,0.0064697265625,0.951171875
1631106824395,-0.29730224609375,0.0111083984375,0.9559326171875
1631106824395,-0.29412841796875,0.01116943359375,0.9482421875
1631106824473,-0.29412841796875,0.01824951171875,0.94512939453125
1631106824473,-0.292724609375,0.01507568359375,0.94970703125
1631106824489,-0.293701171875,0.01092529296875,0.94927978515625
1631106824520,-0.29364013671875,0.0162353515625,0.9486083984375
1631106824520,-0.29620361328125,0.01702880859375,0.94873046875
1631106824520,-0.29296875,0.01007080078125,0.94732666015625
1631106824582,-0.292724609375,0.0179443359375,0.94970703125
1631106824582,-0.29644775390625,0.01470947265625,0.94921875
1631106824582,-0.29339599609375,0.01739501953125,0.94769287109375
1631106824629,-0.2940673828125,0.01434326171875,0.94927978515625
1631106824645,-0.29559326171875,0.0157470703125,0.9493408203125
1631106824676,-0.29443359375,0.01715087890625,0.94830322265625
1631106824676,-0.29461669921875,0.01788330078125,0.94561767578125
1631106824692,-0.29498291015625,0.015869140625,0.947265625
1631106824754,-0.29107666015625,0.01556396484375,0.94732666015625
1631106824754,-0.2987060546875,0.01654052734375,0.94952392578125
1631106824754,-0.2947998046875,0.01910400390625,0.9501953125
1631106824801,-0.29229736328125,0.0125732421875,0.94580078125
1631106824817,-0.2952880859375,0.01556396484375,0.94512939453125
1631106824817,-0.29620361328125,0.01422119140625,0.948974609375
1631106824879,-0.29443359375,0.01416015625,0.9501953125
1631106824879,-0.2908935546875,0.00750732421875,0.94940185546875
1631106824879,-0.29559326171875,0.01123046875,0.9503173828125
1631106824926,-0.29150390625,0.01068115234375,0.95166015625
1631106824926,-0.2943115234375,0.01373291015625,0.94964599609375
1631106824926,-0.29254150390625,0.0107421875,0.95025634765625
1631106824989,-0.295166015625,0.0137939453125,0.94830322265625
1631106824989,-0.293701171875,0.0146484375,0.95318603515625
1631106824989,-0.29150390625,0.01568603515625,0.95074462890625
1631106825051,-0.29266357421875,0.01263427734375,0.95269775390625
1631106825051,-0.29205322265625,0.0135498046875,0.94744873046875
1631106825051,-0.29022216796875,0.01263427734375,0.9512939453125
1631106825114,-0.294921875,0.0145263671875,0.94940185546875
1631106825114,-0.2947998046875,0.01220703125,0.94842529296875
1631106825129,-0.2955322265625,0.01812744140625,0.94659423828125
1631106825160,-0.291015625,0.00830078125,0.94744873046875
1631106825160,-0.2938232421875,0.01092529296875,0.95013427734375
1631106825160,-0.29132080078125,0.010986328125,0.95458984375
1631106825226,-0.29718017578125,0.0023193359375,0.94476318359375
1631106825226,-0.29205322265625,0.01220703125,0.955322265625
1631106825226,-0.29345703125,0.011962890625,0.9521484375
1631106825304,-0.2908935546875,0.01763916015625,0.94732666015625
1631106825304,-0.294921875,0.01922607421875,0.9423828125
1631106825304,-0.29339599609375,0.01055908203125,0.9403076171875
1631106825351,-0.29071044921875,0.0145263671875,0.95208740234375
1631106825351,-0.2880859375,0.0155029296875,0.95208740234375
1631106825351,-0.28363037109375,0.01263427734375,0.9520263671875
1631106825408,-0.287841796875,0.00994873046875,0.956298828125
1631106825408,-0.29095458984375,0.00787353515625,0.95501708984375
1631106825408,-0.2882080078125,0.00994873046875,0.952880859375
1631106825455,-0.28961181640625,0.0045166015625,0.95159912109375
1631106825455,-0.294189453125,0.00360107421875,0.94500732421875
1631106825455,-0.2921142578125,0.00677490234375,0.947265625
1631106825517,-0.29193115234375,0.005126953125,0.9493408203125
1631106825533,-0.29437255859375,0.00836181640625,0.9505615234375
1631106825533,-0.29595947265625,0.0048828125,0.9512939453125
1631106825580,-0.2940673828125,0.009033203125,0.94866943359375
1631106825580,-0.2896728515625,0.0107421875,0.948486328125
1631106825580,-0.29449462890625,0.00836181640625,0.94775390625
1631106825642,-0.29327392578125,0.01312255859375,0.9481201171875
1631106825658,-0.29791259765625,0.0133056640625,0.94891357421875
1631106825658,-0.29583740234375,0.01373291015625,0.948486328125
1631106825720,-0.2938232421875,0.0,0.9501953125
1631106825720,-0.29443359375,0.01348876953125,0.94769287109375
1631106825720,-0.29571533203125,0.01568603515625,0.9488525390625
1631106825751,-0.29412841796875,0.01605224609375,0.94598388671875
1631106825751,-0.2952880859375,0.013671875,0.9462890625
1631106825751,-0.2972412109375,0.0159912109375,0.94451904296875
1631106825814,-0.2991943359375,0.01300048828125,0.947021484375
1631106825814,-0.298828125,0.01251220703125,0.94354248046875
1631106825814,-0.29632568359375,0.019775390625,0.94659423828125
1631106825908,-0.29583740234375,0.01025390625,0.94378662109375
1631106825908,-0.29534912109375,0.00836181640625,0.944580078125
1631106825908,-0.29449462890625,0.01434326171875,0.94256591796875
1631106825939,-0.29345703125,0.00311279296875,0.949462890625
1631106825939,-0.29559326171875,0.00701904296875,0.946533203125
1631106825939,-0.2913818359375,0.0067138671875,0.94830322265625
1631106825986,-0.2916259765625,0.00439453125,0.9510498046875
1631106825986,-0.2943115234375,0.00714111328125,0.95037841796875
1631106825986,-0.29351806640625,0.00714111328125,0.95330810546875
1631106826064,-0.29736328125,0.01177978515625,0.9520263671875
1631106826079,-0.2933349609375,0.011474609375,0.94793701171875
1631106826079,-0.29327392578125,0.01171875,0.94891357421875
1631106826111,-0.29547119140625,0.01263427734375,0.9468994140625
1631106826126,-0.296142578125,0.014404296875,0.9462890625
1631106826223,-0.29779052734375,0.01434326171875,0.95245361328125
1631106826223,-0.29937744140625,0.0106201171875,0.95367431640625
1631106826223,-0.2991943359375,0.00909423828125,0.95098876953125
1631106826255,-0.3016357421875,0.001708984375,0.942138671875
1631106826255,-0.29827880859375,0.001708984375,0.94659423828125
1631106826270,-0.29962158203125,0.0072021484375,0.937744140625
1631106826286,-0.296630859375,0.01593017578125,0.9420166015625
1631106826286,-0.2974853515625,0.00860595703125,0.93988037109375
1631106826301,-0.3001708984375,0.0120849609375,0.941650390625
1631106826395,-0.290771484375,0.005859375,0.94781494140625
1631106826395,-0.29278564453125,0.01123046875,0.9488525390625
1631106826395,-0.2943115234375,0.01043701171875,0.94427490234375
1631106826395,-0.29522705078125,0.00628662109375,0.95263671875
1631106826395,-0.29376220703125,0.01123046875,0.95281982421875
1631106826395,-0.294921875,0.00714111328125,0.958251953125
1631106826473,-0.29351806640625,0.01055908203125,0.9473876953125
1631106826473,-0.29547119140625,0.00640869140625,0.94720458984375
1631106826473,-0.29449462890625,0.01300048828125,0.9464111328125
1631106826520,-0.29833984375,0.00994873046875,0.94879150390625
1631106826520,-0.2979736328125,0.00885009765625,0.94927978515625
1631106826520,-0.29315185546875,0.011962890625,0.9486083984375
1631106826614,-0.29998779296875,0.01458740234375,0.94146728515625
1631106826614,-0.2989501953125,0.01104736328125,0.9453125
1631106826614,-0.29730224609375,0.011474609375,0.946533203125
1631106826645,-0.29541015625,0.01123046875,0.94500732421875
1631106826645,-0.30267333984375,0.0103759765625,0.9481201171875
1631106826692,-0.29949951171875,0.01116943359375,0.94427490234375
1631106826692,-0.2965087890625,0.01129150390625,0.944580078125
1631106826708,-0.297119140625,0.01318359375,0.9449462890625
1631106826786,-0.29443359375,0.01519775390625,0.9471435546875
1631106826786,-0.29620361328125,0.01666259765625,0.94793701171875
1631106826801,-0.29718017578125,0.01470947265625,0.94818115234375
1631106826817,-0.2955322265625,0.00982666015625,0.94891357421875
1631106826817,-0.29638671875,0.01458740234375,0.9466552734375
1631106826817,-0.29705810546875,0.01605224609375,0.94757080078125
1631106826880,-0.29541015625,0.00982666015625,0.949951171875
1631106826880,-0.29534912109375,0.01116943359375,0.94976806640625
1631106826880,-0.2904052734375,0.00872802734375,0.9500732421875
1631106826942,-0.2962646484375,0.008056640625,0.953125
1631106826942,-0.2939453125,0.00750732421875,0.949462890625
1631106826942,-0.29095458984375,0.009521484375,0.95208740234375
1631106826989,-0.2890625,0.00604248046875,0.94970703125
1631106826989,-0.29644775390625,0.01025390625,0.9501953125
1631106827004,-0.29058837890625,0.010009765625,0.95135498046875
1631106827052,-0.2928466796875,0.012939453125,0.95086669921875
1631106827052,-0.29449462890625,0.01220703125,0.94970703125
1631106827114,-0.29522705078125,0.0157470703125,0.9520263671875
1631106827114,-0.29656982421875,0.01544189453125,0.9498291015625
1631106827114,-0.29437255859375,0.01373291015625,0.9520263671875
1631106827180,-0.29107666015625,0.01513671875,0.95123291015625
1631106827180,-0.29541015625,0.01708984375,0.9501953125
1631106827180,-0.298095703125,0.0147705078125,0.95556640625
1631106827242,-0.2978515625,0.01214599609375,0.9483642578125
1631106827242,-0.2982177734375,0.0145263671875,0.94500732421875
1631106827242,-0.29449462890625,0.00592041015625,0.943115234375
1631106827289,-0.295654296875,0.0135498046875,0.94384765625
1631106827289,-0.29656982421875,0.01800537109375,0.947998046875
1631106827289,-0.29510498046875,0.01800537109375,0.9478759765625
1631106827352,-0.292724609375,0.01202392578125,0.95489501953125
1631106827352,-0.29144287109375,0.01763916015625,0.94476318359375
1631106827352,-0.2935791015625,0.0128173828125,0.94866943359375
1631106827414,-0.2930908203125,0.0125732421875,0.9534912109375
1631106827414,-0.29522705078125,0.00848388671875,0.95269775390625
1631106827414,-0.295166015625,0.0103759765625,0.94671630859375
1631106827476,-0.29693603515625,0.0128173828125,0.94659423828125
1631106827476,-0.29595947265625,0.0078125,0.943603515625
1631106827476,-0.29638671875,0.01300048828125,0.942626953125
1631106827508,-0.30120849609375,0.01611328125,0.9488525390625
1631106827508,-0.299072265625,0.00970458984375,0.94805908203125
1631106827508,-0.29669189453125,0.01080322265625,0.94573974609375
1631106827586,-0.2960205078125,0.016845703125,0.94696044921875
1631106827586,-0.2999267578125,0.01849365234375,0.94757080078125
1631106827586,-0.29571533203125,0.01434326171875,0.94622802734375
1631106827648,-0.29547119140625,0.01434326171875,0.94854736328125
1631106827648,-0.29595947265625,0.016357421875,0.94512939453125
1631106827648,-0.29693603515625,0.01318359375,0.94696044921875
1631106827711,-0.2958984375,0.0146484375,0.947998046875
1631106827711,-0.29473876953125,0.01458740234375,0.95037841796875
1631106827711,-0.29595947265625,0.01708984375,0.94805908203125
1631106827758,-0.29559326171875,0.01806640625,0.95074462890625
1631106827758,-0.29510498046875,0.01910400390625,0.94818115234375
1631106827758,-0.29986572265625,0.020263671875,0.95013427734375
1631106827820,-0.29595947265625,0.0185546875,0.945556640625
1631106827820,-0.29534912109375,0.017822265625,0.9439697265625
1631106827820,-0.29888916015625,0.011962890625,0.947265625
1631106827867,-0.29425048828125,0.01031494140625,0.94683837890625
1631106827867,-0.2960205078125,0.0115966796875,0.94793701171875
1631106827883,-0.29229736328125,0.01080322265625,0.949462890625
1631106827945,-0.29632568359375,0.008056640625,0.95361328125
1631106827945,-0.2904052734375,0.01336669921875,0.94866943359375
1631106827945,-0.294921875,0.0147705078125,0.9537353515625
1631106828008,-0.2957763671875,0.01513671875,0.9508056640625
1631106828008,-0.294921875,0.01483154296875,0.9505615234375
1631106828008,-0.29052734375,0.01806640625,0.94781494140625
1631106828023,-0.29388427734375,0.0174560546875,0.9503173828125
1631106828039,-0.29437255859375,0.01397705078125,0.9520263671875
1631106828039,-0.2935791015625,0.01824951171875,0.9476318359375
1631106828180,-0.29730224609375,0.018798828125,0.9498291015625
1631106828181,-0.29412841796875,0.0198974609375,0.94793701171875
1631106828181,-0.298828125,0.0181884765625,0.94366455078125
1631106828214,-0.2974853515625,0.018310546875,0.94915771484375
1631106828229,-0.29669189453125,0.01812744140625,0.947998046875
1631106828229,-0.29632568359375,0.015380859375,0.94622802734375
1631106828245,-0.29986572265625,0.01043701171875,0.94305419921875
1631106828245,-0.301025390625,0.01690673828125,0.95050048828125
1631106828245,-0.29931640625,0.013427734375,0.950439453125
1631106828323,-0.29864501953125,0.0281982421875,0.94384765625
1631106828339,-0.30023193359375,0.0245361328125,0.9453125
1631106828339,-0.29864501953125,0.0157470703125,0.94415283203125
1631106828386,-0.2958984375,0.0174560546875,0.94305419921875
1631106828386,-0.2958984375,0.021728515625,0.94403076171875
1631106828386,-0.29302978515625,0.0172119140625,0.9462890625
1631106828432,-0.29571533203125,0.0146484375,0.95440673828125
1631106828432,-0.2979736328125,0.0166015625,0.95147705078125
1631106828432,-0.2982177734375,0.01080322265625,0.9517822265625
1631106828495,-0.30230712890625,0.016357421875,0.94390869140625
1631106828495,-0.30322265625,0.0206298828125,0.94189453125
1631106828495,-0.30389404296875,0.01251220703125,0.9476318359375
1631106828526,-0.30108642578125,0.01611328125,0.9471435546875
1631106828526,-0.299072265625,0.018310546875,0.94415283203125
1631106828526,-0.3021240234375,0.01678466796875,0.94537353515625
1631106828651,-0.30487060546875,0.01788330078125,0.94659423828125
1631106828651,-0.300048828125,0.018798828125,0.94659423828125
1631106828667,-0.3046875,0.02191162109375,0.94635009765625
1631106828698,-0.2998046875,0.021728515625,0.945068359375
1631106828698,-0.3023681640625,0.02239990234375,0.946533203125
1631106828698,-0.29974365234375,0.02154541015625,0.94879150390625
1631106828776,-0.299072265625,0.01849365234375,0.9483642578125
1631106828776,-0.3017578125,0.01776123046875,0.94537353515625
1631106828776,-0.299072265625,0.0186767578125,0.950439453125
1631106828838,-0.29815673828125,0.01617431640625,0.94744873046875
1631106828838,-0.30267333984375,0.01470947265625,0.9453125
1631106828839,-0.298583984375,0.01824951171875,0.9449462890625
1631106828900,-0.30047607421875,0.01348876953125,0.946044921875
1631106828900,-0.29937744140625,0.0152587890625,0.94610595703125
1631106828900,-0.2987060546875,0.0147705078125,0.9466552734375
1631106828932,-0.298095703125,0.0030517578125,0.9439697265625
1631106828932,-0.302001953125,0.00885009765625,0.9442138671875
1631106828932,-0.296875,0.00616455078125,0.94580078125
1631106828978,-0.2991943359375,0.00775146484375,0.94830322265625
1631106828978,-0.29400634765625,0.00494384765625,0.94903564453125
1631106828978,-0.2991943359375,0.00341796875,0.95111083984375
1631106828994,-0.2965087890625,0.0091552734375,0.94873046875
1631106828994,-0.299072265625,0.00555419921875,0.95147705078125
1631106828995,-0.29412841796875,0.01116943359375,0.94805908203125
1631106829105,-0.299072265625,0.01153564453125,0.94964599609375
1631106829105,-0.298583984375,0.01348876953125,0.94708251953125
1631106829105,-0.3011474609375,0.012939453125,0.94732666015625
1631106829135,-0.30230712890625,0.017578125,0.945068359375
1631106829135,-0.301025390625,0.01849365234375,0.9468994140625
1631106829135,-0.30084228515625,0.01812744140625,0.94342041015625
1631106829214,-0.2994384765625,0.0201416015625,0.94622802734375
1631106829214,-0.2999267578125,0.01983642578125,0.9508056640625
1631106829214,-0.29803466796875,0.01995849609375,0.94500732421875
1631106829261,-0.3065185546875,0.0135498046875,0.9549560546875
1631106829261,-0.3026123046875,0.016845703125,0.949462890625
1631106829261,-0.302490234375,0.00665283203125,0.9439697265625
1631106829291,-0.3037109375,0.00482177734375,0.9432373046875
1631106829292,-0.302001953125,0.01031494140625,0.94158935546875
1631106829292,-0.3018798828125,0.01544189453125,0.9429931640625
1631106829401,-0.29876708984375,0.00830078125,0.94189453125
1631106829401,-0.30035400390625,0.01153564453125,0.94476318359375
1631106829402,-0.29986572265625,0.005615234375,0.9407958984375
1631106829478,-0.30389404296875,0.00653076171875,0.95037841796875
1631106829478,-0.298583984375,0.0062255859375,0.94488525390625
1631106829479,-0.29931640625,-0.000732421875,0.94976806640625
1631106829509,-0.3017578125,-0.00390625,0.94610595703125
1631106829509,-0.2999267578125,0.00103759765625,0.94158935546875
1631106829510,-0.2999267578125,-0.0023193359375,0.9483642578125
1631106829557,-0.30322265625,0.00079345703125,0.9447021484375
1631106829557,-0.30645751953125,-0.00469970703125,0.946044921875
1631106829557,-0.30096435546875,-0.00421142578125,0.9427490234375
1631106829632,-0.30157470703125,-0.0028076171875,0.9483642578125
1631106829632,-0.30291748046875,-0.00628662109375,0.9493408203125
1631106829632,-0.2987060546875,-0.0023193359375,0.94488525390625
1631106829694,-0.30035400390625,-0.00439453125,0.9442138671875
1631106829694,-0.2979736328125,-0.00189208984375,0.9459228515625
1631106829695,-0.30377197265625,-0.00787353515625,0.94635009765625
1631106829725,-0.302734375,-0.00921630859375,0.95391845703125
1631106829725,-0.30157470703125,-0.00958251953125,0.9530029296875
1631106829725,-0.297119140625,-0.0101318359375,0.95208740234375
1631106829757,-0.30133056640625,-0.00433349609375,0.942138671875
1631106829757,-0.300048828125,-0.0040283203125,0.944580078125
1631106829759,-0.30303955078125,-0.0069580078125,0.9459228515625
1631106829802,-0.30157470703125,-0.0057373046875,0.94549560546875
1631106829802,-0.301513671875,-0.0028076171875,0.9422607421875
1631106829802,-0.30047607421875,-0.0032958984375,0.93804931640625
1631106829927,-0.29864501953125,-0.01458740234375,0.94268798828125
1631106829943,-0.2989501953125,-0.0118408203125,0.93804931640625
1631106829943,-0.30242919921875,-0.00506591796875,0.94232177734375
1631106830005,-0.295654296875,-0.02197265625,0.94970703125
1631106830005,-0.29461669921875,-0.017822265625,0.94781494140625
1631106830005,-0.3001708984375,-0.017333984375,0.94677734375
1631106830052,-0.29107666015625,-0.0255126953125,0.95074462890625
1631106830052,-0.29461669921875,-0.02520751953125,0.95343017578125
1631106830052,-0.29345703125,-0.023193359375,0.94970703125
1631106830099,-0.29595947265625,-0.027587890625,0.94989013671875
1631106830099,-0.29949951171875,-0.0277099609375,0.94598388671875
1631106830099,-0.302734375,-0.0318603515625,0.9505615234375
1631106830130,-0.2998046875,-0.0367431640625,0.94769287109375
1631106830130,-0.30120849609375,-0.03924560546875,0.943359375
1631106830130,-0.3004150390625,-0.03729248046875,0.947998046875
1631106830161,-0.30255126953125,-0.0501708984375,0.94744873046875
1631106830161,-0.29925537109375,-0.04150390625,0.947021484375
1631106830161,-0.2994384765625,-0.0347900390625,0.942138671875
1631106830383,-0.29217529296875,-0.07586669921875,0.93841552734375
1631106830383,-0.293701171875,-0.07061767578125,0.9432373046875
1631106830383,-0.29302978515625,-0.08575439453125,0.94036865234375
1631106830383,-0.2916259765625,-0.071533203125,0.93682861328125
1631106830383,-0.3009033203125,-0.06719970703125,0.9453125
1631106830383,-0.29412841796875,-0.086181640625,0.94677734375
1631106830383,-0.29522705078125,-0.080810546875,0.936279296875
1631106830383,-0.29962158203125,-0.0706787109375,0.9395751953125
1631106830383,-0.30023193359375,-0.05908203125,0.94879150390625
1631106830414,-0.29974365234375,-0.0836181640625,0.94537353515625
1631106830414,-0.29266357421875,-0.08526611328125,0.9464111328125
1631106830414,-0.2950439453125,-0.0823974609375,0.94842529296875
1631106830492,-0.2955322265625,-0.0823974609375,0.947998046875
1631106830492,-0.2998046875,-0.084228515625,0.9471435546875
1631106830508,-0.29620361328125,-0.07958984375,0.946044921875
1631106830523,-0.296142578125,-0.0849609375,0.9517822265625
1631106830523,-0.2978515625,-0.07598876953125,0.94866943359375
1631106830523,-0.29901123046875,-0.07708740234375,0.9498291015625
1631106830586,-0.30206298828125,-0.06719970703125,0.9468994140625
1631106830586,-0.3023681640625,-0.0709228515625,0.94476318359375
1631106830586,-0.29937744140625,-0.0665283203125,0.94207763671875
1631106830633,-0.30902099609375,-0.0614013671875,0.95660400390625
1631106830633,-0.307861328125,-0.05755615234375,0.95355224609375
1631106830649,-0.303955078125,-0.06121826171875,0.949462890625
1631106830758,-0.30450439453125,-0.0509033203125,0.93719482421875
1631106830774,-0.2994384765625,-0.0400390625,0.92059326171875
1631106830774,-0.3035888671875,-0.05743408203125,0.94091796875
1631106830774,-0.30169677734375,-0.04949951171875,0.93499755859375
1631106830774,-0.2994384765625,-0.0386962890625,0.9136962890625
1631106830774,-0.3013916015625,-0.040771484375,0.92108154296875
1631106830820,-0.30462646484375,-0.06353759765625,0.94390869140625
1631106830820,-0.30157470703125,-0.06915283203125,0.9427490234375
1631106830820,-0.29791259765625,-0.07379150390625,0.9434814453125
1631106830945,-0.2889404296875,-0.0667724609375,0.95379638671875
1631106830945,-0.2935791015625,-0.07366943359375,0.950927734375
1631106830945,-0.294677734375,-0.0760498046875,0.94482421875
1631106830992,-0.288330078125,-0.0673828125,0.95855712890625
1631106830992,-0.2899169921875,-0.06103515625,0.9669189453125
1631106830992,-0.2899169921875,-0.061767578125,0.9656982421875
1631106831007,-0.29473876953125,-0.06201171875,0.96197509765625
1631106831007,-0.2899169921875,-0.0673828125,0.94927978515625
1631106831007,-0.29339599609375,-0.06451416015625,0.95684814453125
1631106831054,-0.29302978515625,-0.06951904296875,0.943359375
1631106831054,-0.29925537109375,-0.0692138671875,0.93756103515625
1631106831054,-0.2930908203125,-0.06707763671875,0.9398193359375
1631106831164,-0.29815673828125,-0.0577392578125,0.95233154296875
1631106831180,-0.296630859375,-0.05987548828125,0.94232177734375
1631106831181,-0.300048828125,-0.0614013671875,0.944580078125
1631106831195,-0.2967529296875,-0.05810546875,0.93524169921875
1631106831195,-0.29864501953125,-0.0625,0.9381103515625
1631106831195,-0.2960205078125,-0.04925537109375,0.93646240234375
1631106831292,-0.2965087890625,-0.04425048828125,0.942138671875
1631106831292,-0.2938232421875,-0.04443359375,0.93597412109375
1631106831292,-0.29705810546875,-0.0447998046875,0.9375
1631106831339,-0.2952880859375,-0.037109375,0.948974609375
1631106831339,-0.29559326171875,-0.03558349609375,0.943603515625
1631106831339,-0.290771484375,-0.03363037109375,0.95550537109375
1631106831370,-0.29437255859375,-0.03253173828125,0.95635986328125
1631106831370,-0.29278564453125,-0.037841796875,0.9537353515625
1631106831370,-0.2960205078125,-0.0364990234375,0.95147705078125
1631106831401,-0.29302978515625,-0.03961181640625,0.94464111328125
1631106831401,-0.2979736328125,-0.04180908203125,0.9466552734375
1631106831401,-0.30078125,-0.04888916015625,0.9449462890625
1631106831526,-0.30401611328125,-0.05242919921875,0.9500732421875
1631106831526,-0.30438232421875,-0.05328369140625,0.94927978515625
1631106831526,-0.30242919921875,-0.04937744140625,0.948486328125
1631106831620,-0.30517578125,-0.05328369140625,0.9393310546875
1631106831620,-0.30291748046875,-0.0494384765625,0.94305419921875
1631106831636,-0.306396484375,-0.05682373046875,0.9378662109375
1631106831636,-0.30810546875,-0.0499267578125,0.945068359375
1631106831636,-0.30389404296875,-0.05560302734375,0.9375
1631106831636,-0.30718994140625,-0.052978515625,0.93896484375
1631106831729,-0.30316162109375,-0.0584716796875,0.93609619140625
1631106831729,-0.30108642578125,-0.05975341796875,0.9383544921875
1631106831729,-0.30426025390625,-0.0565185546875,0.9403076171875
1631106831792,-0.29937744140625,-0.0513916015625,0.94683837890625
1631106831792,-0.30523681640625,-0.04974365234375,0.9400634765625
1631106831792,-0.3033447265625,-0.051513671875,0.9420166015625
1631106831792,-0.30291748046875,-0.05242919921875,0.9459228515625
1631106831792,-0.30401611328125,-0.054931640625,0.93841552734375
1631106831792,-0.299560546875,-0.0504150390625,0.9398193359375
1631106831855,-0.30096435546875,-0.0550537109375,0.947509765625
1631106831855,-0.29754638671875,-0.05718994140625,0.94927978515625
1631106831855,-0.29827880859375,-0.05499267578125,0.94781494140625
1631106831886,-0.30224609375,-0.05633544921875,0.9464111328125
1631106831886,-0.3023681640625,-0.0550537109375,0.94818115234375
1631106831886,-0.30322265625,-0.05450439453125,0.94451904296875
1631106831964,-0.3021240234375,-0.05450439453125,0.94744873046875
1631106831964,-0.30853271484375,-0.05535888671875,0.94952392578125
1631106831964,-0.3099365234375,-0.05584716796875,0.9434814453125
1631106831995,-0.30548095703125,-0.05126953125,0.94500732421875
1631106832011,-0.3092041015625,-0.05084228515625,0.94036865234375
1631106832011,-0.30670166015625,-0.0501708984375,0.9393310546875
1631106832104,-0.30999755859375,-0.04937744140625,0.93798828125
1631106832104,-0.3101806640625,-0.050537109375,0.9324951171875
1631106832104,-0.307861328125,-0.05010986328125,0.93963623046875
1631106832167,-0.316650390625,-0.05828857421875,0.9393310546875
1631106832167,-0.31097412109375,-0.0540771484375,0.93487548828125
1631106832167,-0.313720703125,-0.056884765625,0.9481201171875
1631106832198,-0.31341552734375,-0.0570068359375,0.94012451171875
1631106832198,-0.31390380859375,-0.04541015625,0.9384765625
1631106832198,-0.31341552734375,-0.0484619140625,0.93743896484375
1631106832276,-0.31085205078125,-0.0489501953125,0.93756103515625
1631106832276,-0.31256103515625,-0.053955078125,0.93548583984375
1631106832276,-0.30950927734375,-0.05194091796875,0.936767578125
1631106832354,-0.311279296875,-0.05120849609375,0.9383544921875
1631106832354,-0.31573486328125,-0.046630859375,0.947509765625
1631106832354,-0.3128662109375,-0.0479736328125,0.94512939453125
1631106832370,-0.315185546875,-0.04339599609375,0.9462890625
1631106832370,-0.31488037109375,-0.0372314453125,0.94073486328125
1631106832370,-0.313232421875,-0.04901123046875,0.94671630859375
1631106832417,-0.31549072265625,-0.0322265625,0.94268798828125
1631106832417,-0.31915283203125,-0.03399658203125,0.9404296875
1631106832417,-0.31756591796875,-0.03021240234375,0.941162109375
1631106832510,-0.31671142578125,-0.03472900390625,0.94024658203125
1631106832510,-0.31597900390625,-0.03070068359375,0.9381103515625
1631106832526,-0.31884765625,-0.03265380859375,0.9375
1631106832573,-0.3236083984375,-0.02166748046875,0.939697265625
1631106832573,-0.321044921875,-0.033447265625,0.93792724609375
1631106832573,-0.32110595703125,-0.03143310546875,0.935791015625
1631106832635,-0.317626953125,-0.016357421875,0.9398193359375
1631106832635,-0.3250732421875,-0.00738525390625,0.93853759765625
1631106832635,-0.31939697265625,-0.004638671875,0.93768310546875
1631106832698,-0.3236083984375,0.0126953125,0.93414306640625
1631106832698,-0.32427978515625,0.0079345703125,0.93487548828125
1631106832698,-0.3240966796875,0.0028076171875,0.93719482421875
1631106832760,-0.32342529296875,0.0191650390625,0.93341064453125
1631106832760,-0.32281494140625,0.0185546875,0.936279296875
1631106832776,-0.3243408203125,0.0164794921875,0.935302734375
1631106832807,-0.32269287109375,0.0228271484375,0.93939208984375
1631106832807,-0.32586669921875,0.02105712890625,0.9345703125
1631106832807,-0.32366943359375,0.0223388671875,0.936767578125
1631106832854,-0.3212890625,0.02740478515625,0.94000244140625
1631106832854,-0.3199462890625,0.02569580078125,0.93853759765625
1631106832854,-0.32220458984375,0.0267333984375,0.94140625
1631106832901,-0.31964111328125,0.02972412109375,0.9420166015625
1631106832901,-0.32244873046875,0.02691650390625,0.94287109375
1631106832901,-0.32275390625,0.02777099609375,0.94036865234375
1631106832948,-0.32476806640625,0.029541015625,0.94171142578125
1631106832948,-0.322021484375,0.02960205078125,0.9404296875
1631106832948,-0.31982421875,0.03497314453125,0.94305419921875
1631106833073,-0.3248291015625,0.0316162109375,0.939208984375
1631106833073,-0.3218994140625,0.0296630859375,0.941162109375
1631106833073,-0.3251953125,0.02899169921875,0.93768310546875
1631106833135,-0.3236083984375,0.02764892578125,0.945556640625
1631106833135,-0.32373046875,0.02191162109375,0.94342041015625
1631106833135,-0.32080078125,0.02734375,0.94195556640625
1631106833197,-0.3309326171875,0.01641845703125,0.934326171875
1631106833197,-0.33038330078125,0.01806640625,0.9453125
1631106833197,-0.32977294921875,0.01751708984375,0.93304443359375
1631106833197,-0.324951171875,0.0216064453125,0.9315185546875
1631106833197,-0.32958984375,0.02325439453125,0.92852783203125
1631106833197,-0.32757568359375,0.02032470703125,0.93109130859375
1631106833264,-0.33245849609375,0.01507568359375,0.933837890625
1631106833264,-0.33013916015625,0.01361083984375,0.935302734375
1631106833264,-0.32977294921875,0.01531982421875,0.93408203125
1631106833326,-0.3348388671875,0.010986328125,0.938232421875
1631106833326,-0.33453369140625,0.00897216796875,0.93743896484375
1631106833326,-0.33575439453125,0.00946044921875,0.9346923828125
1631106833373,-0.341552734375,0.01348876953125,0.93145751953125
1631106833373,-0.3370361328125,0.01544189453125,0.931396484375
1631106833373,-0.33599853515625,0.0140380859375,0.93035888671875
1631106833420,-0.33984375,0.0107421875,0.9345703125
1631106833420,-0.3387451171875,0.01275634765625,0.934814453125
1631106833420,-0.33941650390625,0.01324462890625,0.931640625
1631106833482,-0.34326171875,0.01031494140625,0.93084716796875
1631106833482,-0.3411865234375,0.01422119140625,0.9300537109375
1631106833498,-0.3414306640625,0.0087890625,0.93231201171875
1631106833560,-0.34771728515625,0.0086669921875,0.93206787109375
1631106833560,-0.3453369140625,0.0050048828125,0.93402099609375
1631106833560,-0.34747314453125,0.00494384765625,0.93603515625
1631106833592,-0.3485107421875,0.00274658203125,0.92822265625
1631106833592,-0.3480224609375,0.0015869140625,0.929931640625
1631106833592,-0.34515380859375,0.00140380859375,0.92919921875
1631106833654,-0.347900390625,0.00079345703125,0.92681884765625
1631106833654,-0.3497314453125,0.0001220703125,0.924560546875
1631106833654,-0.34967041015625,0.0025634765625,0.92242431640625
1631106833701,-0.3529052734375,-0.0059814453125,0.91961669921875
1631106833701,-0.3529052734375,-0.00653076171875,0.921142578125
1631106833701,-0.353759765625,-0.00408935546875,0.92376708984375
1631106833763,-0.356201171875,-0.01312255859375,0.92041015625
1631106833763,-0.35467529296875,-0.010498046875,0.91937255859375
1631106833763,-0.3529052734375,-0.0125732421875,0.92193603515625
1631106833795,-0.351318359375,-0.01959228515625,0.92620849609375
1631106833795,-0.35162353515625,-0.01495361328125,0.924560546875
1631106833795,-0.35394287109375,-0.01727294921875,0.9217529296875
1631106833873,-0.35247802734375,-0.01861572265625,0.92742919921875
